Event.Index,UTC.Timestamp,UTC.Date,Local.Timestamp,Local.Timezone,Local.Date,Experiment.ID,Experiment.Version,Tree.Node.Key,Repeat.Key,Schedule.ID,Participant.Private.ID,Participant.Starting.Group,Participant.Status,Participant.Completion.Code,Participant.External.Session.ID,Participant.Device.Type,Participant.Device,Participant.OS,Participant.Browser,Participant.Monitor.Size,Participant.Viewport.Size,Checkpoint,Task.Name,Task.Version,branch.69an,randomiser.8vg2,quota.bqtt,quota.rycs,quota.wtfi,quota.usve,quota.zgic,quota.f3yz,quota.r9vy,quota.tfqq,quota.3dga,quota.dtj6,Spreadsheet,Spreadsheet.Name,Spreadsheet.Row,Trial.Number,Screen.Number,Screen.Name,Zone.Name,Zone.Type,Reaction.Time,Reaction.Onset,Response.Type,Response,Attempt,Correct,Incorrect,Dishonest,X.Coordinate,Y.Coordinate,Timed.Out,randomise_blocks,randomise_trials,display,Arguments,ShowProgressBar,StartDate,EndDate,Duration,discuss_1,read_1,age,gender,gender_4_TEXT,edu,ID,arg_ID,Position,Arg_Position
1,1658936175292,27/07/2022 15:36:15,1658936176453,1,27/07/2022 16:36:16,94050,2,task-fbpo,NA,23334901,6847691,NA,complete,NA,62e15b3cf525ba4c20425ba1,computer,Desktop or Laptop,Windows 10,Chrome 103.0.0.0,1280x720,1280x577,NA,ITT Ratings,3,For,10,NA,NA,NA,NA,NA,NA,NA,NA,ACCEPT,NA,batch10hes,NA,NA,BEGIN TASK,NA,NA,NA,NA,NA,NA,NA,NA,NA,0,1,0,NA,NA,NA,NA,NA,NA,NA,NA,NA,NA,NA,NA,NA,NA,NA,NA,NA,NA,NA,NA,NA
2,1658936181236,27/07/2022 15:36:21,1658936182441,1,27/07/2022 16:36:22,94050,2,task-fbpo,NA,23334901,6847691,NA,complete,NA,62e15b3cf525ba4c20425ba1,computer,Desktop or Laptop,Windows 10,Chrome 103.0.0.0,1280x720,1280x577,NA,ITT Ratings,3,For,10,NA,NA,NA,NA,NA,NA,NA,NA,ACCEPT,NA,batch10hes,batch10hes,1,1,1,Screen 1,advancementZone,continue_button,5901.299999713898,NA,NA,NA,NA,0,1,0,NA,NA,NA,NA,NA,instructions,NA,NA,NA,NA,NA,NA,NA,NA,NA,NA,NA,NA,NA,NA,NA
3,1658936187700,27/07/2022 15:36:27,1658936188837,1,27/07/2022 16:36:28,94050,2,task-fbpo,NA,23334901,6847691,NA,complete,NA,62e15b3cf525ba4c20425ba1,computer,Desktop or Laptop,Windows 10,Chrome 103.0.0.0,1280x720,1280x577,NA,ITT Ratings,3,For,10,NA,NA,NA,NA,NA,NA,NA,NA,ACCEPT,NA,batch10hes,batch10hes,45,1,1,Screen 1,continueButton,response_rating_scale_likert_active,6371.200000286102,NA,NA,Agree,1,0,1,0,NA,NA,NA,NA,1,statements,I feel I can trust those who made the vaccine,1,17/05/2021 12:55,17/05/2021 13:16,1272,Rarely,Rarely,36,Female,-99,GCSEs,97,3,Against,For
4,1658936192104,27/07/2022 15:36:32,1658936193313,1,27/07/2022 16:36:33,94050,2,task-fbpo,NA,23334901,6847691,NA,complete,NA,62e15b3cf525ba4c20425ba1,computer,Desktop or Laptop,Windows 10,Chrome 103.0.0.0,1280x720,1280x577,NA,ITT Ratings,3,For,10,NA,NA,NA,NA,NA,NA,NA,NA,ACCEPT,NA,batch10hes,batch10hes,38,2,1,Screen 1,continueButton,response_rating_scale_likert_active,4456.400000095367,NA,NA,Somewhat Disagree,1,0,1,0,NA,NA,NA,NA,1,statements,It will give me immunity against covid,1,17/05/2021 13:02,17/05/2021 13:14,721,Never,Most weeks,20,Female,-99,A levels,96,2,Against,For
5,1658936196010,27/07/2022 15:36:36,1658936197128,1,27/07/2022 16:36:37,94050,2,task-fbpo,NA,23334901,6847691,NA,complete,NA,62e15b3cf525ba4c20425ba1,computer,Desktop or Laptop,Windows 10,Chrome 103.0.0.0,1280x720,1280x577,NA,ITT Ratings,3,For,10,NA,NA,NA,NA,NA,NA,NA,NA,ACCEPT,NA,batch10hes,batch10hes,26,3,1,Screen 1,continueButton,response_rating_scale_likert_active,3796.2000002861023,NA,NA,Strongly Agree,1,0,1,0,NA,NA,NA,NA,1,statements,Its important to stop the NHS being overun,1,17/05/2021 13:03,17/05/2021 13:12,586,Rarely,Once or twice a year,49,Male,-99,"Postgraduate degree (MSc, MA, MPhil)",94,2,Against,For
6,1658936200795,27/07/2022 15:36:40,1658936201985,1,27/07/2022 16:36:41,94050,2,task-fbpo,NA,23334901,6847691,NA,complete,NA,62e15b3cf525ba4c20425ba1,computer,Desktop or Laptop,Windows 10,Chrome 103.0.0.0,1280x720,1280x577,NA,ITT Ratings,3,For,10,NA,NA,NA,NA,NA,NA,NA,NA,ACCEPT,NA,batch10hes,batch10hes,8,4,1,Screen 1,continueButton,response_rating_scale_likert_active,4837.400000095367,NA,NA,Agree,1,0,1,0,NA,NA,NA,NA,1,statements,"I trust the scientists, doctors, and government when they say I need it",1,17/05/2021 12:36,17/05/2021 13:08,1951,A few times a year,Most months,64,Female,-99,GCSEs,91,2,Against,For
7,1658936204397,27/07/2022 15:36:44,1658936205551,1,27/07/2022 16:36:45,94050,2,task-fbpo,NA,23334901,6847691,NA,complete,NA,62e15b3cf525ba4c20425ba1,computer,Desktop or Laptop,Windows 10,Chrome 103.0.0.0,1280x720,1280x577,NA,ITT Ratings,3,For,10,NA,NA,NA,NA,NA,NA,NA,NA,ACCEPT,NA,batch10hes,batch10hes,5,5,1,Screen 1,continueButton,response_rating_scale_likert_active,3538.800000190735,NA,NA,Somewhat Disagree,1,0,1,0,NA,NA,NA,NA,1,statements,it causes blood clots and other side effects,1,17/05/2021 12:36,17/05/2021 13:08,1951,A few times a year,Most months,64,Female,-99,GCSEs,91,2,Against,Against
8,1658936221710,27/07/2022 15:37:01,1658936222861,1,27/07/2022 16:37:02,94050,2,task-fbpo,NA,23334901,6847691,NA,complete,NA,62e15b3cf525ba4c20425ba1,computer,Desktop or Laptop,Windows 10,Chrome 103.0.0.0,1280x720,1280x577,NA,ITT Ratings,3,For,10,NA,NA,NA,NA,NA,NA,NA,NA,ACCEPT,NA,batch10hes,batch10hes,24,6,1,Screen 1,continueButton,response_rating_scale_likert_active,17290.900000095367,NA,NA,Neither Agree nor Disagree,1,0,1,0,NA,NA,NA,NA,1,statements,Not everyone needs to be vaccinated to have the population ok with it.,1,17/05/2021 13:03,17/05/2021 13:12,586,Rarely,Once or twice a year,49,Male,-99,"Postgraduate degree (MSc, MA, MPhil)",94,3,Against,Against
9,1658936225777,27/07/2022 15:37:05,1658936226927,1,27/07/2022 16:37:06,94050,2,task-fbpo,NA,23334901,6847691,NA,complete,NA,62e15b3cf525ba4c20425ba1,computer,Desktop or Laptop,Windows 10,Chrome 103.0.0.0,1280x720,1280x577,NA,ITT Ratings,3,For,10,NA,NA,NA,NA,NA,NA,NA,NA,ACCEPT,NA,batch10hes,batch10hes,4,7,1,Screen 1,continueButton,response_rating_scale_likert_active,4050.699999809265,NA,NA,Disagree,1,0,1,0,NA,NA,NA,NA,1,statements,the vaccine hasn't been tested for the number of years required to know for certain whether it will cause serious side effects in the future,1,17/05/2021 12:36,17/05/2021 13:08,1951,A few times a year,Most months,64,Female,-99,GCSEs,91,1,Against,Against
10,1658936230853,27/07/2022 15:37:10,1658936232057,1,27/07/2022 16:37:12,94050,2,task-fbpo,NA,23334901,6847691,NA,complete,NA,62e15b3cf525ba4c20425ba1,computer,Desktop or Laptop,Windows 10,Chrome 103.0.0.0,1280x720,1280x577,NA,ITT Ratings,3,For,10,NA,NA,NA,NA,NA,NA,NA,NA,ACCEPT,NA,batch10hes,batch10hes,44,8,1,Screen 1,continueButton,response_rating_scale_likert_active,5113.599999904633,NA,NA,Somewhat Agree,1,0,1,0,NA,NA,NA,NA,1,statements,I want to eradicate covid completely,1,17/05/2021 12:55,17/05/2021 13:16,1272,Rarely,Rarely,36,Female,-99,GCSEs,97,2,Against,For
11,1658936234166,27/07/2022 15:37:14,1658936235308,1,27/07/2022 16:37:15,94050,2,task-fbpo,NA,23334901,6847691,NA,complete,NA,62e15b3cf525ba4c20425ba1,computer,Desktop or Laptop,Windows 10,Chrome 103.0.0.0,1280x720,1280x577,NA,ITT Ratings,3,For,10,NA,NA,NA,NA,NA,NA,NA,NA,ACCEPT,NA,batch10hes,batch10hes,10,9,1,Screen 1,continueButton,response_rating_scale_likert_active,3234.599999904633,NA,NA,Disagree,1,0,1,0,NA,NA,NA,NA,1,statements,I could be Allergic to ingredients,1,17/05/2021 13:08,17/05/2021 13:12,265,Never,Never,27,Female,-99,GCSEs,92,1,Against,Against
12,1658936236299,27/07/2022 15:37:16,1658936237348,1,27/07/2022 16:37:17,94050,2,task-fbpo,NA,23334901,6847691,NA,complete,NA,62e15b3cf525ba4c20425ba1,computer,Desktop or Laptop,Windows 10,Chrome 103.0.0.0,1280x720,1280x577,NA,ITT Ratings,3,For,10,NA,NA,NA,NA,NA,NA,NA,NA,ACCEPT,NA,batch10hes,batch10hes,39,10,1,Screen 1,continueButton,response_rating_scale_likert_active,2026.1999998092651,NA,NA,Strongly Agree,1,0,1,0,NA,NA,NA,NA,1,statements,I feel safer with it,1,17/05/2021 13:02,17/05/2021 13:14,721,Never,Most weeks,20,Female,-99,A levels,96,3,Against,For
13,1658936240597,27/07/2022 15:37:20,1658936241802,1,27/07/2022 16:37:21,94050,2,task-fbpo,NA,23334901,6847691,NA,complete,NA,62e15b3cf525ba4c20425ba1,computer,Desktop or Laptop,Windows 10,Chrome 103.0.0.0,1280x720,1280x577,NA,ITT Ratings,3,For,10,NA,NA,NA,NA,NA,NA,NA,NA,ACCEPT,NA,batch10hes,batch10hes,2,11,1,Screen 1,continueButton,response_rating_scale_likert_active,4439.599999904633,NA,NA,Somewhat Agree,1,0,1,0,NA,NA,NA,NA,1,statements,We would like to check you are reading each argument carefully. Please select 'Somewhat Agree' for this answer,1,NA,NA,NA,NA,NA,NA,NA,NA,NA,NA,check1,NA,NA
14,1658936245711,27/07/2022 15:37:25,1658936246866,1,27/07/2022 16:37:26,94050,2,task-fbpo,NA,23334901,6847691,NA,complete,NA,62e15b3cf525ba4c20425ba1,computer,Desktop or Laptop,Windows 10,Chrome 103.0.0.0,1280x720,1280x577,NA,ITT Ratings,3,For,10,NA,NA,NA,NA,NA,NA,NA,NA,ACCEPT,NA,batch10hes,batch10hes,3,12,1,Screen 1,continueButton,response_rating_scale_likert_active,5048.400000095367,NA,NA,Somewhat Disagree,1,0,1,0,NA,NA,NA,NA,1,statements,We would like to check you are reading each argument carefully. Please select 'Somewhat Disagree' for this answer,1,NA,NA,NA,NA,NA,NA,NA,NA,NA,NA,check2,NA,NA
15,1658936250772,27/07/2022 15:37:30,1658936251973,1,27/07/2022 16:37:31,94050,2,task-fbpo,NA,23334901,6847691,NA,complete,NA,62e15b3cf525ba4c20425ba1,computer,Desktop or Laptop,Windows 10,Chrome 103.0.0.0,1280x720,1280x577,NA,ITT Ratings,3,For,10,NA,NA,NA,NA,NA,NA,NA,NA,ACCEPT,NA,batch10hes,batch10hes,6,13,1,Screen 1,continueButton,response_rating_scale_likert_active,5093.099999904633,NA,NA,Strongly Disagree,1,0,1,0,NA,NA,NA,NA,1,statements,most people don't die from the virus so there is no need for a vaccine,1,17/05/2021 12:36,17/05/2021 13:08,1951,A few times a year,Most months,64,Female,-99,GCSEs,91,3,Against,Against
16,1658936252816,27/07/2022 15:37:32,1658936254013,1,27/07/2022 16:37:34,94050,2,task-fbpo,NA,23334901,6847691,NA,complete,NA,62e15b3cf525ba4c20425ba1,computer,Desktop or Laptop,Windows 10,Chrome 103.0.0.0,1280x720,1280x577,NA,ITT Ratings,3,For,10,NA,NA,NA,NA,NA,NA,NA,NA,ACCEPT,NA,batch10hes,batch10hes,47,14,1,Screen 1,continueButton,response_rating_scale_likert_active,2028.3000001907349,NA,NA,Strongly Disagree,1,0,1,0,NA,NA,NA,NA,1,statements,I don't trust vaccines in general.,1,17/05/2021 12:44,17/05/2021 13:17,1970,Rarely,Most months,26,Male,-99,"Undergraduate degree (BSc, BA)",98,2,Against,Against
17,1658936255615,27/07/2022 15:37:35,1658936256737,1,27/07/2022 16:37:36,94050,2,task-fbpo,NA,23334901,6847691,NA,complete,NA,62e15b3cf525ba4c20425ba1,computer,Desktop or Laptop,Windows 10,Chrome 103.0.0.0,1280x720,1280x577,NA,ITT Ratings,3,For,10,NA,NA,NA,NA,NA,NA,NA,NA,ACCEPT,NA,batch10hes,batch10hes,31,15,1,Screen 1,continueButton,response_rating_scale_likert_active,2709.5,NA,NA,Strongly Agree,1,0,1,0,NA,NA,NA,NA,1,statements,I want to see family,1,17/05/2021 13:05,17/05/2021 13:14,525,Most weeks,Most months,30,Female,-99,"Postgraduate degree (MSc, MA, MPhil)",95,1,Against,For
18,1658936267256,27/07/2022 15:37:47,1658936268462,1,27/07/2022 16:37:48,94050,2,task-fbpo,NA,23334901,6847691,NA,complete,NA,62e15b3cf525ba4c20425ba1,computer,Desktop or Laptop,Windows 10,Chrome 103.0.0.0,1280x720,1280x577,NA,ITT Ratings,3,For,10,NA,NA,NA,NA,NA,NA,NA,NA,ACCEPT,NA,batch10hes,batch10hes,57,16,1,Screen 1,continueButton,response_rating_scale_likert_active,11712.299999713898,NA,NA,Neither Agree nor Disagree,1,0,1,0,NA,NA,NA,NA,1,statements,Possibly less likely to suffer bad effects of do get it,1,17/05/2021 12:54,17/05/2021 13:20,1550,Most months,Most months,42,Male,-99,Vocational Training / Apprenticeship,99,3,Against,For
19,1658936270831,27/07/2022 15:37:50,1658936272037,1,27/07/2022 16:37:52,94050,2,task-fbpo,NA,23334901,6847691,NA,complete,NA,62e15b3cf525ba4c20425ba1,computer,Desktop or Laptop,Windows 10,Chrome 103.0.0.0,1280x720,1280x577,NA,ITT Ratings,3,For,10,NA,NA,NA,NA,NA,NA,NA,NA,ACCEPT,NA,batch10hes,batch10hes,62,17,1,Screen 1,continueButton,response_rating_scale_likert_active,3561.2000002861023,NA,NA,Agree,1,0,1,0,NA,NA,NA,NA,1,statements,I worry about my mum/relative who is high risk,1,17/05/2021 13:15,17/05/2021 13:22,438,Most months,Most months,35,Female,-99,A levels,100,2,Against,For
20,1658936273253,27/07/2022 15:37:53,1658936274452,1,27/07/2022 16:37:54,94050,2,task-fbpo,NA,23334901,6847691,NA,complete,NA,62e15b3cf525ba4c20425ba1,computer,Desktop or Laptop,Windows 10,Chrome 103.0.0.0,1280x720,1280x577,NA,ITT Ratings,3,For,10,NA,NA,NA,NA,NA,NA,NA,NA,ACCEPT,NA,batch10hes,batch10hes,46,18,1,Screen 1,continueButton,response_rating_scale_likert_active,2402.6000003814697,NA,NA,Strongly Disagree,1,0,1,0,NA,NA,NA,NA,1,statements,It's been rushed/not enough time to be fully tested.,1,17/05/2021 12:44,17/05/2021 13:17,1970,Rarely,Most months,26,Male,-99,"Undergraduate degree (BSc, BA)",98,1,Against,Against
21,1658936275981,27/07/2022 15:37:55,1658936277123,1,27/07/2022 16:37:57,94050,2,task-fbpo,NA,23334901,6847691,NA,complete,NA,62e15b3cf525ba4c20425ba1,computer,Desktop or Laptop,Windows 10,Chrome 103.0.0.0,1280x720,1280x577,NA,ITT Ratings,3,For,10,NA,NA,NA,NA,NA,NA,NA,NA,ACCEPT,NA,batch10hes,batch10hes,19,19,1,Screen 1,continueButton,response_rating_scale_likert_active,2654.800000190735,NA,NA,Agree,1,0,1,0,NA,NA,NA,NA,1,statements,I am scared of not having it.,1,17/05/2021 13:03,17/05/2021 13:12,530,Most months,Most months,31,Male,-99,A levels,93,1,Against,For
22,1658936278292,27/07/2022 15:37:58,1658936279501,1,27/07/2022 16:37:59,94050,2,task-fbpo,NA,23334901,6847691,NA,complete,NA,62e15b3cf525ba4c20425ba1,computer,Desktop or Laptop,Windows 10,Chrome 103.0.0.0,1280x720,1280x577,NA,ITT Ratings,3,For,10,NA,NA,NA,NA,NA,NA,NA,NA,ACCEPT,NA,batch10hes,batch10hes,41,20,1,Screen 1,continueButton,response_rating_scale_likert_active,2365.2999997138977,NA,NA,Somewhat Agree,1,0,1,0,NA,NA,NA,NA,1,statements,I am scared of any side effects,1,17/05/2021 12:55,17/05/2021 13:16,1272,Rarely,Rarely,36,Female,-99,GCSEs,97,2,Against,Against
23,1658936281778,27/07/2022 15:38:01,1658936282987,1,27/07/2022 16:38:02,94050,2,task-fbpo,NA,23334901,6847691,NA,complete,NA,62e15b3cf525ba4c20425ba1,computer,Desktop or Laptop,Windows 10,Chrome 103.0.0.0,1280x720,1280x577,NA,ITT Ratings,3,For,10,NA,NA,NA,NA,NA,NA,NA,NA,ACCEPT,NA,batch10hes,batch10hes,49,21,1,Screen 1,continueButton,response_rating_scale_likert_active,3472.599999904633,NA,NA,Somewhat Agree,1,0,1,0,NA,NA,NA,NA,1,statements,We can finally get back to a normal life with these shots.,1,17/05/2021 12:44,17/05/2021 13:17,1970,Rarely,Most months,26,Male,-99,"Undergraduate degree (BSc, BA)",98,1,Against,For
24,1658936285333,27/07/2022 15:38:05,1658936286487,1,27/07/2022 16:38:06,94050,2,task-fbpo,NA,23334901,6847691,NA,complete,NA,62e15b3cf525ba4c20425ba1,computer,Desktop or Laptop,Windows 10,Chrome 103.0.0.0,1280x720,1280x577,NA,ITT Ratings,3,For,10,NA,NA,NA,NA,NA,NA,NA,NA,ACCEPT,NA,batch10hes,batch10hes,36,22,1,Screen 1,continueButton,response_rating_scale_likert_active,3487.400000095367,NA,NA,Neither Agree nor Disagree,1,0,1,0,NA,NA,NA,NA,1,statements,I don't want to put anything in my body which I feel is unsafe,1,17/05/2021 13:02,17/05/2021 13:14,721,Never,Most weeks,20,Female,-99,A levels,96,3,Against,Against
25,1658936288937,27/07/2022 15:38:08,1658936290144,1,27/07/2022 16:38:10,94050,2,task-fbpo,NA,23334901,6847691,NA,complete,NA,62e15b3cf525ba4c20425ba1,computer,Desktop or Laptop,Windows 10,Chrome 103.0.0.0,1280x720,1280x577,NA,ITT Ratings,3,For,10,NA,NA,NA,NA,NA,NA,NA,NA,ACCEPT,NA,batch10hes,batch10hes,15,23,1,Screen 1,continueButton,response_rating_scale_likert_active,3642.699999809265,NA,NA,Somewhat Agree,1,0,1,0,NA,NA,NA,NA,1,statements,I think that if I don't have it other people will judge me,1,17/05/2021 13:08,17/05/2021 13:12,265,Never,Never,27,Female,-99,GCSEs,92,3,Against,For
26,1658936291192,27/07/2022 15:38:11,1658936292397,1,27/07/2022 16:38:12,94050,2,task-fbpo,NA,23334901,6847691,NA,complete,NA,62e15b3cf525ba4c20425ba1,computer,Desktop or Laptop,Windows 10,Chrome 103.0.0.0,1280x720,1280x577,NA,ITT Ratings,3,For,10,NA,NA,NA,NA,NA,NA,NA,NA,ACCEPT,NA,batch10hes,batch10hes,43,24,1,Screen 1,continueButton,response_rating_scale_likert_active,2239.7999997138977,NA,NA,Strongly Agree,1,0,1,0,NA,NA,NA,NA,1,statements,I want to protect myself and those around me,1,17/05/2021 12:55,17/05/2021 13:16,1272,Rarely,Rarely,36,Female,-99,GCSEs,97,1,Against,For
27,1658936294774,27/07/2022 15:38:14,1658936295920,1,27/07/2022 16:38:15,94050,2,task-fbpo,NA,23334901,6847691,NA,complete,NA,62e15b3cf525ba4c20425ba1,computer,Desktop or Laptop,Windows 10,Chrome 103.0.0.0,1280x720,1280x577,NA,ITT Ratings,3,For,10,NA,NA,NA,NA,NA,NA,NA,NA,ACCEPT,NA,batch10hes,batch10hes,34,25,1,Screen 1,continueButton,response_rating_scale_likert_active,3509.5,NA,NA,Strongly Disagree,1,0,1,0,NA,NA,NA,NA,1,statements,It hasnt been tested over years so we don't know the long term side effects,1,17/05/2021 13:02,17/05/2021 13:14,721,Never,Most weeks,20,Female,-99,A levels,96,1,Against,Against
28,1658936299888,27/07/2022 15:38:19,1658936301094,1,27/07/2022 16:38:21,94050,2,task-fbpo,NA,23334901,6847691,NA,complete,NA,62e15b3cf525ba4c20425ba1,computer,Desktop or Laptop,Windows 10,Chrome 103.0.0.0,1280x720,1280x577,NA,ITT Ratings,3,For,10,NA,NA,NA,NA,NA,NA,NA,NA,ACCEPT,NA,batch10hes,batch10hes,56,26,1,Screen 1,continueButton,response_rating_scale_likert_active,5160.900000095367,NA,NA,Neither Agree nor Disagree,1,0,1,0,NA,NA,NA,NA,1,statements,Possibly less likely to get symptoms,1,17/05/2021 12:54,17/05/2021 13:20,1550,Most months,Most months,42,Male,-99,Vocational Training / Apprenticeship,99,2,Against,For
29,1658936302321,27/07/2022 15:38:22,1658936303525,1,27/07/2022 16:38:23,94050,2,task-fbpo,NA,23334901,6847691,NA,complete,NA,62e15b3cf525ba4c20425ba1,computer,Desktop or Laptop,Windows 10,Chrome 103.0.0.0,1280x720,1280x577,NA,ITT Ratings,3,For,10,NA,NA,NA,NA,NA,NA,NA,NA,ACCEPT,NA,batch10hes,batch10hes,22,27,1,Screen 1,continueButton,response_rating_scale_likert_active,2413.2999997138977,NA,NA,Strongly Disagree,1,0,1,0,NA,NA,NA,NA,1,statements,It is still in trials so we are being treated as guinea pigs,1,17/05/2021 13:03,17/05/2021 13:12,586,Rarely,Once or twice a year,49,Male,-99,"Postgraduate degree (MSc, MA, MPhil)",94,1,Against,Against
30,1658936305122,27/07/2022 15:38:25,1658936306268,1,27/07/2022 16:38:26,94050,2,task-fbpo,NA,23334901,6847691,NA,complete,NA,62e15b3cf525ba4c20425ba1,computer,Desktop or Laptop,Windows 10,Chrome 103.0.0.0,1280x720,1280x577,NA,ITT Ratings,3,For,10,NA,NA,NA,NA,NA,NA,NA,NA,ACCEPT,NA,batch10hes,batch10hes,60,28,1,Screen 1,continueButton,response_rating_scale_likert_active,2730.800000190735,NA,NA,Strongly Disagree,1,0,1,0,NA,NA,NA,NA,1,statements,Usually vaccines take years to develop and we don't know the long term effects,1,17/05/2021 13:15,17/05/2021 13:22,438,Most months,Most months,35,Female,-99,A levels,100,3,Against,Against
31,1658936307584,27/07/2022 15:38:27,1658936308787,1,27/07/2022 16:38:28,94050,2,task-fbpo,NA,23334901,6847691,NA,complete,NA,62e15b3cf525ba4c20425ba1,computer,Desktop or Laptop,Windows 10,Chrome 103.0.0.0,1280x720,1280x577,NA,ITT Ratings,3,For,10,NA,NA,NA,NA,NA,NA,NA,NA,ACCEPT,NA,batch10hes,batch10hes,58,29,1,Screen 1,continueButton,response_rating_scale_likert_active,2505.7000002861023,NA,NA,Disagree,1,0,1,0,NA,NA,NA,NA,1,statements,I am fit and healthy so do not need it,1,17/05/2021 13:15,17/05/2021 13:22,438,Most months,Most months,35,Female,-99,A levels,100,1,Against,Against
32,1658936311841,27/07/2022 15:38:31,1658936313050,1,27/07/2022 16:38:33,94050,2,task-fbpo,NA,23334901,6847691,NA,complete,NA,62e15b3cf525ba4c20425ba1,computer,Desktop or Laptop,Windows 10,Chrome 103.0.0.0,1280x720,1280x577,NA,ITT Ratings,3,For,10,NA,NA,NA,NA,NA,NA,NA,NA,ACCEPT,NA,batch10hes,batch10hes,30,30,1,Screen 1,continueButton,response_rating_scale_likert_active,4250.599999904633,NA,NA,Agree,1,0,1,0,NA,NA,NA,NA,1,statements,Don't trust BoJo to act in our best interests,1,17/05/2021 13:05,17/05/2021 13:14,525,Most weeks,Most months,30,Female,-99,"Postgraduate degree (MSc, MA, MPhil)",95,3,Against,Against
33,1658936314843,27/07/2022 15:38:34,1658936315979,1,27/07/2022 16:38:35,94050,2,task-fbpo,NA,23334901,6847691,NA,complete,NA,62e15b3cf525ba4c20425ba1,computer,Desktop or Laptop,Windows 10,Chrome 103.0.0.0,1280x720,1280x577,NA,ITT Ratings,3,For,10,NA,NA,NA,NA,NA,NA,NA,NA,ACCEPT,NA,batch10hes,batch10hes,32,31,1,Screen 1,continueButton,response_rating_scale_likert_active,2915.699999809265,NA,NA,Agree,1,0,1,0,NA,NA,NA,NA,1,statements,I think it's safe,1,17/05/2021 13:05,17/05/2021 13:14,525,Most weeks,Most months,30,Female,-99,"Postgraduate degree (MSc, MA, MPhil)",95,2,Against,For
34,1658936319586,27/07/2022 15:38:39,1658936320793,1,27/07/2022 16:38:40,94050,2,task-fbpo,NA,23334901,6847691,NA,complete,NA,62e15b3cf525ba4c20425ba1,computer,Desktop or Laptop,Windows 10,Chrome 103.0.0.0,1280x720,1280x577,NA,ITT Ratings,3,For,10,NA,NA,NA,NA,NA,NA,NA,NA,ACCEPT,NA,batch10hes,batch10hes,18,32,1,Screen 1,continueButton,response_rating_scale_likert_active,4802,NA,NA,Neither Agree nor Disagree,1,0,1,0,NA,NA,NA,NA,1,statements,Whether the vaccine is needed.,1,17/05/2021 13:03,17/05/2021 13:12,530,Most months,Most months,31,Male,-99,A levels,93,3,Against,Against
35,1658936325194,27/07/2022 15:38:45,1658936326379,1,27/07/2022 16:38:46,94050,2,task-fbpo,NA,23334901,6847691,NA,complete,NA,62e15b3cf525ba4c20425ba1,computer,Desktop or Laptop,Windows 10,Chrome 103.0.0.0,1280x720,1280x577,NA,ITT Ratings,3,For,10,NA,NA,NA,NA,NA,NA,NA,NA,ACCEPT,NA,batch10hes,batch10hes,29,33,1,Screen 1,continueButton,response_rating_scale_likert_active,5573.599999904633,NA,NA,Somewhat Agree,1,0,1,0,NA,NA,NA,NA,1,statements,Side effects including blood clots,1,17/05/2021 13:05,17/05/2021 13:14,525,Most weeks,Most months,30,Female,-99,"Postgraduate degree (MSc, MA, MPhil)",95,2,Against,Against
36,1658936328228,27/07/2022 15:38:48,1658936329439,1,27/07/2022 16:38:49,94050,2,task-fbpo,NA,23334901,6847691,NA,complete,NA,62e15b3cf525ba4c20425ba1,computer,Desktop or Laptop,Windows 10,Chrome 103.0.0.0,1280x720,1280x577,NA,ITT Ratings,3,For,10,NA,NA,NA,NA,NA,NA,NA,NA,ACCEPT,NA,batch10hes,batch10hes,16,34,1,Screen 1,continueButton,response_rating_scale_likert_active,3043.699999809265,NA,NA,Somewhat Disagree,1,0,1,0,NA,NA,NA,NA,1,statements,Bad experience with vaccines in the past.,1,17/05/2021 13:03,17/05/2021 13:12,530,Most months,Most months,31,Male,-99,A levels,93,1,Against,Against
37,1658936332389,27/07/2022 15:38:52,1658936333578,1,27/07/2022 16:38:53,94050,2,task-fbpo,NA,23334901,6847691,NA,complete,NA,62e15b3cf525ba4c20425ba1,computer,Desktop or Laptop,Windows 10,Chrome 103.0.0.0,1280x720,1280x577,NA,ITT Ratings,3,For,10,NA,NA,NA,NA,NA,NA,NA,NA,ACCEPT,NA,batch10hes,batch10hes,21,35,1,Screen 1,continueButton,response_rating_scale_likert_active,4124.10000038147,NA,NA,Neither Agree nor Disagree,1,0,1,0,NA,NA,NA,NA,1,statements,The news/government tells the to.,1,17/05/2021 13:03,17/05/2021 13:12,530,Most months,Most months,31,Male,-99,A levels,93,3,Against,For
38,1658936335265,27/07/2022 15:38:55,1658936336417,1,27/07/2022 16:38:56,94050,2,task-fbpo,NA,23334901,6847691,NA,complete,NA,62e15b3cf525ba4c20425ba1,computer,Desktop or Laptop,Windows 10,Chrome 103.0.0.0,1280x720,1280x577,NA,ITT Ratings,3,For,10,NA,NA,NA,NA,NA,NA,NA,NA,ACCEPT,NA,batch10hes,batch10hes,9,36,1,Screen 1,continueButton,response_rating_scale_likert_active,2825.800000190735,NA,NA,Agree,1,0,1,0,NA,NA,NA,NA,1,statements,It is the only way to come out of this pandemic,1,17/05/2021 12:36,17/05/2021 13:08,1951,A few times a year,Most months,64,Female,-99,GCSEs,91,3,Against,For
39,1658936339536,27/07/2022 15:38:59,1658936340740,1,27/07/2022 16:39:00,94050,2,task-fbpo,NA,23334901,6847691,NA,complete,NA,62e15b3cf525ba4c20425ba1,computer,Desktop or Laptop,Windows 10,Chrome 103.0.0.0,1280x720,1280x577,NA,ITT Ratings,3,For,10,NA,NA,NA,NA,NA,NA,NA,NA,ACCEPT,NA,batch10hes,batch10hes,52,37,1,Screen 1,continueButton,response_rating_scale_likert_active,4306.799999713898,NA,NA,Strongly Disagree,1,0,1,0,NA,NA,NA,NA,1,statements,Worried about long-term effects. Or the danger to health from having to be injected year after year..for very little shown benefit,1,17/05/2021 12:54,17/05/2021 13:20,1550,Most months,Most months,42,Male,-99,Vocational Training / Apprenticeship,99,1,Against,Against
40,1658936343178,27/07/2022 15:39:03,1658936344380,1,27/07/2022 16:39:04,94050,2,task-fbpo,NA,23334901,6847691,NA,complete,NA,62e15b3cf525ba4c20425ba1,computer,Desktop or Laptop,Windows 10,Chrome 103.0.0.0,1280x720,1280x577,NA,ITT Ratings,3,For,10,NA,NA,NA,NA,NA,NA,NA,NA,ACCEPT,NA,batch10hes,batch10hes,14,38,1,Screen 1,continueButton,response_rating_scale_likert_active,3627.1000003814697,NA,NA,Strongly Agree,1,0,1,0,NA,NA,NA,NA,1,statements,I want to get back to normal and think this is the only way,1,17/05/2021 13:08,17/05/2021 13:12,265,Never,Never,27,Female,-99,GCSEs,92,2,Against,For
41,1658936345503,27/07/2022 15:39:05,1658936346655,1,27/07/2022 16:39:06,94050,2,task-fbpo,NA,23334901,6847691,NA,complete,NA,62e15b3cf525ba4c20425ba1,computer,Desktop or Laptop,Windows 10,Chrome 103.0.0.0,1280x720,1280x577,NA,ITT Ratings,3,For,10,NA,NA,NA,NA,NA,NA,NA,NA,ACCEPT,NA,batch10hes,batch10hes,11,39,1,Screen 1,continueButton,response_rating_scale_likert_active,2262,NA,NA,Disagree,1,0,1,0,NA,NA,NA,NA,1,statements,I may be Afraid of needles,1,17/05/2021 13:08,17/05/2021 13:12,265,Never,Never,27,Female,-99,GCSEs,92,2,Against,Against
42,1658936352005,27/07/2022 15:39:12,1658936353216,1,27/07/2022 16:39:13,94050,2,task-fbpo,NA,23334901,6847691,NA,complete,NA,62e15b3cf525ba4c20425ba1,computer,Desktop or Laptop,Windows 10,Chrome 103.0.0.0,1280x720,1280x577,NA,ITT Ratings,3,For,10,NA,NA,NA,NA,NA,NA,NA,NA,ACCEPT,NA,batch10hes,batch10hes,27,40,1,Screen 1,continueButton,response_rating_scale_likert_active,6546.099999904633,NA,NA,Agree,1,0,1,0,NA,NA,NA,NA,1,statements,Its important so that we demonstrate to the younger people its needed,1,17/05/2021 13:03,17/05/2021 13:12,586,Rarely,Once or twice a year,49,Male,-99,"Postgraduate degree (MSc, MA, MPhil)",94,3,Against,For
43,1658936357841,27/07/2022 15:39:17,1658936359049,1,27/07/2022 16:39:19,94050,2,task-fbpo,NA,23334901,6847691,NA,complete,NA,62e15b3cf525ba4c20425ba1,computer,Desktop or Laptop,Windows 10,Chrome 103.0.0.0,1280x720,1280x577,NA,ITT Ratings,3,For,10,NA,NA,NA,NA,NA,NA,NA,NA,ACCEPT,NA,batch10hes,batch10hes,53,41,1,Screen 1,continueButton,response_rating_scale_likert_active,5819.699999809265,NA,NA,Disagree,1,0,1,0,NA,NA,NA,NA,1,statements,Vaccine hasn't proven effectiveness yet as we have just come out of lockdown. I believe they have used the effectiveness of the lockdown but given the glory to the vaccine,1,17/05/2021 12:54,17/05/2021 13:20,1550,Most months,Most months,42,Male,-99,Vocational Training / Apprenticeship,99,2,Against,Against
44,1658936361082,27/07/2022 15:39:21,1658936362292,1,27/07/2022 16:39:22,94050,2,task-fbpo,NA,23334901,6847691,NA,complete,NA,62e15b3cf525ba4c20425ba1,computer,Desktop or Laptop,Windows 10,Chrome 103.0.0.0,1280x720,1280x577,NA,ITT Ratings,3,For,10,NA,NA,NA,NA,NA,NA,NA,NA,ACCEPT,NA,batch10hes,batch10hes,12,42,1,Screen 1,continueButton,response_rating_scale_likert_active,3230,NA,NA,Disagree,1,0,1,0,NA,NA,NA,NA,1,statements,I may be Under age,1,17/05/2021 13:08,17/05/2021 13:12,265,Never,Never,27,Female,-99,GCSEs,92,3,Against,Against
45,1658936364394,27/07/2022 15:39:24,1658936365543,1,27/07/2022 16:39:25,94050,2,task-fbpo,NA,23334901,6847691,NA,complete,NA,62e15b3cf525ba4c20425ba1,computer,Desktop or Laptop,Windows 10,Chrome 103.0.0.0,1280x720,1280x577,NA,ITT Ratings,3,For,10,NA,NA,NA,NA,NA,NA,NA,NA,ACCEPT,NA,batch10hes,batch10hes,42,43,1,Screen 1,continueButton,response_rating_scale_likert_active,3239,NA,NA,Strongly Disagree,1,0,1,0,NA,NA,NA,NA,1,statements,I fear it will give me covid rather than protect against it,1,17/05/2021 12:55,17/05/2021 13:16,1272,Rarely,Rarely,36,Female,-99,GCSEs,97,3,Against,Against
46,1658936369579,27/07/2022 15:39:29,1658936370716,1,27/07/2022 16:39:30,94050,2,task-fbpo,NA,23334901,6847691,NA,complete,NA,62e15b3cf525ba4c20425ba1,computer,Desktop or Laptop,Windows 10,Chrome 103.0.0.0,1280x720,1280x577,NA,ITT Ratings,3,For,10,NA,NA,NA,NA,NA,NA,NA,NA,ACCEPT,NA,batch10hes,batch10hes,13,44,1,Screen 1,continueButton,response_rating_scale_likert_active,5158,NA,NA,Agree,1,0,1,0,NA,NA,NA,NA,1,statements,I may want to travel and feel this means I would be the only option,1,17/05/2021 13:08,17/05/2021 13:12,265,Never,Never,27,Female,-99,GCSEs,92,1,Against,For
47,1658936372503,27/07/2022 15:39:32,1658936373696,1,27/07/2022 16:39:33,94050,2,task-fbpo,NA,23334901,6847691,NA,complete,NA,62e15b3cf525ba4c20425ba1,computer,Desktop or Laptop,Windows 10,Chrome 103.0.0.0,1280x720,1280x577,NA,ITT Ratings,3,For,10,NA,NA,NA,NA,NA,NA,NA,NA,ACCEPT,NA,batch10hes,batch10hes,7,45,1,Screen 1,continueButton,response_rating_scale_likert_active,2965.400000095367,NA,NA,Agree,1,0,1,0,NA,NA,NA,NA,1,statements,I don't want to die and this vaccine will protect me and my family,1,17/05/2021 12:36,17/05/2021 13:08,1951,A few times a year,Most months,64,Female,-99,GCSEs,91,1,Against,For
48,1658936374762,27/07/2022 15:39:34,1658936375905,1,27/07/2022 16:39:35,94050,2,task-fbpo,NA,23334901,6847691,NA,complete,NA,62e15b3cf525ba4c20425ba1,computer,Desktop or Laptop,Windows 10,Chrome 103.0.0.0,1280x720,1280x577,NA,ITT Ratings,3,For,10,NA,NA,NA,NA,NA,NA,NA,NA,ACCEPT,NA,batch10hes,batch10hes,17,46,1,Screen 1,continueButton,response_rating_scale_likert_active,2194,NA,NA,Strongly Disagree,1,0,1,0,NA,NA,NA,NA,1,statements,Scared of long-lasting side effects.,1,17/05/2021 13:03,17/05/2021 13:12,530,Most months,Most months,31,Male,-99,A levels,93,2,Against,Against
49,1658936379188,27/07/2022 15:39:39,1658936380388,1,27/07/2022 16:39:40,94050,2,task-fbpo,NA,23334901,6847691,NA,complete,NA,62e15b3cf525ba4c20425ba1,computer,Desktop or Laptop,Windows 10,Chrome 103.0.0.0,1280x720,1280x577,NA,ITT Ratings,3,For,10,NA,NA,NA,NA,NA,NA,NA,NA,ACCEPT,NA,batch10hes,batch10hes,55,47,1,Screen 1,continueButton,response_rating_scale_likert_active,4470.5,NA,NA,Neither Agree nor Disagree,1,0,1,0,NA,NA,NA,NA,1,statements,"Possible Herd immunity, might not spread the virus",1,17/05/2021 12:54,17/05/2021 13:20,1550,Most months,Most months,42,Male,-99,Vocational Training / Apprenticeship,99,1,Against,For
50,1658936391646,27/07/2022 15:39:51,1658936392853,1,27/07/2022 16:39:52,94050,2,task-fbpo,NA,23334901,6847691,NA,complete,NA,62e15b3cf525ba4c20425ba1,computer,Desktop or Laptop,Windows 10,Chrome 103.0.0.0,1280x720,1280x577,NA,ITT Ratings,3,For,10,NA,NA,NA,NA,NA,NA,NA,NA,ACCEPT,NA,batch10hes,batch10hes,54,48,1,Screen 1,continueButton,response_rating_scale_likert_active,12448.300000190737,NA,NA,Disagree,1,0,1,0,NA,NA,NA,NA,1,statements,"The cost and upkeep getting absolutely everyone vaccinated,would be better to get at risk groups done. Has been months since rollout yet less than half have the UK have been vaccinated fully.",1,17/05/2021 12:54,17/05/2021 13:20,1550,Most months,Most months,42,Male,-99,Vocational Training / Apprenticeship,99,3,Against,Against
51,1658936396418,27/07/2022 15:39:56,1658936397564,1,27/07/2022 16:39:57,94050,2,task-fbpo,NA,23334901,6847691,NA,complete,NA,62e15b3cf525ba4c20425ba1,computer,Desktop or Laptop,Windows 10,Chrome 103.0.0.0,1280x720,1280x577,NA,ITT Ratings,3,For,10,NA,NA,NA,NA,NA,NA,NA,NA,ACCEPT,NA,batch10hes,batch10hes,51,49,1,Screen 1,continueButton,response_rating_scale_likert_active,4698,NA,NA,Neither Agree nor Disagree,1,0,1,0,NA,NA,NA,NA,1,statements,My (insert peer pressuring family/friend/group/job) insisted I take it.,1,17/05/2021 12:44,17/05/2021 13:17,1970,Rarely,Most months,26,Male,-99,"Undergraduate degree (BSc, BA)",98,3,Against,For
52,1658936398278,27/07/2022 15:39:58,1658936399480,1,27/07/2022 16:39:59,94050,2,task-fbpo,NA,23334901,6847691,NA,complete,NA,62e15b3cf525ba4c20425ba1,computer,Desktop or Laptop,Windows 10,Chrome 103.0.0.0,1280x720,1280x577,NA,ITT Ratings,3,For,10,NA,NA,NA,NA,NA,NA,NA,NA,ACCEPT,NA,batch10hes,batch10hes,37,50,1,Screen 1,continueButton,response_rating_scale_likert_active,1901.8000001907349,NA,NA,Strongly Agree,1,0,1,0,NA,NA,NA,NA,1,statements,It will help the community,1,17/05/2021 13:02,17/05/2021 13:14,721,Never,Most weeks,20,Female,-99,A levels,96,1,Against,For
53,1658936402789,27/07/2022 15:40:02,1658936404000,1,27/07/2022 16:40:04,94050,2,task-fbpo,NA,23334901,6847691,NA,complete,NA,62e15b3cf525ba4c20425ba1,computer,Desktop or Laptop,Windows 10,Chrome 103.0.0.0,1280x720,1280x577,NA,ITT Ratings,3,For,10,NA,NA,NA,NA,NA,NA,NA,NA,ACCEPT,NA,batch10hes,batch10hes,59,51,1,Screen 1,continueButton,response_rating_scale_likert_active,4507.200000286102,NA,NA,Strongly Disagree,1,0,1,0,NA,NA,NA,NA,1,statements,People who are vulnerable will have it so why should I?,1,17/05/2021 13:15,17/05/2021 13:22,438,Most months,Most months,35,Female,-99,A levels,100,2,Against,Against
54,1658936406145,27/07/2022 15:40:06,1658936407303,1,27/07/2022 16:40:07,94050,2,task-fbpo,NA,23334901,6847691,NA,complete,NA,62e15b3cf525ba4c20425ba1,computer,Desktop or Laptop,Windows 10,Chrome 103.0.0.0,1280x720,1280x577,NA,ITT Ratings,3,For,10,NA,NA,NA,NA,NA,NA,NA,NA,ACCEPT,NA,batch10hes,batch10hes,20,52,1,Screen 1,continueButton,response_rating_scale_likert_active,3287.199999809265,NA,NA,Strongly Agree,1,0,1,0,NA,NA,NA,NA,1,statements,Worried about passing virus on to others.,1,17/05/2021 13:03,17/05/2021 13:12,530,Most months,Most months,31,Male,-99,A levels,93,2,Against,For
55,1658936408027,27/07/2022 15:40:08,1658936409233,1,27/07/2022 16:40:09,94050,2,task-fbpo,NA,23334901,6847691,NA,complete,NA,62e15b3cf525ba4c20425ba1,computer,Desktop or Laptop,Windows 10,Chrome 103.0.0.0,1280x720,1280x577,NA,ITT Ratings,3,For,10,NA,NA,NA,NA,NA,NA,NA,NA,ACCEPT,NA,batch10hes,batch10hes,61,53,1,Screen 1,continueButton,response_rating_scale_likert_active,1916.9000000953672,NA,NA,Agree,1,0,1,0,NA,NA,NA,NA,1,statements,I want to travel abroad easily,1,17/05/2021 13:15,17/05/2021 13:22,438,Most months,Most months,35,Female,-99,A levels,100,1,Against,For
56,1658936410775,27/07/2022 15:40:10,1658936411971,1,27/07/2022 16:40:11,94050,2,task-fbpo,NA,23334901,6847691,NA,complete,NA,62e15b3cf525ba4c20425ba1,computer,Desktop or Laptop,Windows 10,Chrome 103.0.0.0,1280x720,1280x577,NA,ITT Ratings,3,For,10,NA,NA,NA,NA,NA,NA,NA,NA,ACCEPT,NA,batch10hes,batch10hes,23,54,1,Screen 1,continueButton,response_rating_scale_likert_active,2723.8999996185303,NA,NA,Somewhat Disagree,1,0,1,0,NA,NA,NA,NA,1,statements,There is some evidence of serious side effects,1,17/05/2021 13:03,17/05/2021 13:12,586,Rarely,Once or twice a year,49,Male,-99,"Postgraduate degree (MSc, MA, MPhil)",94,2,Against,Against
57,1658936413973,27/07/2022 15:40:13,1658936415163,1,27/07/2022 16:40:15,94050,2,task-fbpo,NA,23334901,6847691,NA,complete,NA,62e15b3cf525ba4c20425ba1,computer,Desktop or Laptop,Windows 10,Chrome 103.0.0.0,1280x720,1280x577,NA,ITT Ratings,3,For,10,NA,NA,NA,NA,NA,NA,NA,NA,ACCEPT,NA,batch10hes,batch10hes,33,55,1,Screen 1,continueButton,response_rating_scale_likert_active,3180.1000003814697,NA,NA,Somewhat Agree,1,0,1,0,NA,NA,NA,NA,1,statements,The government wouldnt approve it if it wasn't safe,1,17/05/2021 13:05,17/05/2021 13:14,525,Most weeks,Most months,30,Female,-99,"Postgraduate degree (MSc, MA, MPhil)",95,3,Against,For
58,1658936416367,27/07/2022 15:40:16,1658936417562,1,27/07/2022 16:40:17,94050,2,task-fbpo,NA,23334901,6847691,NA,complete,NA,62e15b3cf525ba4c20425ba1,computer,Desktop or Laptop,Windows 10,Chrome 103.0.0.0,1280x720,1280x577,NA,ITT Ratings,3,For,10,NA,NA,NA,NA,NA,NA,NA,NA,ACCEPT,NA,batch10hes,batch10hes,48,56,1,Screen 1,continueButton,response_rating_scale_likert_active,2384.800000190735,NA,NA,Strongly Disagree,1,0,1,0,NA,NA,NA,NA,1,statements,"I put my faith in God, not man's solutions.",1,17/05/2021 12:44,17/05/2021 13:17,1970,Rarely,Most months,26,Male,-99,"Undergraduate degree (BSc, BA)",98,3,Against,Against
59,1658936418030,27/07/2022 15:40:18,1658936419236,1,27/07/2022 16:40:19,94050,2,task-fbpo,NA,23334901,6847691,NA,complete,NA,62e15b3cf525ba4c20425ba1,computer,Desktop or Laptop,Windows 10,Chrome 103.0.0.0,1280x720,1280x577,NA,ITT Ratings,3,For,10,NA,NA,NA,NA,NA,NA,NA,NA,ACCEPT,NA,batch10hes,batch10hes,28,57,1,Screen 1,continueButton,response_rating_scale_likert_active,1661.4000000953674,NA,NA,Strongly Disagree,1,0,1,0,NA,NA,NA,NA,1,statements,Not tested for long enough during trial stages,1,17/05/2021 13:05,17/05/2021 13:14,525,Most weeks,Most months,30,Female,-99,"Postgraduate degree (MSc, MA, MPhil)",95,1,Against,Against
60,1658936421218,27/07/2022 15:40:21,1658936422429,1,27/07/2022 16:40:22,94050,2,task-fbpo,NA,23334901,6847691,NA,complete,NA,62e15b3cf525ba4c20425ba1,computer,Desktop or Laptop,Windows 10,Chrome 103.0.0.0,1280x720,1280x577,NA,ITT Ratings,3,For,10,NA,NA,NA,NA,NA,NA,NA,NA,ACCEPT,NA,batch10hes,batch10hes,50,58,1,Screen 1,continueButton,response_rating_scale_likert_active,3179.5,NA,NA,Strongly Agree,1,0,1,0,NA,NA,NA,NA,1,statements,I am concerned about Covid-19 and don't want to get it.,1,17/05/2021 12:44,17/05/2021 13:17,1970,Rarely,Most months,26,Male,-99,"Undergraduate degree (BSc, BA)",98,2,Against,For
61,1658936423737,27/07/2022 15:40:23,1658936424947,1,27/07/2022 16:40:24,94050,2,task-fbpo,NA,23334901,6847691,NA,complete,NA,62e15b3cf525ba4c20425ba1,computer,Desktop or Laptop,Windows 10,Chrome 103.0.0.0,1280x720,1280x577,NA,ITT Ratings,3,For,10,NA,NA,NA,NA,NA,NA,NA,NA,ACCEPT,NA,batch10hes,batch10hes,63,59,1,Screen 1,continueButton,response_rating_scale_likert_active,2505.7000002861023,NA,NA,Somewhat Agree,1,0,1,0,NA,NA,NA,NA,1,statements,We need herd immunity,1,17/05/2021 13:15,17/05/2021 13:22,438,Most months,Most months,35,Female,-99,A levels,100,3,Against,For
62,1658936425997,27/07/2022 15:40:25,1658936427156,1,27/07/2022 16:40:27,94050,2,task-fbpo,NA,23334901,6847691,NA,complete,NA,62e15b3cf525ba4c20425ba1,computer,Desktop or Laptop,Windows 10,Chrome 103.0.0.0,1280x720,1280x577,NA,ITT Ratings,3,For,10,NA,NA,NA,NA,NA,NA,NA,NA,ACCEPT,NA,batch10hes,batch10hes,35,60,1,Screen 1,continueButton,response_rating_scale_likert_active,2195.800000190735,NA,NA,Strongly Disagree,1,0,1,0,NA,NA,NA,NA,1,statements,I feel it has been made too quickly,1,17/05/2021 13:02,17/05/2021 13:14,721,Never,Most weeks,20,Female,-99,A levels,96,2,Against,Against
63,1658936431230,27/07/2022 15:40:31,1658936432425,1,27/07/2022 16:40:32,94050,2,task-fbpo,NA,23334901,6847691,NA,complete,NA,62e15b3cf525ba4c20425ba1,computer,Desktop or Laptop,Windows 10,Chrome 103.0.0.0,1280x720,1280x577,NA,ITT Ratings,3,For,10,NA,NA,NA,NA,NA,NA,NA,NA,ACCEPT,NA,batch10hes,batch10hes,25,61,1,Screen 1,continueButton,response_rating_scale_likert_active,5259.300000190735,NA,NA,Agree,1,0,1,0,NA,NA,NA,NA,1,statements,Its important that we all get the vaccinated so that we can stop spread of dis-ease,1,17/05/2021 13:03,17/05/2021 13:12,586,Rarely,Once or twice a year,49,Male,-99,"Postgraduate degree (MSc, MA, MPhil)",94,1,Against,For
64,1658936434454,27/07/2022 15:40:34,1658936435596,1,27/07/2022 16:40:35,94050,2,task-fbpo,NA,23334901,6847691,NA,complete,NA,62e15b3cf525ba4c20425ba1,computer,Desktop or Laptop,Windows 10,Chrome 103.0.0.0,1280x720,1280x577,NA,ITT Ratings,3,For,10,NA,NA,NA,NA,NA,NA,NA,NA,ACCEPT,NA,batch10hes,batch10hes,40,62,1,Screen 1,continueButton,response_rating_scale_likert_active,3160.900000095367,NA,NA,Strongly Disagree,1,0,1,0,NA,NA,NA,NA,1,statements,I don't trust it because it is rushed,1,17/05/2021 12:55,17/05/2021 13:16,1272,Rarely,Rarely,36,Female,-99,GCSEs,97,1,Against,Against
65,1658936434500,27/07/2022 15:40:34,1658936435603,1,27/07/2022 16:40:35,94050,2,task-fbpo,NA,23334901,6847691,NA,complete,NA,62e15b3cf525ba4c20425ba1,computer,Desktop or Laptop,Windows 10,Chrome 103.0.0.0,1280x720,1280x577,NA,ITT Ratings,3,For,10,NA,NA,NA,NA,NA,NA,NA,NA,ACCEPT,NA,batch10hes,NA,NA,END TASK,NA,NA,NA,NA,259151,NA,NA,NA,NA,0,1,0,NA,NA,NA,NA,NA,NA,NA,NA,NA,NA,NA,NA,NA,NA,NA,NA,NA,NA,NA,NA,NA
1,1658936215824,27/07/2022 15:36:55,1658936215758,1,27/07/2022 16:36:55,94050,2,task-fbpo,NA,23334920,6847699,NA,complete,NA,62e15b4fef22be9126e5935a,computer,Desktop or Laptop,Windows 10,Chrome 103.0.0.0,1920x1080,1920x969,NA,ITT Ratings,3,For,10,NA,NA,NA,NA,NA,NA,NA,NA,ACCEPT,NA,batch10hes,NA,NA,BEGIN TASK,NA,NA,NA,NA,NA,NA,NA,NA,NA,0,1,0,NA,NA,NA,NA,NA,NA,NA,NA,NA,NA,NA,NA,NA,NA,NA,NA,NA,NA,NA,NA,NA
2,1658936218255,27/07/2022 15:36:58,1658936218224,1,27/07/2022 16:36:58,94050,2,task-fbpo,NA,23334920,6847699,NA,complete,NA,62e15b4fef22be9126e5935a,computer,Desktop or Laptop,Windows 10,Chrome 103.0.0.0,1920x1080,1920x969,NA,ITT Ratings,3,For,10,NA,NA,NA,NA,NA,NA,NA,NA,ACCEPT,NA,batch10hes,batch10hes,1,1,1,Screen 1,advancementZone,continue_button,2390.900000095367,NA,NA,NA,NA,0,1,0,NA,NA,NA,NA,NA,instructions,NA,NA,NA,NA,NA,NA,NA,NA,NA,NA,NA,NA,NA,NA,NA
3,1658936222475,27/07/2022 15:37:02,1658936222449,1,27/07/2022 16:37:02,94050,2,task-fbpo,NA,23334920,6847699,NA,complete,NA,62e15b4fef22be9126e5935a,computer,Desktop or Laptop,Windows 10,Chrome 103.0.0.0,1920x1080,1920x969,NA,ITT Ratings,3,For,10,NA,NA,NA,NA,NA,NA,NA,NA,ACCEPT,NA,batch10hes,batch10hes,48,1,1,Screen 1,continueButton,response_rating_scale_likert_active,4190.600000143051,NA,NA,Somewhat Agree,1,0,1,0,NA,NA,NA,NA,1,statements,"I put my faith in God, not man's solutions.",1,17/05/2021 12:44,17/05/2021 13:17,1970,Rarely,Most months,26,Male,-99,"Undergraduate degree (BSc, BA)",98,3,Against,Against
4,1658936225491,27/07/2022 15:37:05,1658936225471,1,27/07/2022 16:37:05,94050,2,task-fbpo,NA,23334920,6847699,NA,complete,NA,62e15b4fef22be9126e5935a,computer,Desktop or Laptop,Windows 10,Chrome 103.0.0.0,1920x1080,1920x969,NA,ITT Ratings,3,For,10,NA,NA,NA,NA,NA,NA,NA,NA,ACCEPT,NA,batch10hes,batch10hes,5,2,1,Screen 1,continueButton,response_rating_scale_likert_active,2989.399999856949,NA,NA,Disagree,1,0,1,0,NA,NA,NA,NA,1,statements,it causes blood clots and other side effects,1,17/05/2021 12:36,17/05/2021 13:08,1951,A few times a year,Most months,64,Female,-99,GCSEs,91,2,Against,Against
5,1658936227685,27/07/2022 15:37:07,1658936227655,1,27/07/2022 16:37:07,94050,2,task-fbpo,NA,23334920,6847699,NA,complete,NA,62e15b4fef22be9126e5935a,computer,Desktop or Laptop,Windows 10,Chrome 103.0.0.0,1920x1080,1920x969,NA,ITT Ratings,3,For,10,NA,NA,NA,NA,NA,NA,NA,NA,ACCEPT,NA,batch10hes,batch10hes,44,3,1,Screen 1,continueButton,response_rating_scale_likert_active,2160.2000000476837,NA,NA,Strongly Agree,1,0,1,0,NA,NA,NA,NA,1,statements,I want to eradicate covid completely,1,17/05/2021 12:55,17/05/2021 13:16,1272,Rarely,Rarely,36,Female,-99,GCSEs,97,2,Against,For
6,1658936233212,27/07/2022 15:37:13,1658936233199,1,27/07/2022 16:37:13,94050,2,task-fbpo,NA,23334920,6847699,NA,complete,NA,62e15b4fef22be9126e5935a,computer,Desktop or Laptop,Windows 10,Chrome 103.0.0.0,1920x1080,1920x969,NA,ITT Ratings,3,For,10,NA,NA,NA,NA,NA,NA,NA,NA,ACCEPT,NA,batch10hes,batch10hes,42,4,1,Screen 1,continueButton,response_rating_scale_likert_active,5520.100000143051,NA,NA,Disagree,1,0,1,0,NA,NA,NA,NA,1,statements,I fear it will give me covid rather than protect against it,1,17/05/2021 12:55,17/05/2021 13:16,1272,Rarely,Rarely,36,Female,-99,GCSEs,97,3,Against,Against
7,1658936235844,27/07/2022 15:37:15,1658936235823,1,27/07/2022 16:37:15,94050,2,task-fbpo,NA,23334920,6847699,NA,complete,NA,62e15b4fef22be9126e5935a,computer,Desktop or Laptop,Windows 10,Chrome 103.0.0.0,1920x1080,1920x969,NA,ITT Ratings,3,For,10,NA,NA,NA,NA,NA,NA,NA,NA,ACCEPT,NA,batch10hes,batch10hes,33,5,1,Screen 1,continueButton,response_rating_scale_likert_active,2597.5,NA,NA,Strongly Agree,1,0,1,0,NA,NA,NA,NA,1,statements,The government wouldnt approve it if it wasn't safe,1,17/05/2021 13:05,17/05/2021 13:14,525,Most weeks,Most months,30,Female,-99,"Postgraduate degree (MSc, MA, MPhil)",95,3,Against,For
8,1658936239124,27/07/2022 15:37:19,1658936239111,1,27/07/2022 16:37:19,94050,2,task-fbpo,NA,23334920,6847699,NA,complete,NA,62e15b4fef22be9126e5935a,computer,Desktop or Laptop,Windows 10,Chrome 103.0.0.0,1920x1080,1920x969,NA,ITT Ratings,3,For,10,NA,NA,NA,NA,NA,NA,NA,NA,ACCEPT,NA,batch10hes,batch10hes,36,6,1,Screen 1,continueButton,response_rating_scale_likert_active,3259.7999999523163,NA,NA,Somewhat Agree,1,0,1,0,NA,NA,NA,NA,1,statements,I don't want to put anything in my body which I feel is unsafe,1,17/05/2021 13:02,17/05/2021 13:14,721,Never,Most weeks,20,Female,-99,A levels,96,3,Against,Against
9,1658936248836,27/07/2022 15:37:28,1658936248823,1,27/07/2022 16:37:28,94050,2,task-fbpo,NA,23334920,6847699,NA,complete,NA,62e15b4fef22be9126e5935a,computer,Desktop or Laptop,Windows 10,Chrome 103.0.0.0,1920x1080,1920x969,NA,ITT Ratings,3,For,10,NA,NA,NA,NA,NA,NA,NA,NA,ACCEPT,NA,batch10hes,batch10hes,25,7,1,Screen 1,continueButton,response_rating_scale_likert_active,9688.5,NA,NA,Agree,1,0,1,0,NA,NA,NA,NA,1,statements,Its important that we all get the vaccinated so that we can stop spread of dis-ease,1,17/05/2021 13:03,17/05/2021 13:12,586,Rarely,Once or twice a year,49,Male,-99,"Postgraduate degree (MSc, MA, MPhil)",94,1,Against,For
10,1658936250162,27/07/2022 15:37:30,1658936250151,1,27/07/2022 16:37:30,94050,2,task-fbpo,NA,23334920,6847699,NA,complete,NA,62e15b4fef22be9126e5935a,computer,Desktop or Laptop,Windows 10,Chrome 103.0.0.0,1920x1080,1920x969,NA,ITT Ratings,3,For,10,NA,NA,NA,NA,NA,NA,NA,NA,ACCEPT,NA,batch10hes,batch10hes,37,8,1,Screen 1,continueButton,response_rating_scale_likert_active,1301.6999998092651,NA,NA,Strongly Agree,1,0,1,0,NA,NA,NA,NA,1,statements,It will help the community,1,17/05/2021 13:02,17/05/2021 13:14,721,Never,Most weeks,20,Female,-99,A levels,96,1,Against,For
11,1658936253289,27/07/2022 15:37:33,1658936253271,1,27/07/2022 16:37:33,94050,2,task-fbpo,NA,23334920,6847699,NA,complete,NA,62e15b4fef22be9126e5935a,computer,Desktop or Laptop,Windows 10,Chrome 103.0.0.0,1920x1080,1920x969,NA,ITT Ratings,3,For,10,NA,NA,NA,NA,NA,NA,NA,NA,ACCEPT,NA,batch10hes,batch10hes,35,9,1,Screen 1,continueButton,response_rating_scale_likert_active,3094.2000000476837,NA,NA,Somewhat Disagree,1,0,1,0,NA,NA,NA,NA,1,statements,I feel it has been made too quickly,1,17/05/2021 13:02,17/05/2021 13:14,721,Never,Most weeks,20,Female,-99,A levels,96,2,Against,Against
12,1658936256002,27/07/2022 15:37:36,1658936255991,1,27/07/2022 16:37:35,94050,2,task-fbpo,NA,23334920,6847699,NA,complete,NA,62e15b4fef22be9126e5935a,computer,Desktop or Laptop,Windows 10,Chrome 103.0.0.0,1920x1080,1920x969,NA,ITT Ratings,3,For,10,NA,NA,NA,NA,NA,NA,NA,NA,ACCEPT,NA,batch10hes,batch10hes,20,10,1,Screen 1,continueButton,response_rating_scale_likert_active,2698.099999904633,NA,NA,Somewhat Agree,1,0,1,0,NA,NA,NA,NA,1,statements,Worried about passing virus on to others.,1,17/05/2021 13:03,17/05/2021 13:12,530,Most months,Most months,31,Male,-99,A levels,93,2,Against,For
13,1658936258743,27/07/2022 15:37:38,1658936258688,1,27/07/2022 16:37:38,94050,2,task-fbpo,NA,23334920,6847699,NA,complete,NA,62e15b4fef22be9126e5935a,computer,Desktop or Laptop,Windows 10,Chrome 103.0.0.0,1920x1080,1920x969,NA,ITT Ratings,3,For,10,NA,NA,NA,NA,NA,NA,NA,NA,ACCEPT,NA,batch10hes,batch10hes,23,11,1,Screen 1,continueButton,response_rating_scale_likert_active,2667.7000000476837,NA,NA,Neither Agree nor Disagree,1,0,1,0,NA,NA,NA,NA,1,statements,There is some evidence of serious side effects,1,17/05/2021 13:03,17/05/2021 13:12,586,Rarely,Once or twice a year,49,Male,-99,"Postgraduate degree (MSc, MA, MPhil)",94,2,Against,Against
14,1658936260715,27/07/2022 15:37:40,1658936260703,1,27/07/2022 16:37:40,94050,2,task-fbpo,NA,23334920,6847699,NA,complete,NA,62e15b4fef22be9126e5935a,computer,Desktop or Laptop,Windows 10,Chrome 103.0.0.0,1920x1080,1920x969,NA,ITT Ratings,3,For,10,NA,NA,NA,NA,NA,NA,NA,NA,ACCEPT,NA,batch10hes,batch10hes,38,12,1,Screen 1,continueButton,response_rating_scale_likert_active,1992.9000000953672,NA,NA,Agree,1,0,1,0,NA,NA,NA,NA,1,statements,It will give me immunity against covid,1,17/05/2021 13:02,17/05/2021 13:14,721,Never,Most weeks,20,Female,-99,A levels,96,2,Against,For
15,1658936262841,27/07/2022 15:37:42,1658936262823,1,27/07/2022 16:37:42,94050,2,task-fbpo,NA,23334920,6847699,NA,complete,NA,62e15b4fef22be9126e5935a,computer,Desktop or Laptop,Windows 10,Chrome 103.0.0.0,1920x1080,1920x969,NA,ITT Ratings,3,For,10,NA,NA,NA,NA,NA,NA,NA,NA,ACCEPT,NA,batch10hes,batch10hes,12,13,1,Screen 1,continueButton,response_rating_scale_likert_active,2097.2000000476837,NA,NA,Disagree,1,0,1,0,NA,NA,NA,NA,1,statements,I may be Under age,1,17/05/2021 13:08,17/05/2021 13:12,265,Never,Never,27,Female,-99,GCSEs,92,3,Against,Against
16,1658936264728,27/07/2022 15:37:44,1658936264711,1,27/07/2022 16:37:44,94050,2,task-fbpo,NA,23334920,6847699,NA,complete,NA,62e15b4fef22be9126e5935a,computer,Desktop or Laptop,Windows 10,Chrome 103.0.0.0,1920x1080,1920x969,NA,ITT Ratings,3,For,10,NA,NA,NA,NA,NA,NA,NA,NA,ACCEPT,NA,batch10hes,batch10hes,31,14,1,Screen 1,continueButton,response_rating_scale_likert_active,1863.2000000476835,NA,NA,Strongly Agree,1,0,1,0,NA,NA,NA,NA,1,statements,I want to see family,1,17/05/2021 13:05,17/05/2021 13:14,525,Most weeks,Most months,30,Female,-99,"Postgraduate degree (MSc, MA, MPhil)",95,1,Against,For
17,1658936268732,27/07/2022 15:37:48,1658936268671,1,27/07/2022 16:37:48,94050,2,task-fbpo,NA,23334920,6847699,NA,complete,NA,62e15b4fef22be9126e5935a,computer,Desktop or Laptop,Windows 10,Chrome 103.0.0.0,1920x1080,1920x969,NA,ITT Ratings,3,For,10,NA,NA,NA,NA,NA,NA,NA,NA,ACCEPT,NA,batch10hes,batch10hes,22,15,1,Screen 1,continueButton,response_rating_scale_likert_active,3935.899999856949,NA,NA,Somewhat Disagree,1,0,1,0,NA,NA,NA,NA,1,statements,It is still in trials so we are being treated as guinea pigs,1,17/05/2021 13:03,17/05/2021 13:12,586,Rarely,Once or twice a year,49,Male,-99,"Postgraduate degree (MSc, MA, MPhil)",94,1,Against,Against
18,1658936273780,27/07/2022 15:37:53,1658936273738,1,27/07/2022 16:37:53,94050,2,task-fbpo,NA,23334920,6847699,NA,complete,NA,62e15b4fef22be9126e5935a,computer,Desktop or Laptop,Windows 10,Chrome 103.0.0.0,1920x1080,1920x969,NA,ITT Ratings,3,For,10,NA,NA,NA,NA,NA,NA,NA,NA,ACCEPT,NA,batch10hes,batch10hes,62,16,1,Screen 1,continueButton,response_rating_scale_likert_active,4985.099999904633,NA,NA,Neither Agree nor Disagree,1,0,1,0,NA,NA,NA,NA,1,statements,I worry about my mum/relative who is high risk,1,17/05/2021 13:15,17/05/2021 13:22,438,Most months,Most months,35,Female,-99,A levels,100,2,Against,For
19,1658936276538,27/07/2022 15:37:56,1658936276520,1,27/07/2022 16:37:56,94050,2,task-fbpo,NA,23334920,6847699,NA,complete,NA,62e15b4fef22be9126e5935a,computer,Desktop or Laptop,Windows 10,Chrome 103.0.0.0,1920x1080,1920x969,NA,ITT Ratings,3,For,10,NA,NA,NA,NA,NA,NA,NA,NA,ACCEPT,NA,batch10hes,batch10hes,58,17,1,Screen 1,continueButton,response_rating_scale_likert_active,2761,NA,NA,Strongly Disagree,1,0,1,0,NA,NA,NA,NA,1,statements,I am fit and healthy so do not need it,1,17/05/2021 13:15,17/05/2021 13:22,438,Most months,Most months,35,Female,-99,A levels,100,1,Against,Against
20,1658936279759,27/07/2022 15:37:59,1658936279720,1,27/07/2022 16:37:59,94050,2,task-fbpo,NA,23334920,6847699,NA,complete,NA,62e15b4fef22be9126e5935a,computer,Desktop or Laptop,Windows 10,Chrome 103.0.0.0,1920x1080,1920x969,NA,ITT Ratings,3,For,10,NA,NA,NA,NA,NA,NA,NA,NA,ACCEPT,NA,batch10hes,batch10hes,6,18,1,Screen 1,continueButton,response_rating_scale_likert_active,3176.599999904633,NA,NA,Disagree,1,0,1,0,NA,NA,NA,NA,1,statements,most people don't die from the virus so there is no need for a vaccine,1,17/05/2021 12:36,17/05/2021 13:08,1951,A few times a year,Most months,64,Female,-99,GCSEs,91,3,Against,Against
21,1658936282137,27/07/2022 15:38:02,1658936282127,1,27/07/2022 16:38:02,94050,2,task-fbpo,NA,23334920,6847699,NA,complete,NA,62e15b4fef22be9126e5935a,computer,Desktop or Laptop,Windows 10,Chrome 103.0.0.0,1920x1080,1920x969,NA,ITT Ratings,3,For,10,NA,NA,NA,NA,NA,NA,NA,NA,ACCEPT,NA,batch10hes,batch10hes,18,19,1,Screen 1,continueButton,response_rating_scale_likert_active,2383.800000190735,NA,NA,Strongly Agree,1,0,1,0,NA,NA,NA,NA,1,statements,Whether the vaccine is needed.,1,17/05/2021 13:03,17/05/2021 13:12,530,Most months,Most months,31,Male,-99,A levels,93,3,Against,Against
22,1658936286858,27/07/2022 15:38:06,1658936286846,1,27/07/2022 16:38:06,94050,2,task-fbpo,NA,23334920,6847699,NA,complete,NA,62e15b4fef22be9126e5935a,computer,Desktop or Laptop,Windows 10,Chrome 103.0.0.0,1920x1080,1920x969,NA,ITT Ratings,3,For,10,NA,NA,NA,NA,NA,NA,NA,NA,ACCEPT,NA,batch10hes,batch10hes,7,20,1,Screen 1,continueButton,response_rating_scale_likert_active,4699.300000190735,NA,NA,Agree,1,0,1,0,NA,NA,NA,NA,1,statements,I don't want to die and this vaccine will protect me and my family,1,17/05/2021 12:36,17/05/2021 13:08,1951,A few times a year,Most months,64,Female,-99,GCSEs,91,1,Against,For
23,1658936300146,27/07/2022 15:38:20,1658936300135,1,27/07/2022 16:38:20,94050,2,task-fbpo,NA,23334920,6847699,NA,complete,NA,62e15b4fef22be9126e5935a,computer,Desktop or Laptop,Windows 10,Chrome 103.0.0.0,1920x1080,1920x969,NA,ITT Ratings,3,For,10,NA,NA,NA,NA,NA,NA,NA,NA,ACCEPT,NA,batch10hes,batch10hes,54,21,1,Screen 1,continueButton,response_rating_scale_likert_active,13268.100000143051,NA,NA,Somewhat Agree,1,0,1,0,NA,NA,NA,NA,1,statements,"The cost and upkeep getting absolutely everyone vaccinated,would be better to get at risk groups done. Has been months since rollout yet less than half have the UK have been vaccinated fully.",1,17/05/2021 12:54,17/05/2021 13:20,1550,Most months,Most months,42,Male,-99,Vocational Training / Apprenticeship,99,3,Against,Against
24,1658936303428,27/07/2022 15:38:23,1658936303383,1,27/07/2022 16:38:23,94050,2,task-fbpo,NA,23334920,6847699,NA,complete,NA,62e15b4fef22be9126e5935a,computer,Desktop or Laptop,Windows 10,Chrome 103.0.0.0,1920x1080,1920x969,NA,ITT Ratings,3,For,10,NA,NA,NA,NA,NA,NA,NA,NA,ACCEPT,NA,batch10hes,batch10hes,3,22,1,Screen 1,continueButton,response_rating_scale_likert_active,3227.400000095367,NA,NA,Somewhat Disagree,1,0,1,0,NA,NA,NA,NA,1,statements,We would like to check you are reading each argument carefully. Please select 'Somewhat Disagree' for this answer,1,NA,NA,NA,NA,NA,NA,NA,NA,NA,NA,check2,NA,NA
25,1658936306321,27/07/2022 15:38:26,1658936306311,1,27/07/2022 16:38:26,94050,2,task-fbpo,NA,23334920,6847699,NA,complete,NA,62e15b4fef22be9126e5935a,computer,Desktop or Laptop,Windows 10,Chrome 103.0.0.0,1920x1080,1920x969,NA,ITT Ratings,3,For,10,NA,NA,NA,NA,NA,NA,NA,NA,ACCEPT,NA,batch10hes,batch10hes,49,23,1,Screen 1,continueButton,response_rating_scale_likert_active,2906,NA,NA,Strongly Agree,1,0,1,0,NA,NA,NA,NA,1,statements,We can finally get back to a normal life with these shots.,1,17/05/2021 12:44,17/05/2021 13:17,1970,Rarely,Most months,26,Male,-99,"Undergraduate degree (BSc, BA)",98,1,Against,For
26,1658936308783,27/07/2022 15:38:28,1658936308775,1,27/07/2022 16:38:28,94050,2,task-fbpo,NA,23334920,6847699,NA,complete,NA,62e15b4fef22be9126e5935a,computer,Desktop or Laptop,Windows 10,Chrome 103.0.0.0,1920x1080,1920x969,NA,ITT Ratings,3,For,10,NA,NA,NA,NA,NA,NA,NA,NA,ACCEPT,NA,batch10hes,batch10hes,47,24,1,Screen 1,continueButton,response_rating_scale_likert_active,2443.600000143051,NA,NA,Disagree,1,0,1,0,NA,NA,NA,NA,1,statements,I don't trust vaccines in general.,1,17/05/2021 12:44,17/05/2021 13:17,1970,Rarely,Most months,26,Male,-99,"Undergraduate degree (BSc, BA)",98,2,Against,Against
27,1658936310377,27/07/2022 15:38:30,1658936310367,1,27/07/2022 16:38:30,94050,2,task-fbpo,NA,23334920,6847699,NA,complete,NA,62e15b4fef22be9126e5935a,computer,Desktop or Laptop,Windows 10,Chrome 103.0.0.0,1920x1080,1920x969,NA,ITT Ratings,3,For,10,NA,NA,NA,NA,NA,NA,NA,NA,ACCEPT,NA,batch10hes,batch10hes,43,25,1,Screen 1,continueButton,response_rating_scale_likert_active,1564.8999998569489,NA,NA,Strongly Agree,1,0,1,0,NA,NA,NA,NA,1,statements,I want to protect myself and those around me,1,17/05/2021 12:55,17/05/2021 13:16,1272,Rarely,Rarely,36,Female,-99,GCSEs,97,1,Against,For
28,1658936315482,27/07/2022 15:38:35,1658936315472,1,27/07/2022 16:38:35,94050,2,task-fbpo,NA,23334920,6847699,NA,complete,NA,62e15b4fef22be9126e5935a,computer,Desktop or Laptop,Windows 10,Chrome 103.0.0.0,1920x1080,1920x969,NA,ITT Ratings,3,For,10,NA,NA,NA,NA,NA,NA,NA,NA,ACCEPT,NA,batch10hes,batch10hes,13,26,1,Screen 1,continueButton,response_rating_scale_likert_active,5081.299999952316,NA,NA,Somewhat Agree,1,0,1,0,NA,NA,NA,NA,1,statements,I may want to travel and feel this means I would be the only option,1,17/05/2021 13:08,17/05/2021 13:12,265,Never,Never,27,Female,-99,GCSEs,92,1,Against,For
29,1658936320130,27/07/2022 15:38:40,1658936320119,1,27/07/2022 16:38:40,94050,2,task-fbpo,NA,23334920,6847699,NA,complete,NA,62e15b4fef22be9126e5935a,computer,Desktop or Laptop,Windows 10,Chrome 103.0.0.0,1920x1080,1920x969,NA,ITT Ratings,3,For,10,NA,NA,NA,NA,NA,NA,NA,NA,ACCEPT,NA,batch10hes,batch10hes,60,27,1,Screen 1,continueButton,response_rating_scale_likert_active,4627.100000143051,NA,NA,Disagree,1,0,1,0,NA,NA,NA,NA,1,statements,Usually vaccines take years to develop and we don't know the long term effects,1,17/05/2021 13:15,17/05/2021 13:22,438,Most months,Most months,35,Female,-99,A levels,100,3,Against,Against
30,1658936323391,27/07/2022 15:38:43,1658936323382,1,27/07/2022 16:38:43,94050,2,task-fbpo,NA,23334920,6847699,NA,complete,NA,62e15b4fef22be9126e5935a,computer,Desktop or Laptop,Windows 10,Chrome 103.0.0.0,1920x1080,1920x969,NA,ITT Ratings,3,For,10,NA,NA,NA,NA,NA,NA,NA,NA,ACCEPT,NA,batch10hes,batch10hes,39,28,1,Screen 1,continueButton,response_rating_scale_likert_active,3236.400000095367,NA,NA,Agree,1,0,1,0,NA,NA,NA,NA,1,statements,I feel safer with it,1,17/05/2021 13:02,17/05/2021 13:14,721,Never,Most weeks,20,Female,-99,A levels,96,3,Against,For
31,1658936325087,27/07/2022 15:38:45,1658936325079,1,27/07/2022 16:38:45,94050,2,task-fbpo,NA,23334920,6847699,NA,complete,NA,62e15b4fef22be9126e5935a,computer,Desktop or Laptop,Windows 10,Chrome 103.0.0.0,1920x1080,1920x969,NA,ITT Ratings,3,For,10,NA,NA,NA,NA,NA,NA,NA,NA,ACCEPT,NA,batch10hes,batch10hes,19,29,1,Screen 1,continueButton,response_rating_scale_likert_active,1675.7999999523165,NA,NA,Strongly Agree,1,0,1,0,NA,NA,NA,NA,1,statements,I am scared of not having it.,1,17/05/2021 13:03,17/05/2021 13:12,530,Most months,Most months,31,Male,-99,A levels,93,1,Against,For
32,1658936327077,27/07/2022 15:38:47,1658936327055,1,27/07/2022 16:38:47,94050,2,task-fbpo,NA,23334920,6847699,NA,complete,NA,62e15b4fef22be9126e5935a,computer,Desktop or Laptop,Windows 10,Chrome 103.0.0.0,1920x1080,1920x969,NA,ITT Ratings,3,For,10,NA,NA,NA,NA,NA,NA,NA,NA,ACCEPT,NA,batch10hes,batch10hes,46,30,1,Screen 1,continueButton,response_rating_scale_likert_active,1953.7000000476835,NA,NA,Strongly Disagree,1,0,1,0,NA,NA,NA,NA,1,statements,It's been rushed/not enough time to be fully tested.,1,17/05/2021 12:44,17/05/2021 13:17,1970,Rarely,Most months,26,Male,-99,"Undergraduate degree (BSc, BA)",98,1,Against,Against
33,1658936330329,27/07/2022 15:38:50,1658936330319,1,27/07/2022 16:38:50,94050,2,task-fbpo,NA,23334920,6847699,NA,complete,NA,62e15b4fef22be9126e5935a,computer,Desktop or Laptop,Windows 10,Chrome 103.0.0.0,1920x1080,1920x969,NA,ITT Ratings,3,For,10,NA,NA,NA,NA,NA,NA,NA,NA,ACCEPT,NA,batch10hes,batch10hes,59,31,1,Screen 1,continueButton,response_rating_scale_likert_active,3244.100000143051,NA,NA,Strongly Disagree,1,0,1,0,NA,NA,NA,NA,1,statements,People who are vulnerable will have it so why should I?,1,17/05/2021 13:15,17/05/2021 13:22,438,Most months,Most months,35,Female,-99,A levels,100,2,Against,Against
34,1658936332802,27/07/2022 15:38:52,1658936332791,1,27/07/2022 16:38:52,94050,2,task-fbpo,NA,23334920,6847699,NA,complete,NA,62e15b4fef22be9126e5935a,computer,Desktop or Laptop,Windows 10,Chrome 103.0.0.0,1920x1080,1920x969,NA,ITT Ratings,3,For,10,NA,NA,NA,NA,NA,NA,NA,NA,ACCEPT,NA,batch10hes,batch10hes,16,32,1,Screen 1,continueButton,response_rating_scale_likert_active,2450.7000000476837,NA,NA,Strongly Disagree,1,0,1,0,NA,NA,NA,NA,1,statements,Bad experience with vaccines in the past.,1,17/05/2021 13:03,17/05/2021 13:12,530,Most months,Most months,31,Male,-99,A levels,93,1,Against,Against
35,1658936339946,27/07/2022 15:38:59,1658936339935,1,27/07/2022 16:38:59,94050,2,task-fbpo,NA,23334920,6847699,NA,complete,NA,62e15b4fef22be9126e5935a,computer,Desktop or Laptop,Windows 10,Chrome 103.0.0.0,1920x1080,1920x969,NA,ITT Ratings,3,For,10,NA,NA,NA,NA,NA,NA,NA,NA,ACCEPT,NA,batch10hes,batch10hes,57,33,1,Screen 1,continueButton,response_rating_scale_likert_active,7118.799999952316,NA,NA,Neither Agree nor Disagree,1,0,1,0,NA,NA,NA,NA,1,statements,Possibly less likely to suffer bad effects of do get it,1,17/05/2021 12:54,17/05/2021 13:20,1550,Most months,Most months,42,Male,-99,Vocational Training / Apprenticeship,99,3,Against,For
36,1658936341462,27/07/2022 15:39:01,1658936341454,1,27/07/2022 16:39:01,94050,2,task-fbpo,NA,23334920,6847699,NA,complete,NA,62e15b4fef22be9126e5935a,computer,Desktop or Laptop,Windows 10,Chrome 103.0.0.0,1920x1080,1920x969,NA,ITT Ratings,3,For,10,NA,NA,NA,NA,NA,NA,NA,NA,ACCEPT,NA,batch10hes,batch10hes,32,34,1,Screen 1,continueButton,response_rating_scale_likert_active,1496.1999998092651,NA,NA,Strongly Agree,1,0,1,0,NA,NA,NA,NA,1,statements,I think it's safe,1,17/05/2021 13:05,17/05/2021 13:14,525,Most weeks,Most months,30,Female,-99,"Postgraduate degree (MSc, MA, MPhil)",95,2,Against,For
37,1658936346459,27/07/2022 15:39:06,1658936346414,1,27/07/2022 16:39:06,94050,2,task-fbpo,NA,23334920,6847699,NA,complete,NA,62e15b4fef22be9126e5935a,computer,Desktop or Laptop,Windows 10,Chrome 103.0.0.0,1920x1080,1920x969,NA,ITT Ratings,3,For,10,NA,NA,NA,NA,NA,NA,NA,NA,ACCEPT,NA,batch10hes,batch10hes,53,35,1,Screen 1,continueButton,response_rating_scale_likert_active,4938.700000047684,NA,NA,Disagree,1,0,1,0,NA,NA,NA,NA,1,statements,Vaccine hasn't proven effectiveness yet as we have just come out of lockdown. I believe they have used the effectiveness of the lockdown but given the glory to the vaccine,1,17/05/2021 12:54,17/05/2021 13:20,1550,Most months,Most months,42,Male,-99,Vocational Training / Apprenticeship,99,2,Against,Against
38,1658936350579,27/07/2022 15:39:10,1658936350566,1,27/07/2022 16:39:10,94050,2,task-fbpo,NA,23334920,6847699,NA,complete,NA,62e15b4fef22be9126e5935a,computer,Desktop or Laptop,Windows 10,Chrome 103.0.0.0,1920x1080,1920x969,NA,ITT Ratings,3,For,10,NA,NA,NA,NA,NA,NA,NA,NA,ACCEPT,NA,batch10hes,batch10hes,15,36,1,Screen 1,continueButton,response_rating_scale_likert_active,4128.599999904633,NA,NA,Agree,1,0,1,0,NA,NA,NA,NA,1,statements,I think that if I don't have it other people will judge me,1,17/05/2021 13:08,17/05/2021 13:12,265,Never,Never,27,Female,-99,GCSEs,92,3,Against,For
39,1658936355433,27/07/2022 15:39:15,1658936355422,1,27/07/2022 16:39:15,94050,2,task-fbpo,NA,23334920,6847699,NA,complete,NA,62e15b4fef22be9126e5935a,computer,Desktop or Laptop,Windows 10,Chrome 103.0.0.0,1920x1080,1920x969,NA,ITT Ratings,3,For,10,NA,NA,NA,NA,NA,NA,NA,NA,ACCEPT,NA,batch10hes,batch10hes,52,37,1,Screen 1,continueButton,response_rating_scale_likert_active,4832.5,NA,NA,Neither Agree nor Disagree,1,0,1,0,NA,NA,NA,NA,1,statements,Worried about long-term effects. Or the danger to health from having to be injected year after year..for very little shown benefit,1,17/05/2021 12:54,17/05/2021 13:20,1550,Most months,Most months,42,Male,-99,Vocational Training / Apprenticeship,99,1,Against,Against
40,1658936360782,27/07/2022 15:39:20,1658936360774,1,27/07/2022 16:39:20,94050,2,task-fbpo,NA,23334920,6847699,NA,complete,NA,62e15b4fef22be9126e5935a,computer,Desktop or Laptop,Windows 10,Chrome 103.0.0.0,1920x1080,1920x969,NA,ITT Ratings,3,For,10,NA,NA,NA,NA,NA,NA,NA,NA,ACCEPT,NA,batch10hes,batch10hes,4,38,1,Screen 1,continueButton,response_rating_scale_likert_active,5326,NA,NA,Disagree,1,0,1,0,NA,NA,NA,NA,1,statements,the vaccine hasn't been tested for the number of years required to know for certain whether it will cause serious side effects in the future,1,17/05/2021 12:36,17/05/2021 13:08,1951,A few times a year,Most months,64,Female,-99,GCSEs,91,1,Against,Against
41,1658936366391,27/07/2022 15:39:26,1658936366351,1,27/07/2022 16:39:26,94050,2,task-fbpo,NA,23334920,6847699,NA,complete,NA,62e15b4fef22be9126e5935a,computer,Desktop or Laptop,Windows 10,Chrome 103.0.0.0,1920x1080,1920x969,NA,ITT Ratings,3,For,10,NA,NA,NA,NA,NA,NA,NA,NA,ACCEPT,NA,batch10hes,batch10hes,27,39,1,Screen 1,continueButton,response_rating_scale_likert_active,5552.700000047684,NA,NA,Agree,1,0,1,0,NA,NA,NA,NA,1,statements,Its important so that we demonstrate to the younger people its needed,1,17/05/2021 13:03,17/05/2021 13:12,586,Rarely,Once or twice a year,49,Male,-99,"Postgraduate degree (MSc, MA, MPhil)",94,3,Against,For
42,1658936368830,27/07/2022 15:39:28,1658936368814,1,27/07/2022 16:39:28,94050,2,task-fbpo,NA,23334920,6847699,NA,complete,NA,62e15b4fef22be9126e5935a,computer,Desktop or Laptop,Windows 10,Chrome 103.0.0.0,1920x1080,1920x969,NA,ITT Ratings,3,For,10,NA,NA,NA,NA,NA,NA,NA,NA,ACCEPT,NA,batch10hes,batch10hes,63,40,1,Screen 1,continueButton,response_rating_scale_likert_active,2439.5,NA,NA,Agree,1,0,1,0,NA,NA,NA,NA,1,statements,We need herd immunity,1,17/05/2021 13:15,17/05/2021 13:22,438,Most months,Most months,35,Female,-99,A levels,100,3,Against,For
43,1658936371211,27/07/2022 15:39:31,1658936371198,1,27/07/2022 16:39:31,94050,2,task-fbpo,NA,23334920,6847699,NA,complete,NA,62e15b4fef22be9126e5935a,computer,Desktop or Laptop,Windows 10,Chrome 103.0.0.0,1920x1080,1920x969,NA,ITT Ratings,3,For,10,NA,NA,NA,NA,NA,NA,NA,NA,ACCEPT,NA,batch10hes,batch10hes,50,41,1,Screen 1,continueButton,response_rating_scale_likert_active,2357.5,NA,NA,Strongly Agree,1,0,1,0,NA,NA,NA,NA,1,statements,I am concerned about Covid-19 and don't want to get it.,1,17/05/2021 12:44,17/05/2021 13:17,1970,Rarely,Most months,26,Male,-99,"Undergraduate degree (BSc, BA)",98,2,Against,For
44,1658936373951,27/07/2022 15:39:33,1658936373934,1,27/07/2022 16:39:33,94050,2,task-fbpo,NA,23334920,6847699,NA,complete,NA,62e15b4fef22be9126e5935a,computer,Desktop or Laptop,Windows 10,Chrome 103.0.0.0,1920x1080,1920x969,NA,ITT Ratings,3,For,10,NA,NA,NA,NA,NA,NA,NA,NA,ACCEPT,NA,batch10hes,batch10hes,28,42,1,Screen 1,continueButton,response_rating_scale_likert_active,2714.5,NA,NA,Disagree,1,0,1,0,NA,NA,NA,NA,1,statements,Not tested for long enough during trial stages,1,17/05/2021 13:05,17/05/2021 13:14,525,Most weeks,Most months,30,Female,-99,"Postgraduate degree (MSc, MA, MPhil)",95,1,Against,Against
45,1658936376238,27/07/2022 15:39:36,1658936376230,1,27/07/2022 16:39:36,94050,2,task-fbpo,NA,23334920,6847699,NA,complete,NA,62e15b4fef22be9126e5935a,computer,Desktop or Laptop,Windows 10,Chrome 103.0.0.0,1920x1080,1920x969,NA,ITT Ratings,3,For,10,NA,NA,NA,NA,NA,NA,NA,NA,ACCEPT,NA,batch10hes,batch10hes,10,43,1,Screen 1,continueButton,response_rating_scale_likert_active,2274.2000000476837,NA,NA,Strongly Disagree,1,0,1,0,NA,NA,NA,NA,1,statements,I could be Allergic to ingredients,1,17/05/2021 13:08,17/05/2021 13:12,265,Never,Never,27,Female,-99,GCSEs,92,1,Against,Against
46,1658936378695,27/07/2022 15:39:38,1658936378687,1,27/07/2022 16:39:38,94050,2,task-fbpo,NA,23334920,6847699,NA,complete,NA,62e15b4fef22be9126e5935a,computer,Desktop or Laptop,Windows 10,Chrome 103.0.0.0,1920x1080,1920x969,NA,ITT Ratings,3,For,10,NA,NA,NA,NA,NA,NA,NA,NA,ACCEPT,NA,batch10hes,batch10hes,14,44,1,Screen 1,continueButton,response_rating_scale_likert_active,2434.099999904633,NA,NA,Agree,1,0,1,0,NA,NA,NA,NA,1,statements,I want to get back to normal and think this is the only way,1,17/05/2021 13:08,17/05/2021 13:12,265,Never,Never,27,Female,-99,GCSEs,92,2,Against,For
47,1658936380606,27/07/2022 15:39:40,1658936380598,1,27/07/2022 16:39:40,94050,2,task-fbpo,NA,23334920,6847699,NA,complete,NA,62e15b4fef22be9126e5935a,computer,Desktop or Laptop,Windows 10,Chrome 103.0.0.0,1920x1080,1920x969,NA,ITT Ratings,3,For,10,NA,NA,NA,NA,NA,NA,NA,NA,ACCEPT,NA,batch10hes,batch10hes,9,45,1,Screen 1,continueButton,response_rating_scale_likert_active,1890.3999998569489,NA,NA,Strongly Agree,1,0,1,0,NA,NA,NA,NA,1,statements,It is the only way to come out of this pandemic,1,17/05/2021 12:36,17/05/2021 13:08,1951,A few times a year,Most months,64,Female,-99,GCSEs,91,3,Against,For
48,1658936383190,27/07/2022 15:39:43,1658936383175,1,27/07/2022 16:39:43,94050,2,task-fbpo,NA,23334920,6847699,NA,complete,NA,62e15b4fef22be9126e5935a,computer,Desktop or Laptop,Windows 10,Chrome 103.0.0.0,1920x1080,1920x969,NA,ITT Ratings,3,For,10,NA,NA,NA,NA,NA,NA,NA,NA,ACCEPT,NA,batch10hes,batch10hes,26,46,1,Screen 1,continueButton,response_rating_scale_likert_active,2553.5,NA,NA,Strongly Agree,1,0,1,0,NA,NA,NA,NA,1,statements,Its important to stop the NHS being overun,1,17/05/2021 13:03,17/05/2021 13:12,586,Rarely,Once or twice a year,49,Male,-99,"Postgraduate degree (MSc, MA, MPhil)",94,2,Against,For
49,1658936385314,27/07/2022 15:39:45,1658936385302,1,27/07/2022 16:39:45,94050,2,task-fbpo,NA,23334920,6847699,NA,complete,NA,62e15b4fef22be9126e5935a,computer,Desktop or Laptop,Windows 10,Chrome 103.0.0.0,1920x1080,1920x969,NA,ITT Ratings,3,For,10,NA,NA,NA,NA,NA,NA,NA,NA,ACCEPT,NA,batch10hes,batch10hes,11,47,1,Screen 1,continueButton,response_rating_scale_likert_active,2095.599999904633,NA,NA,Neither Agree nor Disagree,1,0,1,0,NA,NA,NA,NA,1,statements,I may be Afraid of needles,1,17/05/2021 13:08,17/05/2021 13:12,265,Never,Never,27,Female,-99,GCSEs,92,2,Against,Against
50,1658936389177,27/07/2022 15:39:49,1658936389166,1,27/07/2022 16:39:49,94050,2,task-fbpo,NA,23334920,6847699,NA,complete,NA,62e15b4fef22be9126e5935a,computer,Desktop or Laptop,Windows 10,Chrome 103.0.0.0,1920x1080,1920x969,NA,ITT Ratings,3,For,10,NA,NA,NA,NA,NA,NA,NA,NA,ACCEPT,NA,batch10hes,batch10hes,30,48,1,Screen 1,continueButton,response_rating_scale_likert_active,3842.200000047684,NA,NA,Somewhat Disagree,1,0,1,0,NA,NA,NA,NA,1,statements,Don't trust BoJo to act in our best interests,1,17/05/2021 13:05,17/05/2021 13:14,525,Most weeks,Most months,30,Female,-99,"Postgraduate degree (MSc, MA, MPhil)",95,3,Against,Against
51,1658936393009,27/07/2022 15:39:53,1658936392998,1,27/07/2022 16:39:52,94050,2,task-fbpo,NA,23334920,6847699,NA,complete,NA,62e15b4fef22be9126e5935a,computer,Desktop or Laptop,Windows 10,Chrome 103.0.0.0,1920x1080,1920x969,NA,ITT Ratings,3,For,10,NA,NA,NA,NA,NA,NA,NA,NA,ACCEPT,NA,batch10hes,batch10hes,34,49,1,Screen 1,continueButton,response_rating_scale_likert_active,3810.899999856949,NA,NA,Disagree,1,0,1,0,NA,NA,NA,NA,1,statements,It hasnt been tested over years so we don't know the long term side effects,1,17/05/2021 13:02,17/05/2021 13:14,721,Never,Most weeks,20,Female,-99,A levels,96,1,Against,Against
52,1658936395248,27/07/2022 15:39:55,1658936395198,1,27/07/2022 16:39:55,94050,2,task-fbpo,NA,23334920,6847699,NA,complete,NA,62e15b4fef22be9126e5935a,computer,Desktop or Laptop,Windows 10,Chrome 103.0.0.0,1920x1080,1920x969,NA,ITT Ratings,3,For,10,NA,NA,NA,NA,NA,NA,NA,NA,ACCEPT,NA,batch10hes,batch10hes,8,50,1,Screen 1,continueButton,response_rating_scale_likert_active,2176.399999856949,NA,NA,Strongly Agree,1,0,1,0,NA,NA,NA,NA,1,statements,"I trust the scientists, doctors, and government when they say I need it",1,17/05/2021 12:36,17/05/2021 13:08,1951,A few times a year,Most months,64,Female,-99,GCSEs,91,2,Against,For
53,1658936397613,27/07/2022 15:39:57,1658936397606,1,27/07/2022 16:39:57,94050,2,task-fbpo,NA,23334920,6847699,NA,complete,NA,62e15b4fef22be9126e5935a,computer,Desktop or Laptop,Windows 10,Chrome 103.0.0.0,1920x1080,1920x969,NA,ITT Ratings,3,For,10,NA,NA,NA,NA,NA,NA,NA,NA,ACCEPT,NA,batch10hes,batch10hes,56,51,1,Screen 1,continueButton,response_rating_scale_likert_active,2382.599999904633,NA,NA,Strongly Agree,1,0,1,0,NA,NA,NA,NA,1,statements,Possibly less likely to get symptoms,1,17/05/2021 12:54,17/05/2021 13:20,1550,Most months,Most months,42,Male,-99,Vocational Training / Apprenticeship,99,2,Against,For
54,1658936400671,27/07/2022 15:40:00,1658936400622,1,27/07/2022 16:40:00,94050,2,task-fbpo,NA,23334920,6847699,NA,complete,NA,62e15b4fef22be9126e5935a,computer,Desktop or Laptop,Windows 10,Chrome 103.0.0.0,1920x1080,1920x969,NA,ITT Ratings,3,For,10,NA,NA,NA,NA,NA,NA,NA,NA,ACCEPT,NA,batch10hes,batch10hes,21,52,1,Screen 1,continueButton,response_rating_scale_likert_active,2991.399999856949,NA,NA,Somewhat Agree,1,0,1,0,NA,NA,NA,NA,1,statements,The news/government tells the to.,1,17/05/2021 13:03,17/05/2021 13:12,530,Most months,Most months,31,Male,-99,A levels,93,3,Against,For
55,1658936408121,27/07/2022 15:40:08,1658936408070,1,27/07/2022 16:40:08,94050,2,task-fbpo,NA,23334920,6847699,NA,complete,NA,62e15b4fef22be9126e5935a,computer,Desktop or Laptop,Windows 10,Chrome 103.0.0.0,1920x1080,1920x969,NA,ITT Ratings,3,For,10,NA,NA,NA,NA,NA,NA,NA,NA,ACCEPT,NA,batch10hes,batch10hes,24,53,1,Screen 1,continueButton,response_rating_scale_likert_active,7426.399999856949,NA,NA,Neither Agree nor Disagree,1,0,1,0,NA,NA,NA,NA,1,statements,Not everyone needs to be vaccinated to have the population ok with it.,1,17/05/2021 13:03,17/05/2021 13:12,586,Rarely,Once or twice a year,49,Male,-99,"Postgraduate degree (MSc, MA, MPhil)",94,3,Against,Against
56,1658936409990,27/07/2022 15:40:09,1658936409982,1,27/07/2022 16:40:09,94050,2,task-fbpo,NA,23334920,6847699,NA,complete,NA,62e15b4fef22be9126e5935a,computer,Desktop or Laptop,Windows 10,Chrome 103.0.0.0,1920x1080,1920x969,NA,ITT Ratings,3,For,10,NA,NA,NA,NA,NA,NA,NA,NA,ACCEPT,NA,batch10hes,batch10hes,2,54,1,Screen 1,continueButton,response_rating_scale_likert_active,1890,NA,NA,Somewhat Agree,1,0,1,0,NA,NA,NA,NA,1,statements,We would like to check you are reading each argument carefully. Please select 'Somewhat Agree' for this answer,1,NA,NA,NA,NA,NA,NA,NA,NA,NA,NA,check1,NA,NA
57,1658936411632,27/07/2022 15:40:11,1658936411598,1,27/07/2022 16:40:11,94050,2,task-fbpo,NA,23334920,6847699,NA,complete,NA,62e15b4fef22be9126e5935a,computer,Desktop or Laptop,Windows 10,Chrome 103.0.0.0,1920x1080,1920x969,NA,ITT Ratings,3,For,10,NA,NA,NA,NA,NA,NA,NA,NA,ACCEPT,NA,batch10hes,batch10hes,41,55,1,Screen 1,continueButton,response_rating_scale_likert_active,1595.8000001907349,NA,NA,Neither Agree nor Disagree,1,0,1,0,NA,NA,NA,NA,1,statements,I am scared of any side effects,1,17/05/2021 12:55,17/05/2021 13:16,1272,Rarely,Rarely,36,Female,-99,GCSEs,97,2,Against,Against
58,1658936413746,27/07/2022 15:40:13,1658936413734,1,27/07/2022 16:40:13,94050,2,task-fbpo,NA,23334920,6847699,NA,complete,NA,62e15b4fef22be9126e5935a,computer,Desktop or Laptop,Windows 10,Chrome 103.0.0.0,1920x1080,1920x969,NA,ITT Ratings,3,For,10,NA,NA,NA,NA,NA,NA,NA,NA,ACCEPT,NA,batch10hes,batch10hes,17,56,1,Screen 1,continueButton,response_rating_scale_likert_active,2114.5,NA,NA,Somewhat Disagree,1,0,1,0,NA,NA,NA,NA,1,statements,Scared of long-lasting side effects.,1,17/05/2021 13:03,17/05/2021 13:12,530,Most months,Most months,31,Male,-99,A levels,93,2,Against,Against
59,1658936416872,27/07/2022 15:40:16,1658936416862,1,27/07/2022 16:40:16,94050,2,task-fbpo,NA,23334920,6847699,NA,complete,NA,62e15b4fef22be9126e5935a,computer,Desktop or Laptop,Windows 10,Chrome 103.0.0.0,1920x1080,1920x969,NA,ITT Ratings,3,For,10,NA,NA,NA,NA,NA,NA,NA,NA,ACCEPT,NA,batch10hes,batch10hes,55,57,1,Screen 1,continueButton,response_rating_scale_likert_active,3106.5,NA,NA,Somewhat Agree,1,0,1,0,NA,NA,NA,NA,1,statements,"Possible Herd immunity, might not spread the virus",1,17/05/2021 12:54,17/05/2021 13:20,1550,Most months,Most months,42,Male,-99,Vocational Training / Apprenticeship,99,1,Against,For
60,1658936418474,27/07/2022 15:40:18,1658936418454,1,27/07/2022 16:40:18,94050,2,task-fbpo,NA,23334920,6847699,NA,complete,NA,62e15b4fef22be9126e5935a,computer,Desktop or Laptop,Windows 10,Chrome 103.0.0.0,1920x1080,1920x969,NA,ITT Ratings,3,For,10,NA,NA,NA,NA,NA,NA,NA,NA,ACCEPT,NA,batch10hes,batch10hes,61,58,1,Screen 1,continueButton,response_rating_scale_likert_active,1568.0999999046326,NA,NA,Agree,1,0,1,0,NA,NA,NA,NA,1,statements,I want to travel abroad easily,1,17/05/2021 13:15,17/05/2021 13:22,438,Most months,Most months,35,Female,-99,A levels,100,1,Against,For
61,1658936422326,27/07/2022 15:40:22,1658936422319,1,27/07/2022 16:40:22,94050,2,task-fbpo,NA,23334920,6847699,NA,complete,NA,62e15b4fef22be9126e5935a,computer,Desktop or Laptop,Windows 10,Chrome 103.0.0.0,1920x1080,1920x969,NA,ITT Ratings,3,For,10,NA,NA,NA,NA,NA,NA,NA,NA,ACCEPT,NA,batch10hes,batch10hes,51,59,1,Screen 1,continueButton,response_rating_scale_likert_active,3840.399999856949,NA,NA,Somewhat Agree,1,0,1,0,NA,NA,NA,NA,1,statements,My (insert peer pressuring family/friend/group/job) insisted I take it.,1,17/05/2021 12:44,17/05/2021 13:17,1970,Rarely,Most months,26,Male,-99,"Undergraduate degree (BSc, BA)",98,3,Against,For
62,1658936424184,27/07/2022 15:40:24,1658936424158,1,27/07/2022 16:40:24,94050,2,task-fbpo,NA,23334920,6847699,NA,complete,NA,62e15b4fef22be9126e5935a,computer,Desktop or Laptop,Windows 10,Chrome 103.0.0.0,1920x1080,1920x969,NA,ITT Ratings,3,For,10,NA,NA,NA,NA,NA,NA,NA,NA,ACCEPT,NA,batch10hes,batch10hes,40,60,1,Screen 1,continueButton,response_rating_scale_likert_active,1818.7999999523165,NA,NA,Disagree,1,0,1,0,NA,NA,NA,NA,1,statements,I don't trust it because it is rushed,1,17/05/2021 12:55,17/05/2021 13:16,1272,Rarely,Rarely,36,Female,-99,GCSEs,97,1,Against,Against
63,1658936426574,27/07/2022 15:40:26,1658936426558,1,27/07/2022 16:40:26,94050,2,task-fbpo,NA,23334920,6847699,NA,complete,NA,62e15b4fef22be9126e5935a,computer,Desktop or Laptop,Windows 10,Chrome 103.0.0.0,1920x1080,1920x969,NA,ITT Ratings,3,For,10,NA,NA,NA,NA,NA,NA,NA,NA,ACCEPT,NA,batch10hes,batch10hes,45,61,1,Screen 1,continueButton,response_rating_scale_likert_active,2379.599999904633,NA,NA,Strongly Agree,1,0,1,0,NA,NA,NA,NA,1,statements,I feel I can trust those who made the vaccine,1,17/05/2021 12:55,17/05/2021 13:16,1272,Rarely,Rarely,36,Female,-99,GCSEs,97,3,Against,For
64,1658936428683,27/07/2022 15:40:28,1658936428615,1,27/07/2022 16:40:28,94050,2,task-fbpo,NA,23334920,6847699,NA,complete,NA,62e15b4fef22be9126e5935a,computer,Desktop or Laptop,Windows 10,Chrome 103.0.0.0,1920x1080,1920x969,NA,ITT Ratings,3,For,10,NA,NA,NA,NA,NA,NA,NA,NA,ACCEPT,NA,batch10hes,batch10hes,29,62,1,Screen 1,continueButton,response_rating_scale_likert_active,2038.4000000953672,NA,NA,Neither Agree nor Disagree,1,0,1,0,NA,NA,NA,NA,1,statements,Side effects including blood clots,1,17/05/2021 13:05,17/05/2021 13:14,525,Most weeks,Most months,30,Female,-99,"Postgraduate degree (MSc, MA, MPhil)",95,2,Against,Against
65,1658936428800,27/07/2022 15:40:28,1658936428625,1,27/07/2022 16:40:28,94050,2,task-fbpo,NA,23334920,6847699,NA,complete,NA,62e15b4fef22be9126e5935a,computer,Desktop or Laptop,Windows 10,Chrome 103.0.0.0,1920x1080,1920x969,NA,ITT Ratings,3,For,10,NA,NA,NA,NA,NA,NA,NA,NA,ACCEPT,NA,batch10hes,NA,NA,END TASK,NA,NA,NA,NA,212867,NA,NA,NA,NA,0,1,0,NA,NA,NA,NA,NA,NA,NA,NA,NA,NA,NA,NA,NA,NA,NA,NA,NA,NA,NA,NA,NA
1,1658936257748,27/07/2022 15:37:37,1658936259070,1,27/07/2022 16:37:39,94050,2,task-fbpo,NA,23334938,6847703,NA,complete,NA,62e15b99260573f68385caf6,computer,Desktop or Laptop,Windows 10,Firefox 102.0,1920x1080,1920x927,NA,ITT Ratings,3,For,10,NA,NA,NA,NA,NA,NA,NA,NA,ACCEPT,NA,batch10hes,NA,NA,BEGIN TASK,NA,NA,NA,NA,NA,NA,NA,NA,NA,0,1,0,NA,NA,NA,NA,NA,NA,NA,NA,NA,NA,NA,NA,NA,NA,NA,NA,NA,NA,NA,NA,NA
2,1658936263434,27/07/2022 15:37:43,1658936264807,1,27/07/2022 16:37:44,94050,2,task-fbpo,NA,23334938,6847703,NA,complete,NA,62e15b99260573f68385caf6,computer,Desktop or Laptop,Windows 10,Firefox 102.0,1920x1080,1920x927,NA,ITT Ratings,3,For,10,NA,NA,NA,NA,NA,NA,NA,NA,ACCEPT,NA,batch10hes,batch10hes,1,1,1,Screen 1,advancementZone,continue_button,5681,NA,NA,NA,NA,0,1,0,NA,NA,NA,NA,NA,instructions,NA,NA,NA,NA,NA,NA,NA,NA,NA,NA,NA,NA,NA,NA,NA
3,1658936277520,27/07/2022 15:37:57,1658936278886,1,27/07/2022 16:37:58,94050,2,task-fbpo,NA,23334938,6847703,NA,complete,NA,62e15b99260573f68385caf6,computer,Desktop or Laptop,Windows 10,Firefox 102.0,1920x1080,1920x927,NA,ITT Ratings,3,For,10,NA,NA,NA,NA,NA,NA,NA,NA,ACCEPT,NA,batch10hes,batch10hes,36,1,1,Screen 1,continueButton,response_rating_scale_likert_active,14049,NA,NA,Agree,1,0,1,0,NA,NA,NA,NA,1,statements,I don't want to put anything in my body which I feel is unsafe,1,17/05/2021 13:02,17/05/2021 13:14,721,Never,Most weeks,20,Female,-99,A levels,96,3,Against,Against
4,1658936283753,27/07/2022 15:38:03,1658936285103,1,27/07/2022 16:38:05,94050,2,task-fbpo,NA,23334938,6847703,NA,complete,NA,62e15b99260573f68385caf6,computer,Desktop or Laptop,Windows 10,Firefox 102.0,1920x1080,1920x927,NA,ITT Ratings,3,For,10,NA,NA,NA,NA,NA,NA,NA,NA,ACCEPT,NA,batch10hes,batch10hes,6,2,1,Screen 1,continueButton,response_rating_scale_likert_active,6197,NA,NA,Strongly Disagree,1,0,1,0,NA,NA,NA,NA,1,statements,most people don't die from the virus so there is no need for a vaccine,1,17/05/2021 12:36,17/05/2021 13:08,1951,A few times a year,Most months,64,Female,-99,GCSEs,91,3,Against,Against
5,1658936291805,27/07/2022 15:38:11,1658936293182,1,27/07/2022 16:38:13,94050,2,task-fbpo,NA,23334938,6847703,NA,complete,NA,62e15b99260573f68385caf6,computer,Desktop or Laptop,Windows 10,Firefox 102.0,1920x1080,1920x927,NA,ITT Ratings,3,For,10,NA,NA,NA,NA,NA,NA,NA,NA,ACCEPT,NA,batch10hes,batch10hes,24,3,1,Screen 1,continueButton,response_rating_scale_likert_active,8062,NA,NA,Strongly Disagree,1,0,1,0,NA,NA,NA,NA,1,statements,Not everyone needs to be vaccinated to have the population ok with it.,1,17/05/2021 13:03,17/05/2021 13:12,586,Rarely,Once or twice a year,49,Male,-99,"Postgraduate degree (MSc, MA, MPhil)",94,3,Against,Against
6,1658936311203,27/07/2022 15:38:31,1658936312583,1,27/07/2022 16:38:32,94050,2,task-fbpo,NA,23334938,6847703,NA,complete,NA,62e15b99260573f68385caf6,computer,Desktop or Laptop,Windows 10,Firefox 102.0,1920x1080,1920x927,NA,ITT Ratings,3,For,10,NA,NA,NA,NA,NA,NA,NA,NA,ACCEPT,NA,batch10hes,batch10hes,54,4,1,Screen 1,continueButton,response_rating_scale_likert_active,19386,NA,NA,Neither Agree nor Disagree,1,0,1,0,NA,NA,NA,NA,1,statements,"The cost and upkeep getting absolutely everyone vaccinated,would be better to get at risk groups done. Has been months since rollout yet less than half have the UK have been vaccinated fully.",1,17/05/2021 12:54,17/05/2021 13:20,1550,Most months,Most months,42,Male,-99,Vocational Training / Apprenticeship,99,3,Against,Against
7,1658936314561,27/07/2022 15:38:34,1658936315942,1,27/07/2022 16:38:35,94050,2,task-fbpo,NA,23334938,6847703,NA,complete,NA,62e15b99260573f68385caf6,computer,Desktop or Laptop,Windows 10,Firefox 102.0,1920x1080,1920x927,NA,ITT Ratings,3,For,10,NA,NA,NA,NA,NA,NA,NA,NA,ACCEPT,NA,batch10hes,batch10hes,41,5,1,Screen 1,continueButton,response_rating_scale_likert_active,3327,NA,NA,Agree,1,0,1,0,NA,NA,NA,NA,1,statements,I am scared of any side effects,1,17/05/2021 12:55,17/05/2021 13:16,1272,Rarely,Rarely,36,Female,-99,GCSEs,97,2,Against,Against
8,1658936319520,27/07/2022 15:38:39,1658936320903,1,27/07/2022 16:38:40,94050,2,task-fbpo,NA,23334938,6847703,NA,complete,NA,62e15b99260573f68385caf6,computer,Desktop or Laptop,Windows 10,Firefox 102.0,1920x1080,1920x927,NA,ITT Ratings,3,For,10,NA,NA,NA,NA,NA,NA,NA,NA,ACCEPT,NA,batch10hes,batch10hes,39,6,1,Screen 1,continueButton,response_rating_scale_likert_active,4941,NA,NA,Agree,1,0,1,0,NA,NA,NA,NA,1,statements,I feel safer with it,1,17/05/2021 13:02,17/05/2021 13:14,721,Never,Most weeks,20,Female,-99,A levels,96,3,Against,For
9,1658936322945,27/07/2022 15:38:42,1658936324326,1,27/07/2022 16:38:44,94050,2,task-fbpo,NA,23334938,6847703,NA,complete,NA,62e15b99260573f68385caf6,computer,Desktop or Laptop,Windows 10,Firefox 102.0,1920x1080,1920x927,NA,ITT Ratings,3,For,10,NA,NA,NA,NA,NA,NA,NA,NA,ACCEPT,NA,batch10hes,batch10hes,8,7,1,Screen 1,continueButton,response_rating_scale_likert_active,3406,NA,NA,Agree,1,0,1,0,NA,NA,NA,NA,1,statements,"I trust the scientists, doctors, and government when they say I need it",1,17/05/2021 12:36,17/05/2021 13:08,1951,A few times a year,Most months,64,Female,-99,GCSEs,91,2,Against,For
10,1658936326001,27/07/2022 15:38:46,1658936327382,1,27/07/2022 16:38:47,94050,2,task-fbpo,NA,23334938,6847703,NA,complete,NA,62e15b99260573f68385caf6,computer,Desktop or Laptop,Windows 10,Firefox 102.0,1920x1080,1920x927,NA,ITT Ratings,3,For,10,NA,NA,NA,NA,NA,NA,NA,NA,ACCEPT,NA,batch10hes,batch10hes,28,8,1,Screen 1,continueButton,response_rating_scale_likert_active,3040,NA,NA,Neither Agree nor Disagree,1,0,1,0,NA,NA,NA,NA,1,statements,Not tested for long enough during trial stages,1,17/05/2021 13:05,17/05/2021 13:14,525,Most weeks,Most months,30,Female,-99,"Postgraduate degree (MSc, MA, MPhil)",95,1,Against,Against
11,1658936335512,27/07/2022 15:38:55,1658936336894,1,27/07/2022 16:38:56,94050,2,task-fbpo,NA,23334938,6847703,NA,complete,NA,62e15b99260573f68385caf6,computer,Desktop or Laptop,Windows 10,Firefox 102.0,1920x1080,1920x927,NA,ITT Ratings,3,For,10,NA,NA,NA,NA,NA,NA,NA,NA,ACCEPT,NA,batch10hes,batch10hes,4,9,1,Screen 1,continueButton,response_rating_scale_likert_active,9499,NA,NA,Disagree,1,0,1,0,NA,NA,NA,NA,1,statements,the vaccine hasn't been tested for the number of years required to know for certain whether it will cause serious side effects in the future,1,17/05/2021 12:36,17/05/2021 13:08,1951,A few times a year,Most months,64,Female,-99,GCSEs,91,1,Against,Against
12,1658936341260,27/07/2022 15:39:01,1658936342623,1,27/07/2022 16:39:02,94050,2,task-fbpo,NA,23334938,6847703,NA,complete,NA,62e15b99260573f68385caf6,computer,Desktop or Laptop,Windows 10,Firefox 102.0,1920x1080,1920x927,NA,ITT Ratings,3,For,10,NA,NA,NA,NA,NA,NA,NA,NA,ACCEPT,NA,batch10hes,batch10hes,35,10,1,Screen 1,continueButton,response_rating_scale_likert_active,5715,NA,NA,Disagree,1,0,1,0,NA,NA,NA,NA,1,statements,I feel it has been made too quickly,1,17/05/2021 13:02,17/05/2021 13:14,721,Never,Most weeks,20,Female,-99,A levels,96,2,Against,Against
13,1658936353125,27/07/2022 15:39:13,1658936354503,1,27/07/2022 16:39:14,94050,2,task-fbpo,NA,23334938,6847703,NA,complete,NA,62e15b99260573f68385caf6,computer,Desktop or Laptop,Windows 10,Firefox 102.0,1920x1080,1920x927,NA,ITT Ratings,3,For,10,NA,NA,NA,NA,NA,NA,NA,NA,ACCEPT,NA,batch10hes,batch10hes,29,11,1,Screen 1,continueButton,response_rating_scale_likert_active,11864,NA,NA,Neither Agree nor Disagree,1,0,1,0,NA,NA,NA,NA,1,statements,Side effects including blood clots,1,17/05/2021 13:05,17/05/2021 13:14,525,Most weeks,Most months,30,Female,-99,"Postgraduate degree (MSc, MA, MPhil)",95,2,Against,Against
14,1658936357905,27/07/2022 15:39:17,1658936359286,1,27/07/2022 16:39:19,94050,2,task-fbpo,NA,23334938,6847703,NA,complete,NA,62e15b99260573f68385caf6,computer,Desktop or Laptop,Windows 10,Firefox 102.0,1920x1080,1920x927,NA,ITT Ratings,3,For,10,NA,NA,NA,NA,NA,NA,NA,NA,ACCEPT,NA,batch10hes,batch10hes,16,12,1,Screen 1,continueButton,response_rating_scale_likert_active,4770,NA,NA,Disagree,1,0,1,0,NA,NA,NA,NA,1,statements,Bad experience with vaccines in the past.,1,17/05/2021 13:03,17/05/2021 13:12,530,Most months,Most months,31,Male,-99,A levels,93,1,Against,Against
15,1658936361763,27/07/2022 15:39:21,1658936363135,1,27/07/2022 16:39:23,94050,2,task-fbpo,NA,23334938,6847703,NA,complete,NA,62e15b99260573f68385caf6,computer,Desktop or Laptop,Windows 10,Firefox 102.0,1920x1080,1920x927,NA,ITT Ratings,3,For,10,NA,NA,NA,NA,NA,NA,NA,NA,ACCEPT,NA,batch10hes,batch10hes,26,13,1,Screen 1,continueButton,response_rating_scale_likert_active,3835,NA,NA,Strongly Agree,1,0,1,0,NA,NA,NA,NA,1,statements,Its important to stop the NHS being overun,1,17/05/2021 13:03,17/05/2021 13:12,586,Rarely,Once or twice a year,49,Male,-99,"Postgraduate degree (MSc, MA, MPhil)",94,2,Against,For
16,1658936365905,27/07/2022 15:39:25,1658936367286,1,27/07/2022 16:39:27,94050,2,task-fbpo,NA,23334938,6847703,NA,complete,NA,62e15b99260573f68385caf6,computer,Desktop or Laptop,Windows 10,Firefox 102.0,1920x1080,1920x927,NA,ITT Ratings,3,For,10,NA,NA,NA,NA,NA,NA,NA,NA,ACCEPT,NA,batch10hes,batch10hes,15,14,1,Screen 1,continueButton,response_rating_scale_likert_active,4140,NA,NA,Neither Agree nor Disagree,1,0,1,0,NA,NA,NA,NA,1,statements,I think that if I don't have it other people will judge me,1,17/05/2021 13:08,17/05/2021 13:12,265,Never,Never,27,Female,-99,GCSEs,92,3,Against,For
17,1658936374716,27/07/2022 15:39:34,1658936376078,1,27/07/2022 16:39:36,94050,2,task-fbpo,NA,23334938,6847703,NA,complete,NA,62e15b99260573f68385caf6,computer,Desktop or Laptop,Windows 10,Firefox 102.0,1920x1080,1920x927,NA,ITT Ratings,3,For,10,NA,NA,NA,NA,NA,NA,NA,NA,ACCEPT,NA,batch10hes,batch10hes,38,15,1,Screen 1,continueButton,response_rating_scale_likert_active,8779,NA,NA,Somewhat Disagree,1,0,1,0,NA,NA,NA,NA,1,statements,It will give me immunity against covid,1,17/05/2021 13:02,17/05/2021 13:14,721,Never,Most weeks,20,Female,-99,A levels,96,2,Against,For
18,1658936376994,27/07/2022 15:39:36,1658936378365,1,27/07/2022 16:39:38,94050,2,task-fbpo,NA,23334938,6847703,NA,complete,NA,62e15b99260573f68385caf6,computer,Desktop or Laptop,Windows 10,Firefox 102.0,1920x1080,1920x927,NA,ITT Ratings,3,For,10,NA,NA,NA,NA,NA,NA,NA,NA,ACCEPT,NA,batch10hes,batch10hes,62,16,1,Screen 1,continueButton,response_rating_scale_likert_active,2273,NA,NA,Agree,1,0,1,0,NA,NA,NA,NA,1,statements,I worry about my mum/relative who is high risk,1,17/05/2021 13:15,17/05/2021 13:22,438,Most months,Most months,35,Female,-99,A levels,100,2,Against,For
19,1658936385967,27/07/2022 15:39:45,1658936387325,1,27/07/2022 16:39:47,94050,2,task-fbpo,NA,23334938,6847703,NA,complete,NA,62e15b99260573f68385caf6,computer,Desktop or Laptop,Windows 10,Firefox 102.0,1920x1080,1920x927,NA,ITT Ratings,3,For,10,NA,NA,NA,NA,NA,NA,NA,NA,ACCEPT,NA,batch10hes,batch10hes,52,17,1,Screen 1,continueButton,response_rating_scale_likert_active,8947,NA,NA,Disagree,1,0,1,0,NA,NA,NA,NA,1,statements,Worried about long-term effects. Or the danger to health from having to be injected year after year..for very little shown benefit,1,17/05/2021 12:54,17/05/2021 13:20,1550,Most months,Most months,42,Male,-99,Vocational Training / Apprenticeship,99,1,Against,Against
20,1658936389371,27/07/2022 15:39:49,1658936390750,1,27/07/2022 16:39:50,94050,2,task-fbpo,NA,23334938,6847703,NA,complete,NA,62e15b99260573f68385caf6,computer,Desktop or Laptop,Windows 10,Firefox 102.0,1920x1080,1920x927,NA,ITT Ratings,3,For,10,NA,NA,NA,NA,NA,NA,NA,NA,ACCEPT,NA,batch10hes,batch10hes,25,18,1,Screen 1,continueButton,response_rating_scale_likert_active,3412,NA,NA,Agree,1,0,1,0,NA,NA,NA,NA,1,statements,Its important that we all get the vaccinated so that we can stop spread of dis-ease,1,17/05/2021 13:03,17/05/2021 13:12,586,Rarely,Once or twice a year,49,Male,-99,"Postgraduate degree (MSc, MA, MPhil)",94,1,Against,For
21,1658936395639,27/07/2022 15:39:55,1658936397022,1,27/07/2022 16:39:57,94050,2,task-fbpo,NA,23334938,6847703,NA,complete,NA,62e15b99260573f68385caf6,computer,Desktop or Laptop,Windows 10,Firefox 102.0,1920x1080,1920x927,NA,ITT Ratings,3,For,10,NA,NA,NA,NA,NA,NA,NA,NA,ACCEPT,NA,batch10hes,batch10hes,44,19,1,Screen 1,continueButton,response_rating_scale_likert_active,6261,NA,NA,Strongly Agree,1,0,1,0,NA,NA,NA,NA,1,statements,I want to eradicate covid completely,1,17/05/2021 12:55,17/05/2021 13:16,1272,Rarely,Rarely,36,Female,-99,GCSEs,97,2,Against,For
22,1658936399282,27/07/2022 15:39:59,1658936400654,1,27/07/2022 16:40:00,94050,2,task-fbpo,NA,23334938,6847703,NA,complete,NA,62e15b99260573f68385caf6,computer,Desktop or Laptop,Windows 10,Firefox 102.0,1920x1080,1920x927,NA,ITT Ratings,3,For,10,NA,NA,NA,NA,NA,NA,NA,NA,ACCEPT,NA,batch10hes,batch10hes,40,20,1,Screen 1,continueButton,response_rating_scale_likert_active,3622,NA,NA,Neither Agree nor Disagree,1,0,1,0,NA,NA,NA,NA,1,statements,I don't trust it because it is rushed,1,17/05/2021 12:55,17/05/2021 13:16,1272,Rarely,Rarely,36,Female,-99,GCSEs,97,1,Against,Against
23,1658936401631,27/07/2022 15:40:01,1658936403014,1,27/07/2022 16:40:03,94050,2,task-fbpo,NA,23334938,6847703,NA,complete,NA,62e15b99260573f68385caf6,computer,Desktop or Laptop,Windows 10,Firefox 102.0,1920x1080,1920x927,NA,ITT Ratings,3,For,10,NA,NA,NA,NA,NA,NA,NA,NA,ACCEPT,NA,batch10hes,batch10hes,47,21,1,Screen 1,continueButton,response_rating_scale_likert_active,2347,NA,NA,Strongly Disagree,1,0,1,0,NA,NA,NA,NA,1,statements,I don't trust vaccines in general.,1,17/05/2021 12:44,17/05/2021 13:17,1970,Rarely,Most months,26,Male,-99,"Undergraduate degree (BSc, BA)",98,2,Against,Against
24,1658936408553,27/07/2022 15:40:08,1658936409935,1,27/07/2022 16:40:09,94050,2,task-fbpo,NA,23334938,6847703,NA,complete,NA,62e15b99260573f68385caf6,computer,Desktop or Laptop,Windows 10,Firefox 102.0,1920x1080,1920x927,NA,ITT Ratings,3,For,10,NA,NA,NA,NA,NA,NA,NA,NA,ACCEPT,NA,batch10hes,batch10hes,14,22,1,Screen 1,continueButton,response_rating_scale_likert_active,6908,NA,NA,Somewhat Agree,1,0,1,0,NA,NA,NA,NA,1,statements,I want to get back to normal and think this is the only way,1,17/05/2021 13:08,17/05/2021 13:12,265,Never,Never,27,Female,-99,GCSEs,92,2,Against,For
25,1658936412789,27/07/2022 15:40:12,1658936414158,1,27/07/2022 16:40:14,94050,2,task-fbpo,NA,23334938,6847703,NA,complete,NA,62e15b99260573f68385caf6,computer,Desktop or Laptop,Windows 10,Firefox 102.0,1920x1080,1920x927,NA,ITT Ratings,3,For,10,NA,NA,NA,NA,NA,NA,NA,NA,ACCEPT,NA,batch10hes,batch10hes,51,23,1,Screen 1,continueButton,response_rating_scale_likert_active,4213,NA,NA,Neither Agree nor Disagree,1,0,1,0,NA,NA,NA,NA,1,statements,My (insert peer pressuring family/friend/group/job) insisted I take it.,1,17/05/2021 12:44,17/05/2021 13:17,1970,Rarely,Most months,26,Male,-99,"Undergraduate degree (BSc, BA)",98,3,Against,For
26,1658936415273,27/07/2022 15:40:15,1658936416647,1,27/07/2022 16:40:16,94050,2,task-fbpo,NA,23334938,6847703,NA,complete,NA,62e15b99260573f68385caf6,computer,Desktop or Laptop,Windows 10,Firefox 102.0,1920x1080,1920x927,NA,ITT Ratings,3,For,10,NA,NA,NA,NA,NA,NA,NA,NA,ACCEPT,NA,batch10hes,batch10hes,48,24,1,Screen 1,continueButton,response_rating_scale_likert_active,2477,NA,NA,Strongly Disagree,1,0,1,0,NA,NA,NA,NA,1,statements,"I put my faith in God, not man's solutions.",1,17/05/2021 12:44,17/05/2021 13:17,1970,Rarely,Most months,26,Male,-99,"Undergraduate degree (BSc, BA)",98,3,Against,Against
27,1658936418423,27/07/2022 15:40:18,1658936419789,1,27/07/2022 16:40:19,94050,2,task-fbpo,NA,23334938,6847703,NA,complete,NA,62e15b99260573f68385caf6,computer,Desktop or Laptop,Windows 10,Firefox 102.0,1920x1080,1920x927,NA,ITT Ratings,3,For,10,NA,NA,NA,NA,NA,NA,NA,NA,ACCEPT,NA,batch10hes,batch10hes,34,25,1,Screen 1,continueButton,response_rating_scale_likert_active,3133,NA,NA,Somewhat Agree,1,0,1,0,NA,NA,NA,NA,1,statements,It hasnt been tested over years so we don't know the long term side effects,1,17/05/2021 13:02,17/05/2021 13:14,721,Never,Most weeks,20,Female,-99,A levels,96,1,Against,Against
28,1658936420884,27/07/2022 15:40:20,1658936422271,1,27/07/2022 16:40:22,94050,2,task-fbpo,NA,23334938,6847703,NA,complete,NA,62e15b99260573f68385caf6,computer,Desktop or Laptop,Windows 10,Firefox 102.0,1920x1080,1920x927,NA,ITT Ratings,3,For,10,NA,NA,NA,NA,NA,NA,NA,NA,ACCEPT,NA,batch10hes,batch10hes,22,26,1,Screen 1,continueButton,response_rating_scale_likert_active,2468,NA,NA,Disagree,1,0,1,0,NA,NA,NA,NA,1,statements,It is still in trials so we are being treated as guinea pigs,1,17/05/2021 13:03,17/05/2021 13:12,586,Rarely,Once or twice a year,49,Male,-99,"Postgraduate degree (MSc, MA, MPhil)",94,1,Against,Against
29,1658936427407,27/07/2022 15:40:27,1658936428678,1,27/07/2022 16:40:28,94050,2,task-fbpo,NA,23334938,6847703,NA,complete,NA,62e15b99260573f68385caf6,computer,Desktop or Laptop,Windows 10,Firefox 102.0,1920x1080,1920x927,NA,ITT Ratings,3,For,10,NA,NA,NA,NA,NA,NA,NA,NA,ACCEPT,NA,batch10hes,batch10hes,5,27,1,Screen 1,continueButton,response_rating_scale_likert_active,6396,NA,NA,Neither Agree nor Disagree,1,0,1,0,NA,NA,NA,NA,1,statements,it causes blood clots and other side effects,1,17/05/2021 12:36,17/05/2021 13:08,1951,A few times a year,Most months,64,Female,-99,GCSEs,91,2,Against,Against
30,1658936433863,27/07/2022 15:40:33,1658936435231,1,27/07/2022 16:40:35,94050,2,task-fbpo,NA,23334938,6847703,NA,complete,NA,62e15b99260573f68385caf6,computer,Desktop or Laptop,Windows 10,Firefox 102.0,1920x1080,1920x927,NA,ITT Ratings,3,For,10,NA,NA,NA,NA,NA,NA,NA,NA,ACCEPT,NA,batch10hes,batch10hes,57,28,1,Screen 1,continueButton,response_rating_scale_likert_active,6540,NA,NA,Neither Agree nor Disagree,1,0,1,0,NA,NA,NA,NA,1,statements,Possibly less likely to suffer bad effects of do get it,1,17/05/2021 12:54,17/05/2021 13:20,1550,Most months,Most months,42,Male,-99,Vocational Training / Apprenticeship,99,3,Against,For
31,1658936436440,27/07/2022 15:40:36,1658936437814,1,27/07/2022 16:40:37,94050,2,task-fbpo,NA,23334938,6847703,NA,complete,NA,62e15b99260573f68385caf6,computer,Desktop or Laptop,Windows 10,Firefox 102.0,1920x1080,1920x927,NA,ITT Ratings,3,For,10,NA,NA,NA,NA,NA,NA,NA,NA,ACCEPT,NA,batch10hes,batch10hes,50,29,1,Screen 1,continueButton,response_rating_scale_likert_active,2571,NA,NA,Agree,1,0,1,0,NA,NA,NA,NA,1,statements,I am concerned about Covid-19 and don't want to get it.,1,17/05/2021 12:44,17/05/2021 13:17,1970,Rarely,Most months,26,Male,-99,"Undergraduate degree (BSc, BA)",98,2,Against,For
32,1658936441188,27/07/2022 15:40:41,1658936442558,1,27/07/2022 16:40:42,94050,2,task-fbpo,NA,23334938,6847703,NA,complete,NA,62e15b99260573f68385caf6,computer,Desktop or Laptop,Windows 10,Firefox 102.0,1920x1080,1920x927,NA,ITT Ratings,3,For,10,NA,NA,NA,NA,NA,NA,NA,NA,ACCEPT,NA,batch10hes,batch10hes,60,30,1,Screen 1,continueButton,response_rating_scale_likert_active,4732,NA,NA,Somewhat Disagree,1,0,1,0,NA,NA,NA,NA,1,statements,Usually vaccines take years to develop and we don't know the long term effects,1,17/05/2021 13:15,17/05/2021 13:22,438,Most months,Most months,35,Female,-99,A levels,100,3,Against,Against
33,1658936447033,27/07/2022 15:40:47,1658936448390,1,27/07/2022 16:40:48,94050,2,task-fbpo,NA,23334938,6847703,NA,complete,NA,62e15b99260573f68385caf6,computer,Desktop or Laptop,Windows 10,Firefox 102.0,1920x1080,1920x927,NA,ITT Ratings,3,For,10,NA,NA,NA,NA,NA,NA,NA,NA,ACCEPT,NA,batch10hes,batch10hes,2,31,1,Screen 1,continueButton,response_rating_scale_likert_active,5819,NA,NA,Somewhat Agree,1,0,1,0,NA,NA,NA,NA,1,statements,We would like to check you are reading each argument carefully. Please select 'Somewhat Agree' for this answer,1,NA,NA,NA,NA,NA,NA,NA,NA,NA,NA,check1,NA,NA
34,1658936452191,27/07/2022 15:40:52,1658936453558,1,27/07/2022 16:40:53,94050,2,task-fbpo,NA,23334938,6847703,NA,complete,NA,62e15b99260573f68385caf6,computer,Desktop or Laptop,Windows 10,Firefox 102.0,1920x1080,1920x927,NA,ITT Ratings,3,For,10,NA,NA,NA,NA,NA,NA,NA,NA,ACCEPT,NA,batch10hes,batch10hes,12,32,1,Screen 1,continueButton,response_rating_scale_likert_active,5156,NA,NA,Neither Agree nor Disagree,1,0,1,0,NA,NA,NA,NA,1,statements,I may be Under age,1,17/05/2021 13:08,17/05/2021 13:12,265,Never,Never,27,Female,-99,GCSEs,92,3,Against,Against
35,1658936454229,27/07/2022 15:40:54,1658936455598,1,27/07/2022 16:40:55,94050,2,task-fbpo,NA,23334938,6847703,NA,complete,NA,62e15b99260573f68385caf6,computer,Desktop or Laptop,Windows 10,Firefox 102.0,1920x1080,1920x927,NA,ITT Ratings,3,For,10,NA,NA,NA,NA,NA,NA,NA,NA,ACCEPT,NA,batch10hes,batch10hes,43,33,1,Screen 1,continueButton,response_rating_scale_likert_active,2029,NA,NA,Strongly Agree,1,0,1,0,NA,NA,NA,NA,1,statements,I want to protect myself and those around me,1,17/05/2021 12:55,17/05/2021 13:16,1272,Rarely,Rarely,36,Female,-99,GCSEs,97,1,Against,For
