Event.Index,UTC.Timestamp,UTC.Date,Local.Timestamp,Local.Timezone,Local.Date,Experiment.ID,Experiment.Version,Tree.Node.Key,Repeat.Key,Schedule.ID,Participant.Private.ID,Participant.Starting.Group,Participant.Status,Participant.Completion.Code,Participant.External.Session.ID,Participant.Device.Type,Participant.Device,Participant.OS,Participant.Browser,Participant.Monitor.Size,Participant.Viewport.Size,Checkpoint,Task.Name,Task.Version,branch.69an,randomiser.8vg2,quota.bqtt,quota.rycs,quota.wtfi,quota.usve,quota.zgic,quota.f3yz,quota.r9vy,quota.tfqq,quota.3dga,quota.dtj6,Spreadsheet,Spreadsheet.Name,Spreadsheet.Row,Trial.Number,Screen.Number,Screen.Name,Zone.Name,Zone.Type,Reaction.Time,Reaction.Onset,Response.Type,Response,Attempt,Correct,Incorrect,Dishonest,X.Coordinate,Y.Coordinate,Timed.Out,randomise_blocks,randomise_trials,display,Arguments,ShowProgressBar,StartDate,EndDate,Duration,discuss_1,read_1,age,gender,gender_4_TEXT,edu,ID,arg_ID,Position,Arg_Position
1,1658935769561,27/07/2022 15:29:29,1658935771887,1,27/07/2022 16:29:31,94050,2,task-j4ag,NA,23334685,6847619,NA,complete,NA,62e159b018af0d054ff10f57,computer,Desktop or Laptop,Windows 10,Chrome 103.0.0.0,1536x864,1536x746,NA,ITT Ratings,3,For,5,NA,NA,NA,ACCEPT,NA,NA,NA,NA,NA,NA,batch5hes,NA,NA,BEGIN TASK,NA,NA,NA,NA,NA,NA,NA,NA,NA,0,1,0,NA,NA,NA,NA,NA,NA,NA,NA,NA,NA,NA,NA,NA,NA,NA,NA,NA,NA,NA,NA,NA
2,1658935772605,27/07/2022 15:29:32,1658935774939,1,27/07/2022 16:29:34,94050,2,task-j4ag,NA,23334685,6847619,NA,complete,NA,62e159b018af0d054ff10f57,computer,Desktop or Laptop,Windows 10,Chrome 103.0.0.0,1536x864,1519x746,NA,ITT Ratings,3,For,5,NA,NA,NA,ACCEPT,NA,NA,NA,NA,NA,NA,batch5hes,batch5hes,1,1,1,Screen 1,advancementZone,continue_button,2978.600000023842,NA,NA,NA,NA,0,1,0,NA,NA,NA,NA,NA,instructions,NA,NA,NA,NA,NA,NA,NA,NA,NA,NA,NA,NA,NA,NA,NA
3,1658935776976,27/07/2022 15:29:36,1658935779356,1,27/07/2022 16:29:39,94050,2,task-j4ag,NA,23334685,6847619,NA,complete,NA,62e159b018af0d054ff10f57,computer,Desktop or Laptop,Windows 10,Chrome 103.0.0.0,1536x864,1519x746,NA,ITT Ratings,3,For,5,NA,NA,NA,ACCEPT,NA,NA,NA,NA,NA,NA,batch5hes,batch5hes,42,1,1,Screen 1,continueButton,response_rating_scale_likert_active,4398.700000047684,NA,NA,Strongly Disagree,1,0,1,0,NA,NA,NA,NA,1,statements,You can't trust vaccines as the pharmaceutical industry just wants to make money,1,17/05/2021 11:49,17/05/2021 11:54,314,Rarely,Most days,27,Female,-99,"Undergraduate degree (BSc, BA)",47,3,Against,Against
4,1658935779407,27/07/2022 15:29:39,1658935781786,1,27/07/2022 16:29:41,94050,2,task-j4ag,NA,23334685,6847619,NA,complete,NA,62e159b018af0d054ff10f57,computer,Desktop or Laptop,Windows 10,Chrome 103.0.0.0,1536x864,1519x746,NA,ITT Ratings,3,For,5,NA,NA,NA,ACCEPT,NA,NA,NA,NA,NA,NA,batch5hes,batch5hes,8,2,1,Screen 1,continueButton,response_rating_scale_likert_active,2414.7000000476837,NA,NA,Strongly Agree,1,0,1,0,NA,NA,NA,NA,1,statements,I am tired of lockdown,1,17/05/2021 11:29,17/05/2021 11:43,849,Rarely,Most months,29,Female,-99,"Postgraduate degree (MSc, MA, MPhil)",41,2,Against,For
5,1658935780893,27/07/2022 15:29:40,1658935783268,1,27/07/2022 16:29:43,94050,2,task-j4ag,NA,23334685,6847619,NA,complete,NA,62e159b018af0d054ff10f57,computer,Desktop or Laptop,Windows 10,Chrome 103.0.0.0,1536x864,1519x746,NA,ITT Ratings,3,For,5,NA,NA,NA,ACCEPT,NA,NA,NA,NA,NA,NA,batch5hes,batch5hes,56,3,1,Screen 1,continueButton,response_rating_scale_likert_active,1465.0999999046326,NA,NA,Strongly Agree,1,0,1,0,NA,NA,NA,NA,1,statements,I want to return to 'normal life',1,17/05/2021 11:30,17/05/2021 11:56,1558,Rarely,Most months,35,Male,-99,"GCSEs,A levels,Undergraduate degree (BSc, BA)",49,2,Against,For
6,1658935783686,27/07/2022 15:29:43,1658935785971,1,27/07/2022 16:29:45,94050,2,task-j4ag,NA,23334685,6847619,NA,complete,NA,62e159b018af0d054ff10f57,computer,Desktop or Laptop,Windows 10,Chrome 103.0.0.0,1536x864,1519x746,NA,ITT Ratings,3,For,5,NA,NA,NA,ACCEPT,NA,NA,NA,NA,NA,NA,batch5hes,batch5hes,33,4,1,Screen 1,continueButton,response_rating_scale_likert_active,2683.899999976158,NA,NA,Somewhat Agree,1,0,1,0,NA,NA,NA,NA,1,statements,I believe it is safe,1,17/05/2021 11:33,17/05/2021 11:51,1071,Most weeks,A few times a year,34,Male,-99,"Undergraduate degree (BSc, BA)",45,3,Against,For
7,1658935787090,27/07/2022 15:29:47,1658935789478,1,27/07/2022 16:29:49,94050,2,task-j4ag,NA,23334685,6847619,NA,complete,NA,62e159b018af0d054ff10f57,computer,Desktop or Laptop,Windows 10,Chrome 103.0.0.0,1536x864,1519x746,NA,ITT Ratings,3,For,5,NA,NA,NA,ACCEPT,NA,NA,NA,NA,NA,NA,batch5hes,batch5hes,63,5,1,Screen 1,continueButton,response_rating_scale_likert_active,3491,NA,NA,Agree,1,0,1,0,NA,NA,NA,NA,1,statements,It will mean I can meet family members,1,17/05/2021 11:50,17/05/2021 11:57,423,Most weeks,Most weeks,48,Male,-99,"Undergraduate degree (BSc, BA)",50,3,Against,For
8,1658935789315,27/07/2022 15:29:49,1658935791699,1,27/07/2022 16:29:51,94050,2,task-j4ag,NA,23334685,6847619,NA,complete,NA,62e159b018af0d054ff10f57,computer,Desktop or Laptop,Windows 10,Chrome 103.0.0.0,1536x864,1519x746,NA,ITT Ratings,3,For,5,NA,NA,NA,ACCEPT,NA,NA,NA,NA,NA,NA,batch5hes,batch5hes,36,6,1,Screen 1,continueButton,response_rating_scale_likert_active,2200.7000000476837,NA,NA,Strongly Agree,1,0,1,0,NA,NA,NA,NA,1,statements,i have had covid already,1,17/05/2021 11:43,17/05/2021 11:53,620,Most weeks,Most days,51,Female,-99,GCSEs,46,3,Against,Against
9,1658935793225,27/07/2022 15:29:53,1658935794929,1,27/07/2022 16:29:54,94050,2,task-j4ag,NA,23334685,6847619,NA,complete,NA,62e159b018af0d054ff10f57,computer,Desktop or Laptop,Windows 10,Chrome 103.0.0.0,1536x864,1519x746,NA,ITT Ratings,3,For,5,NA,NA,NA,ACCEPT,NA,NA,NA,NA,NA,NA,batch5hes,batch5hes,58,7,1,Screen 1,continueButton,response_rating_scale_likert_active,3213.2999999523163,NA,NA,Strongly Disagree,1,0,1,0,NA,NA,NA,NA,1,statements,It is not safe and has not been tested properly,1,17/05/2021 11:50,17/05/2021 11:57,423,Most weeks,Most weeks,48,Male,-99,"Undergraduate degree (BSc, BA)",50,1,Against,Against
10,1658935795179,27/07/2022 15:29:55,1658935797567,1,27/07/2022 16:29:57,94050,2,task-j4ag,NA,23334685,6847619,NA,complete,NA,62e159b018af0d054ff10f57,computer,Desktop or Laptop,Windows 10,Chrome 103.0.0.0,1536x864,1519x746,NA,ITT Ratings,3,For,5,NA,NA,NA,ACCEPT,NA,NA,NA,NA,NA,NA,batch5hes,batch5hes,46,8,1,Screen 1,continueButton,response_rating_scale_likert_active,2622.7000000476837,NA,NA,Strongly Agree,1,0,1,0,NA,NA,NA,NA,1,statements,The government cannot be trusted to tell the truth.,1,17/05/2021 11:10,17/05/2021 11:56,2717,Rarely,Rarely,38,Male,-99,A levels,48,1,Against,Against
11,1658935798152,27/07/2022 15:29:58,1658935800536,1,27/07/2022 16:30:00,94050,2,task-j4ag,NA,23334685,6847619,NA,complete,NA,62e159b018af0d054ff10f57,computer,Desktop or Laptop,Windows 10,Chrome 103.0.0.0,1536x864,1519x746,NA,ITT Ratings,3,For,5,NA,NA,NA,ACCEPT,NA,NA,NA,NA,NA,NA,batch5hes,batch5hes,29,9,1,Screen 1,continueButton,response_rating_scale_likert_active,2953.3000000715256,NA,NA,Strongly Disagree,1,0,1,0,NA,NA,NA,NA,1,statements,it was developed too fast,1,17/05/2021 11:33,17/05/2021 11:51,1071,Most weeks,A few times a year,34,Male,-99,"Undergraduate degree (BSc, BA)",45,2,Against,Against
12,1658935799976,27/07/2022 15:29:59,1658935802364,1,27/07/2022 16:30:02,94050,2,task-j4ag,NA,23334685,6847619,NA,complete,NA,62e159b018af0d054ff10f57,computer,Desktop or Laptop,Windows 10,Chrome 103.0.0.0,1536x864,1519x746,NA,ITT Ratings,3,For,5,NA,NA,NA,ACCEPT,NA,NA,NA,NA,NA,NA,batch5hes,batch5hes,47,10,1,Screen 1,continueButton,response_rating_scale_likert_active,1811.0999999046328,NA,NA,Strongly Disagree,1,0,1,0,NA,NA,NA,NA,1,statements,The side effects are being under reported.,1,17/05/2021 11:10,17/05/2021 11:56,2717,Rarely,Rarely,38,Male,-99,A levels,48,2,Against,Against
13,1658935803266,27/07/2022 15:30:03,1658935804939,1,27/07/2022 16:30:04,94050,2,task-j4ag,NA,23334685,6847619,NA,complete,NA,62e159b018af0d054ff10f57,computer,Desktop or Laptop,Windows 10,Chrome 103.0.0.0,1536x864,1519x746,NA,ITT Ratings,3,For,5,NA,NA,NA,ACCEPT,NA,NA,NA,NA,NA,NA,batch5hes,batch5hes,3,11,1,Screen 1,continueButton,response_rating_scale_likert_active,2554.8000000715256,NA,NA,Somewhat Disagree,1,0,1,0,NA,NA,NA,NA,1,statements,We would like to check you are reading each argument carefully. Please select 'Somewhat Disagree' for this answer,1,NA,NA,NA,NA,NA,NA,NA,NA,NA,NA,check2,NA,NA
14,1658935804248,27/07/2022 15:30:04,1658935806632,1,27/07/2022 16:30:06,94050,2,task-j4ag,NA,23334685,6847619,NA,complete,NA,62e159b018af0d054ff10f57,computer,Desktop or Laptop,Windows 10,Chrome 103.0.0.0,1536x864,1519x746,NA,ITT Ratings,3,For,5,NA,NA,NA,ACCEPT,NA,NA,NA,NA,NA,NA,batch5hes,batch5hes,55,12,1,Screen 1,continueButton,response_rating_scale_likert_active,1677,NA,NA,Strongly Agree,1,0,1,0,NA,NA,NA,NA,1,statements,I want to protect my family and friends,1,17/05/2021 11:30,17/05/2021 11:56,1558,Rarely,Most months,35,Male,-99,"GCSEs,A levels,Undergraduate degree (BSc, BA)",49,1,Against,For
15,1658935808408,27/07/2022 15:30:08,1658935810800,1,27/07/2022 16:30:10,94050,2,task-j4ag,NA,23334685,6847619,NA,complete,NA,62e159b018af0d054ff10f57,computer,Desktop or Laptop,Windows 10,Chrome 103.0.0.0,1536x864,1519x746,NA,ITT Ratings,3,For,5,NA,NA,NA,ACCEPT,NA,NA,NA,NA,NA,NA,batch5hes,batch5hes,59,13,1,Screen 1,continueButton,response_rating_scale_likert_active,4151.899999976158,NA,NA,Strongly Disagree,1,0,1,0,NA,NA,NA,NA,1,statements,It is not needed as there is no threat,1,17/05/2021 11:50,17/05/2021 11:57,423,Most weeks,Most weeks,48,Male,-99,"Undergraduate degree (BSc, BA)",50,2,Against,Against
16,1658935810434,27/07/2022 15:30:10,1658935812830,1,27/07/2022 16:30:12,94050,2,task-j4ag,NA,23334685,6847619,NA,complete,NA,62e159b018af0d054ff10f57,computer,Desktop or Laptop,Windows 10,Chrome 103.0.0.0,1536x864,1519x746,NA,ITT Ratings,3,For,5,NA,NA,NA,ACCEPT,NA,NA,NA,NA,NA,NA,batch5hes,batch5hes,57,14,1,Screen 1,continueButton,response_rating_scale_likert_active,2007.3000000715256,NA,NA,Strongly Agree,1,0,1,0,NA,NA,NA,NA,1,statements,I want to protect myself from covid 19,1,17/05/2021 11:30,17/05/2021 11:56,1558,Rarely,Most months,35,Male,-99,"GCSEs,A levels,Undergraduate degree (BSc, BA)",49,3,Against,For
17,1658935812969,27/07/2022 15:30:12,1658935815269,1,27/07/2022 16:30:15,94050,2,task-j4ag,NA,23334685,6847619,NA,complete,NA,62e159b018af0d054ff10f57,computer,Desktop or Laptop,Windows 10,Chrome 103.0.0.0,1536x864,1519x746,NA,ITT Ratings,3,For,5,NA,NA,NA,ACCEPT,NA,NA,NA,NA,NA,NA,batch5hes,batch5hes,31,15,1,Screen 1,continueButton,response_rating_scale_likert_active,2429.5,NA,NA,Strongly Agree,1,0,1,0,NA,NA,NA,NA,1,statements,I trust the health care officials,1,17/05/2021 11:33,17/05/2021 11:51,1071,Most weeks,A few times a year,34,Male,-99,"Undergraduate degree (BSc, BA)",45,1,Against,For
18,1658935862149,27/07/2022 15:31:02,1658935864258,1,27/07/2022 16:31:04,94050,2,task-j4ag,NA,23334685,6847619,NA,complete,NA,62e159b018af0d054ff10f57,computer,Desktop or Laptop,Windows 10,Chrome 103.0.0.0,1536x864,1519x746,NA,ITT Ratings,3,For,5,NA,NA,NA,ACCEPT,NA,NA,NA,NA,NA,NA,batch5hes,batch5hes,34,16,1,Screen 1,continueButton,response_rating_scale_likert_active,48973.699999928474,NA,NA,Neither Agree nor Disagree,1,0,1,0,NA,NA,NA,NA,1,statements,i don't trust the pharmaceutical companies,1,17/05/2021 11:43,17/05/2021 11:53,620,Most weeks,Most days,51,Female,-99,GCSEs,46,1,Against,Against
19,1658935866828,27/07/2022 15:31:06,1658935869218,1,27/07/2022 16:31:09,94050,2,task-j4ag,NA,23334685,6847619,NA,complete,NA,62e159b018af0d054ff10f57,computer,Desktop or Laptop,Windows 10,Chrome 103.0.0.0,1536x864,1519x746,NA,ITT Ratings,3,For,5,NA,NA,NA,ACCEPT,NA,NA,NA,NA,NA,NA,batch5hes,batch5hes,35,17,1,Screen 1,continueButton,response_rating_scale_likert_active,4940.5,NA,NA,Strongly Disagree,1,0,1,0,NA,NA,NA,NA,1,statements,covid doesn't kill you,1,17/05/2021 11:43,17/05/2021 11:53,620,Most weeks,Most days,51,Female,-99,GCSEs,46,2,Against,Against
20,1658935878601,27/07/2022 15:31:18,1658935880168,1,27/07/2022 16:31:20,94050,2,task-j4ag,NA,23334685,6847619,NA,complete,NA,62e159b018af0d054ff10f57,computer,Desktop or Laptop,Windows 10,Chrome 103.0.0.0,1536x864,1519x746,NA,ITT Ratings,3,For,5,NA,NA,NA,ACCEPT,NA,NA,NA,NA,NA,NA,batch5hes,batch5hes,53,18,1,Screen 1,continueButton,response_rating_scale_likert_active,10933.699999928474,NA,NA,Disagree,1,0,1,0,NA,NA,NA,NA,1,statements,"Nanoparticles within the vaccine, MRNA changing DNA within the human body. Multiple videos on the internet showing adverse reactions to the vaccine",1,17/05/2021 11:30,17/05/2021 11:56,1558,Rarely,Most months,35,Male,-99,"GCSEs,A levels,Undergraduate degree (BSc, BA)",49,2,Against,Against
21,1658935880218,27/07/2022 15:31:20,1658935882614,1,27/07/2022 16:31:22,94050,2,task-j4ag,NA,23334685,6847619,NA,complete,NA,62e159b018af0d054ff10f57,computer,Desktop or Laptop,Windows 10,Chrome 103.0.0.0,1536x864,1519x746,NA,ITT Ratings,3,For,5,NA,NA,NA,ACCEPT,NA,NA,NA,NA,NA,NA,batch5hes,batch5hes,27,19,1,Screen 1,continueButton,response_rating_scale_likert_active,2429.100000023842,NA,NA,Strongly Agree,1,0,1,0,NA,NA,NA,NA,1,statements,To protect family and friends,1,17/05/2021 11:36,17/05/2021 11:45,556,Rarely,Most weeks,26,Female,-99,"Undergraduate degree (BSc, BA)",44,3,Against,For
22,1658935883095,27/07/2022 15:31:23,1658935885225,1,27/07/2022 16:31:25,94050,2,task-j4ag,NA,23334685,6847619,NA,complete,NA,62e159b018af0d054ff10f57,computer,Desktop or Laptop,Windows 10,Chrome 103.0.0.0,1536x864,1519x746,NA,ITT Ratings,3,For,5,NA,NA,NA,ACCEPT,NA,NA,NA,NA,NA,NA,batch5hes,batch5hes,44,20,1,Screen 1,continueButton,response_rating_scale_likert_active,2595.899999976158,NA,NA,Agree,1,0,1,0,NA,NA,NA,NA,1,statements,It has been approved so is safe,1,17/05/2021 11:49,17/05/2021 11:54,314,Rarely,Most days,27,Female,-99,"Undergraduate degree (BSc, BA)",47,2,Against,For
23,1658935888523,27/07/2022 15:31:28,1658935890909,1,27/07/2022 16:31:30,94050,2,task-j4ag,NA,23334685,6847619,NA,complete,NA,62e159b018af0d054ff10f57,computer,Desktop or Laptop,Windows 10,Chrome 103.0.0.0,1536x864,1519x746,NA,ITT Ratings,3,For,5,NA,NA,NA,ACCEPT,NA,NA,NA,NA,NA,NA,batch5hes,batch5hes,25,21,1,Screen 1,continueButton,response_rating_scale_likert_active,5666.5,NA,NA,Strongly Agree,1,0,1,0,NA,NA,NA,NA,1,statements,Vulnerable person likely to become very ill with covid,1,17/05/2021 11:36,17/05/2021 11:45,556,Rarely,Most weeks,26,Female,-99,"Undergraduate degree (BSc, BA)",44,1,Against,For
24,1658935893079,27/07/2022 15:31:33,1658935894809,1,27/07/2022 16:31:34,94050,2,task-j4ag,NA,23334685,6847619,NA,complete,NA,62e159b018af0d054ff10f57,computer,Desktop or Laptop,Windows 10,Chrome 103.0.0.0,1536x864,1519x746,NA,ITT Ratings,3,For,5,NA,NA,NA,ACCEPT,NA,NA,NA,NA,NA,NA,batch5hes,batch5hes,19,22,1,Screen 1,continueButton,response_rating_scale_likert_active,3881.5,NA,NA,Agree,1,0,1,0,NA,NA,NA,NA,1,statements,I want to beable to go on holiday,1,17/05/2021 11:33,17/05/2021 11:44,686,Most weeks,Most months,25,Male,-99,A levels,43,1,Against,For
25,1658935897005,27/07/2022 15:31:37,1658935899394,1,27/07/2022 16:31:39,94050,2,task-j4ag,NA,23334685,6847619,NA,complete,NA,62e159b018af0d054ff10f57,computer,Desktop or Laptop,Windows 10,Chrome 103.0.0.0,1536x864,1519x746,NA,ITT Ratings,3,For,5,NA,NA,NA,ACCEPT,NA,NA,NA,NA,NA,NA,batch5hes,batch5hes,49,23,1,Screen 1,continueButton,response_rating_scale_likert_active,4568.899999976158,NA,NA,Disagree,1,0,1,0,NA,NA,NA,NA,1,statements,Being vaccinated enables lockdown to be rescinded.,1,17/05/2021 11:10,17/05/2021 11:56,2717,Rarely,Rarely,38,Male,-99,A levels,48,1,Against,For
26,1658935899593,27/07/2022 15:31:39,1658935901982,1,27/07/2022 16:31:41,94050,2,task-j4ag,NA,23334685,6847619,NA,complete,NA,62e159b018af0d054ff10f57,computer,Desktop or Laptop,Windows 10,Chrome 103.0.0.0,1536x864,1519x746,NA,ITT Ratings,3,For,5,NA,NA,NA,ACCEPT,NA,NA,NA,NA,NA,NA,batch5hes,batch5hes,39,24,1,Screen 1,continueButton,response_rating_scale_likert_active,2570.099999904633,NA,NA,Strongly Agree,1,0,1,0,NA,NA,NA,NA,1,statements,i dont want to put strain on the health services,1,17/05/2021 11:43,17/05/2021 11:53,620,Most weeks,Most days,51,Female,-99,GCSEs,46,3,Against,For
27,1658935903201,27/07/2022 15:31:43,1658935905154,1,27/07/2022 16:31:45,94050,2,task-j4ag,NA,23334685,6847619,NA,complete,NA,62e159b018af0d054ff10f57,computer,Desktop or Laptop,Windows 10,Chrome 103.0.0.0,1536x864,1519x746,NA,ITT Ratings,3,For,5,NA,NA,NA,ACCEPT,NA,NA,NA,NA,NA,NA,batch5hes,batch5hes,51,25,1,Screen 1,continueButton,response_rating_scale_likert_active,3155.8000000715256,NA,NA,Strongly Agree,1,0,1,0,NA,NA,NA,NA,1,statements,I can interact with elderly members of my family.,1,17/05/2021 11:10,17/05/2021 11:56,2717,Rarely,Rarely,38,Male,-99,A levels,48,3,Against,For
28,1658935907097,27/07/2022 15:31:47,1658935909486,1,27/07/2022 16:31:49,94050,2,task-j4ag,NA,23334685,6847619,NA,complete,NA,62e159b018af0d054ff10f57,computer,Desktop or Laptop,Windows 10,Chrome 103.0.0.0,1536x864,1519x746,NA,ITT Ratings,3,For,5,NA,NA,NA,ACCEPT,NA,NA,NA,NA,NA,NA,batch5hes,batch5hes,52,26,1,Screen 1,continueButton,response_rating_scale_likert_active,4315.100000023842,NA,NA,Strongly Disagree,1,0,1,0,NA,NA,NA,NA,1,statements,"I don't want it because it has been massed produced under a year, when it takes on average 10 years to produce a vaccine for public release.",1,17/05/2021 11:30,17/05/2021 11:56,1558,Rarely,Most months,35,Male,-99,"GCSEs,A levels,Undergraduate degree (BSc, BA)",49,1,Against,Against
29,1658935909674,27/07/2022 15:31:49,1658935912068,1,27/07/2022 16:31:52,94050,2,task-j4ag,NA,23334685,6847619,NA,complete,NA,62e159b018af0d054ff10f57,computer,Desktop or Laptop,Windows 10,Chrome 103.0.0.0,1536x864,1519x746,NA,ITT Ratings,3,For,5,NA,NA,NA,ACCEPT,NA,NA,NA,NA,NA,NA,batch5hes,batch5hes,61,27,1,Screen 1,continueButton,response_rating_scale_likert_active,2564.599999904633,NA,NA,Agree,1,0,1,0,NA,NA,NA,NA,1,statements,It will protect me,1,17/05/2021 11:50,17/05/2021 11:57,423,Most weeks,Most weeks,48,Male,-99,"Undergraduate degree (BSc, BA)",50,1,Against,For
30,1658935914387,27/07/2022 15:31:54,1658935916449,1,27/07/2022 16:31:56,94050,2,task-j4ag,NA,23334685,6847619,NA,complete,NA,62e159b018af0d054ff10f57,computer,Desktop or Laptop,Windows 10,Chrome 103.0.0.0,1536x864,1519x746,NA,ITT Ratings,3,For,5,NA,NA,NA,ACCEPT,NA,NA,NA,NA,NA,NA,batch5hes,batch5hes,26,28,1,Screen 1,continueButton,response_rating_scale_likert_active,4365.799999952316,NA,NA,Strongly Agree,1,0,1,0,NA,NA,NA,NA,1,statements,"Feel I have to to be able to get back to ""normal""",1,17/05/2021 11:36,17/05/2021 11:45,556,Rarely,Most weeks,26,Female,-99,"Undergraduate degree (BSc, BA)",44,2,Against,For
31,1658935916321,27/07/2022 15:31:56,1658935918713,1,27/07/2022 16:31:58,94050,2,task-j4ag,NA,23334685,6847619,NA,complete,NA,62e159b018af0d054ff10f57,computer,Desktop or Laptop,Windows 10,Chrome 103.0.0.0,1536x864,1519x746,NA,ITT Ratings,3,For,5,NA,NA,NA,ACCEPT,NA,NA,NA,NA,NA,NA,batch5hes,batch5hes,17,29,1,Screen 1,continueButton,response_rating_scale_likert_active,2247.899999976158,NA,NA,Strongly Disagree,1,0,1,0,NA,NA,NA,NA,1,statements,not knowing exactly whats in it,1,17/05/2021 11:33,17/05/2021 11:44,686,Most weeks,Most months,25,Male,-99,A levels,43,2,Against,Against
32,1658935918435,27/07/2022 15:31:58,1658935920824,1,27/07/2022 16:32:00,94050,2,task-j4ag,NA,23334685,6847619,NA,complete,NA,62e159b018af0d054ff10f57,computer,Desktop or Laptop,Windows 10,Chrome 103.0.0.0,1536x864,1519x746,NA,ITT Ratings,3,For,5,NA,NA,NA,ACCEPT,NA,NA,NA,NA,NA,NA,batch5hes,batch5hes,23,30,1,Screen 1,continueButton,response_rating_scale_likert_active,2095.7000000476837,NA,NA,Strongly Disagree,1,0,1,0,NA,NA,NA,NA,1,statements,Breastfeeding and not enough trials/evidence to support the effects of potential transmission to my baby through milk,1,17/05/2021 11:36,17/05/2021 11:45,556,Rarely,Most weeks,26,Female,-99,"Undergraduate degree (BSc, BA)",44,2,Against,Against
33,1658935919782,27/07/2022 15:31:59,1658935922137,1,27/07/2022 16:32:02,94050,2,task-j4ag,NA,23334685,6847619,NA,complete,NA,62e159b018af0d054ff10f57,computer,Desktop or Laptop,Windows 10,Chrome 103.0.0.0,1536x864,1519x746,NA,ITT Ratings,3,For,5,NA,NA,NA,ACCEPT,NA,NA,NA,NA,NA,NA,batch5hes,batch5hes,5,31,1,Screen 1,continueButton,response_rating_scale_likert_active,1297,NA,NA,Strongly Disagree,1,0,1,0,NA,NA,NA,NA,1,statements,It was made too quickly and compromises to its integrity may have been made,1,17/05/2021 11:29,17/05/2021 11:43,849,Rarely,Most months,29,Female,-99,"Postgraduate degree (MSc, MA, MPhil)",41,2,Against,Against
34,1658935921324,27/07/2022 15:32:01,1658935923718,1,27/07/2022 16:32:03,94050,2,task-j4ag,NA,23334685,6847619,NA,complete,NA,62e159b018af0d054ff10f57,computer,Desktop or Laptop,Windows 10,Chrome 103.0.0.0,1536x864,1519x746,NA,ITT Ratings,3,For,5,NA,NA,NA,ACCEPT,NA,NA,NA,NA,NA,NA,batch5hes,batch5hes,22,32,1,Screen 1,continueButton,response_rating_scale_likert_active,1564.5999999046326,NA,NA,Strongly Disagree,1,0,1,0,NA,NA,NA,NA,1,statements,Pregnant and dont want to risk my unborn childs life,1,17/05/2021 11:36,17/05/2021 11:45,556,Rarely,Most weeks,26,Female,-99,"Undergraduate degree (BSc, BA)",44,1,Against,Against
35,1658935923775,27/07/2022 15:32:03,1658935925637,1,27/07/2022 16:32:05,94050,2,task-j4ag,NA,23334685,6847619,NA,complete,NA,62e159b018af0d054ff10f57,computer,Desktop or Laptop,Windows 10,Chrome 103.0.0.0,1536x864,1519x746,NA,ITT Ratings,3,For,5,NA,NA,NA,ACCEPT,NA,NA,NA,NA,NA,NA,batch5hes,batch5hes,15,33,1,Screen 1,continueButton,response_rating_scale_likert_active,1903.5999999046328,NA,NA,Strongly Disagree,1,0,1,0,NA,NA,NA,NA,1,statements,The government has told me to do so.,1,17/05/2021 11:39,17/05/2021 11:43,295,Never,Rarely,24,Male,-99,"Undergraduate degree (BSc, BA)",42,3,Against,For
36,1658935926302,27/07/2022 15:32:06,1658935928693,1,27/07/2022 16:32:08,94050,2,task-j4ag,NA,23334685,6847619,NA,complete,NA,62e159b018af0d054ff10f57,computer,Desktop or Laptop,Windows 10,Chrome 103.0.0.0,1536x864,1519x746,NA,ITT Ratings,3,For,5,NA,NA,NA,ACCEPT,NA,NA,NA,NA,NA,NA,batch5hes,batch5hes,7,34,1,Screen 1,continueButton,response_rating_scale_likert_active,3040,NA,NA,Disagree,1,0,1,0,NA,NA,NA,NA,1,statements,I can receive the vaccination passport and travel,1,17/05/2021 11:29,17/05/2021 11:43,849,Rarely,Most months,29,Female,-99,"Postgraduate degree (MSc, MA, MPhil)",41,1,Against,For
37,1658935933087,27/07/2022 15:32:13,1658935935190,1,27/07/2022 16:32:15,94050,2,task-j4ag,NA,23334685,6847619,NA,complete,NA,62e159b018af0d054ff10f57,computer,Desktop or Laptop,Windows 10,Chrome 103.0.0.0,1536x864,1519x746,NA,ITT Ratings,3,For,5,NA,NA,NA,ACCEPT,NA,NA,NA,NA,NA,NA,batch5hes,batch5hes,54,35,1,Screen 1,continueButton,response_rating_scale_likert_active,6481.700000047684,NA,NA,Strongly Disagree,1,0,1,0,NA,NA,NA,NA,1,statements,Companies offering incentives to get the vaccine. Videos showing metal sticking to the arms of people in the position where the jab was taken- feels very suspect and untrustworthy promotion.,1,17/05/2021 11:30,17/05/2021 11:56,1558,Rarely,Most months,35,Male,-99,"GCSEs,A levels,Undergraduate degree (BSc, BA)",49,3,Against,Against
38,1658935935734,27/07/2022 15:32:15,1658935938131,1,27/07/2022 16:32:18,94050,2,task-j4ag,NA,23334685,6847619,NA,complete,NA,62e159b018af0d054ff10f57,computer,Desktop or Laptop,Windows 10,Chrome 103.0.0.0,1536x864,1519x746,NA,ITT Ratings,3,For,5,NA,NA,NA,ACCEPT,NA,NA,NA,NA,NA,NA,batch5hes,batch5hes,2,36,1,Screen 1,continueButton,response_rating_scale_likert_active,2925.6999999284744,NA,NA,Somewhat Agree,1,0,1,0,NA,NA,NA,NA,1,statements,We would like to check you are reading each argument carefully. Please select 'Somewhat Agree' for this answer,1,NA,NA,NA,NA,NA,NA,NA,NA,NA,NA,check1,NA,NA
39,1658935937759,27/07/2022 15:32:17,1658935940149,1,27/07/2022 16:32:20,94050,2,task-j4ag,NA,23334685,6847619,NA,complete,NA,62e159b018af0d054ff10f57,computer,Desktop or Laptop,Windows 10,Chrome 103.0.0.0,1536x864,1519x746,NA,ITT Ratings,3,For,5,NA,NA,NA,ACCEPT,NA,NA,NA,NA,NA,NA,batch5hes,batch5hes,40,37,1,Screen 1,continueButton,response_rating_scale_likert_active,2002.100000023842,NA,NA,Strongly Disagree,1,0,1,0,NA,NA,NA,NA,1,statements,It's been rushed so I am not ready to take it,1,17/05/2021 11:49,17/05/2021 11:54,314,Rarely,Most days,27,Female,-99,"Undergraduate degree (BSc, BA)",47,1,Against,Against
40,1658935939909,27/07/2022 15:32:19,1658935942301,1,27/07/2022 16:32:22,94050,2,task-j4ag,NA,23334685,6847619,NA,complete,NA,62e159b018af0d054ff10f57,computer,Desktop or Laptop,Windows 10,Chrome 103.0.0.0,1536x864,1519x746,NA,ITT Ratings,3,For,5,NA,NA,NA,ACCEPT,NA,NA,NA,NA,NA,NA,batch5hes,batch5hes,13,38,1,Screen 1,continueButton,response_rating_scale_likert_active,2136.6999999284744,NA,NA,Strongly Agree,1,0,1,0,NA,NA,NA,NA,1,statements,I want to be immune from the disease,1,17/05/2021 11:39,17/05/2021 11:43,295,Never,Rarely,24,Male,-99,"Undergraduate degree (BSc, BA)",42,1,Against,For
41,1658935941012,27/07/2022 15:32:21,1658935943403,1,27/07/2022 16:32:23,94050,2,task-j4ag,NA,23334685,6847619,NA,complete,NA,62e159b018af0d054ff10f57,computer,Desktop or Laptop,Windows 10,Chrome 103.0.0.0,1536x864,1519x746,NA,ITT Ratings,3,For,5,NA,NA,NA,ACCEPT,NA,NA,NA,NA,NA,NA,batch5hes,batch5hes,21,39,1,Screen 1,continueButton,response_rating_scale_likert_active,1086.1999999284744,NA,NA,Strongly Agree,1,0,1,0,NA,NA,NA,NA,1,statements,thinks it necessary,1,17/05/2021 11:33,17/05/2021 11:44,686,Most weeks,Most months,25,Male,-99,A levels,43,3,Against,For
42,1658935944914,27/07/2022 15:32:24,1658935946987,1,27/07/2022 16:32:26,94050,2,task-j4ag,NA,23334685,6847619,NA,complete,NA,62e159b018af0d054ff10f57,computer,Desktop or Laptop,Windows 10,Chrome 103.0.0.0,1536x864,1519x746,NA,ITT Ratings,3,For,5,NA,NA,NA,ACCEPT,NA,NA,NA,NA,NA,NA,batch5hes,batch5hes,12,40,1,Screen 1,continueButton,response_rating_scale_likert_active,3568.7999999523163,NA,NA,Somewhat Disagree,1,0,1,0,NA,NA,NA,NA,1,statements,I am not sure about the testing and long term effects (both positive and negative) of the vaccine.,1,17/05/2021 11:39,17/05/2021 11:43,295,Never,Rarely,24,Male,-99,"Undergraduate degree (BSc, BA)",42,3,Against,Against
43,1658935947778,27/07/2022 15:32:27,1658935950170,1,27/07/2022 16:32:30,94050,2,task-j4ag,NA,23334685,6847619,NA,complete,NA,62e159b018af0d054ff10f57,computer,Desktop or Laptop,Windows 10,Chrome 103.0.0.0,1536x864,1519x746,NA,ITT Ratings,3,For,5,NA,NA,NA,ACCEPT,NA,NA,NA,NA,NA,NA,batch5hes,batch5hes,18,41,1,Screen 1,continueButton,response_rating_scale_likert_active,3164.7999999523163,NA,NA,Strongly Disagree,1,0,1,0,NA,NA,NA,NA,1,statements,can cause problems that werent there initially,1,17/05/2021 11:33,17/05/2021 11:44,686,Most weeks,Most months,25,Male,-99,A levels,43,3,Against,Against
44,1658935949719,27/07/2022 15:32:29,1658935952110,1,27/07/2022 16:32:32,94050,2,task-j4ag,NA,23334685,6847619,NA,complete,NA,62e159b018af0d054ff10f57,computer,Desktop or Laptop,Windows 10,Chrome 103.0.0.0,1536x864,1519x746,NA,ITT Ratings,3,For,5,NA,NA,NA,ACCEPT,NA,NA,NA,NA,NA,NA,batch5hes,batch5hes,32,42,1,Screen 1,continueButton,response_rating_scale_likert_active,1923.899999976158,NA,NA,Strongly Agree,1,0,1,0,NA,NA,NA,NA,1,statements,I want to be protected,1,17/05/2021 11:33,17/05/2021 11:51,1071,Most weeks,A few times a year,34,Male,-99,"Undergraduate degree (BSc, BA)",45,2,Against,For
45,1658935954668,27/07/2022 15:32:34,1658935956738,1,27/07/2022 16:32:36,94050,2,task-j4ag,NA,23334685,6847619,NA,complete,NA,62e159b018af0d054ff10f57,computer,Desktop or Laptop,Windows 10,Chrome 103.0.0.0,1536x864,1519x746,NA,ITT Ratings,3,For,5,NA,NA,NA,ACCEPT,NA,NA,NA,NA,NA,NA,batch5hes,batch5hes,11,43,1,Screen 1,continueButton,response_rating_scale_likert_active,4612.600000023842,NA,NA,Strongly Agree,1,0,1,0,NA,NA,NA,NA,1,statements,"I am not overweight or obese, nor have any underlying health conditions",1,17/05/2021 11:39,17/05/2021 11:43,295,Never,Rarely,24,Male,-99,"Undergraduate degree (BSc, BA)",42,2,Against,Against
46,1658935956677,27/07/2022 15:32:36,1658935959070,1,27/07/2022 16:32:39,94050,2,task-j4ag,NA,23334685,6847619,NA,complete,NA,62e159b018af0d054ff10f57,computer,Desktop or Laptop,Windows 10,Chrome 103.0.0.0,1536x864,1519x746,NA,ITT Ratings,3,For,5,NA,NA,NA,ACCEPT,NA,NA,NA,NA,NA,NA,batch5hes,batch5hes,14,44,1,Screen 1,continueButton,response_rating_scale_likert_active,2315.600000023842,NA,NA,Strongly Agree,1,0,1,0,NA,NA,NA,NA,1,statements,I want to prevent my ability to infect others,1,17/05/2021 11:39,17/05/2021 11:43,295,Never,Rarely,24,Male,-99,"Undergraduate degree (BSc, BA)",42,2,Against,For
47,1658935958850,27/07/2022 15:32:38,1658935961242,1,27/07/2022 16:32:41,94050,2,task-j4ag,NA,23334685,6847619,NA,complete,NA,62e159b018af0d054ff10f57,computer,Desktop or Laptop,Windows 10,Chrome 103.0.0.0,1536x864,1519x746,NA,ITT Ratings,3,For,5,NA,NA,NA,ACCEPT,NA,NA,NA,NA,NA,NA,batch5hes,batch5hes,60,45,1,Screen 1,continueButton,response_rating_scale_likert_active,2154.7000000476837,NA,NA,Disagree,1,0,1,0,NA,NA,NA,NA,1,statements,There could be side effects,1,17/05/2021 11:50,17/05/2021 11:57,423,Most weeks,Most weeks,48,Male,-99,"Undergraduate degree (BSc, BA)",50,3,Against,Against
48,1658935960411,27/07/2022 15:32:40,1658935962802,1,27/07/2022 16:32:42,94050,2,task-j4ag,NA,23334685,6847619,NA,complete,NA,62e159b018af0d054ff10f57,computer,Desktop or Laptop,Windows 10,Chrome 103.0.0.0,1536x864,1519x746,NA,ITT Ratings,3,For,5,NA,NA,NA,ACCEPT,NA,NA,NA,NA,NA,NA,batch5hes,batch5hes,24,46,1,Screen 1,continueButton,response_rating_scale_likert_active,1543.5999999046326,NA,NA,Disagree,1,0,1,0,NA,NA,NA,NA,1,statements,Don't feel I need it,1,17/05/2021 11:36,17/05/2021 11:45,556,Rarely,Most weeks,26,Female,-99,"Undergraduate degree (BSc, BA)",44,3,Against,Against
49,1658935963784,27/07/2022 15:32:43,1658935965703,1,27/07/2022 16:32:45,94050,2,task-j4ag,NA,23334685,6847619,NA,complete,NA,62e159b018af0d054ff10f57,computer,Desktop or Laptop,Windows 10,Chrome 103.0.0.0,1536x864,1519x746,NA,ITT Ratings,3,For,5,NA,NA,NA,ACCEPT,NA,NA,NA,NA,NA,NA,batch5hes,batch5hes,50,47,1,Screen 1,continueButton,response_rating_scale_likert_active,2889.600000023842,NA,NA,Strongly Agree,1,0,1,0,NA,NA,NA,NA,1,statements,Getting vaccinated helps reduce the spread of the virus.,1,17/05/2021 11:10,17/05/2021 11:56,2717,Rarely,Rarely,38,Male,-99,A levels,48,2,Against,For
50,1658935964332,27/07/2022 15:32:44,1658935966727,1,27/07/2022 16:32:46,94050,2,task-j4ag,NA,23334685,6847619,NA,complete,NA,62e159b018af0d054ff10f57,computer,Desktop or Laptop,Windows 10,Chrome 103.0.0.0,1536x864,1519x746,NA,ITT Ratings,3,For,5,NA,NA,NA,ACCEPT,NA,NA,NA,NA,NA,NA,batch5hes,batch5hes,38,48,1,Screen 1,continueButton,response_rating_scale_likert_active,1007.399999976158,NA,NA,Strongly Agree,1,0,1,0,NA,NA,NA,NA,1,statements,i want to protect others,1,17/05/2021 11:43,17/05/2021 11:53,620,Most weeks,Most days,51,Female,-99,GCSEs,46,2,Against,For
51,1658935968578,27/07/2022 15:32:48,1658935970969,1,27/07/2022 16:32:50,94050,2,task-j4ag,NA,23334685,6847619,NA,complete,NA,62e159b018af0d054ff10f57,computer,Desktop or Laptop,Windows 10,Chrome 103.0.0.0,1536x864,1519x746,NA,ITT Ratings,3,For,5,NA,NA,NA,ACCEPT,NA,NA,NA,NA,NA,NA,batch5hes,batch5hes,20,49,1,Screen 1,continueButton,response_rating_scale_likert_active,4227.199999928474,NA,NA,Somewhat Agree,1,0,1,0,NA,NA,NA,NA,1,statements,I am scared of getting covid and will try anything to lower risk,1,17/05/2021 11:33,17/05/2021 11:44,686,Most weeks,Most months,25,Male,-99,A levels,43,2,Against,For
52,1658935970842,27/07/2022 15:32:50,1658935973228,1,27/07/2022 16:32:53,94050,2,task-j4ag,NA,23334685,6847619,NA,complete,NA,62e159b018af0d054ff10f57,computer,Desktop or Laptop,Windows 10,Chrome 103.0.0.0,1536x864,1519x746,NA,ITT Ratings,3,For,5,NA,NA,NA,ACCEPT,NA,NA,NA,NA,NA,NA,batch5hes,batch5hes,62,50,1,Screen 1,continueButton,response_rating_scale_likert_active,2244.2000000476837,NA,NA,Agree,1,0,1,0,NA,NA,NA,NA,1,statements,It will enable me to carry on as normal,1,17/05/2021 11:50,17/05/2021 11:57,423,Most weeks,Most weeks,48,Male,-99,"Undergraduate degree (BSc, BA)",50,2,Against,For
53,1658935973751,27/07/2022 15:32:53,1658935975813,1,27/07/2022 16:32:55,94050,2,task-j4ag,NA,23334685,6847619,NA,complete,NA,62e159b018af0d054ff10f57,computer,Desktop or Laptop,Windows 10,Chrome 103.0.0.0,1536x864,1519x746,NA,ITT Ratings,3,For,5,NA,NA,NA,ACCEPT,NA,NA,NA,NA,NA,NA,batch5hes,batch5hes,16,51,1,Screen 1,continueButton,response_rating_scale_likert_active,2569.2000000476837,NA,NA,Strongly Disagree,1,0,1,0,NA,NA,NA,NA,1,statements,possible unsafe side effects,1,17/05/2021 11:33,17/05/2021 11:44,686,Most weeks,Most months,25,Male,-99,A levels,43,1,Against,Against
54,1658935975958,27/07/2022 15:32:55,1658935978353,1,27/07/2022 16:32:58,94050,2,task-j4ag,NA,23334685,6847619,NA,complete,NA,62e159b018af0d054ff10f57,computer,Desktop or Laptop,Windows 10,Chrome 103.0.0.0,1536x864,1519x746,NA,ITT Ratings,3,For,5,NA,NA,NA,ACCEPT,NA,NA,NA,NA,NA,NA,batch5hes,batch5hes,48,52,1,Screen 1,continueButton,response_rating_scale_likert_active,2523.1999999284744,NA,NA,Strongly Disagree,1,0,1,0,NA,NA,NA,NA,1,statements,I'm not in an at risk group and the probability of becoming seriously ill is low.,1,17/05/2021 11:10,17/05/2021 11:56,2717,Rarely,Rarely,38,Male,-99,A levels,48,3,Against,Against
55,1658935978648,27/07/2022 15:32:58,1658935981048,1,27/07/2022 16:33:01,94050,2,task-j4ag,NA,23334685,6847619,NA,complete,NA,62e159b018af0d054ff10f57,computer,Desktop or Laptop,Windows 10,Chrome 103.0.0.0,1536x864,1519x746,NA,ITT Ratings,3,For,5,NA,NA,NA,ACCEPT,NA,NA,NA,NA,NA,NA,batch5hes,batch5hes,28,53,1,Screen 1,continueButton,response_rating_scale_likert_active,2677.899999976158,NA,NA,Strongly Disagree,1,0,1,0,NA,NA,NA,NA,1,statements,the vaccine is not safe,1,17/05/2021 11:33,17/05/2021 11:51,1071,Most weeks,A few times a year,34,Male,-99,"Undergraduate degree (BSc, BA)",45,1,Against,Against
56,1658935983719,27/07/2022 15:33:03,1658935985605,1,27/07/2022 16:33:05,94050,2,task-j4ag,NA,23334685,6847619,NA,complete,NA,62e159b018af0d054ff10f57,computer,Desktop or Laptop,Windows 10,Chrome 103.0.0.0,1536x864,1519x746,NA,ITT Ratings,3,For,5,NA,NA,NA,ACCEPT,NA,NA,NA,NA,NA,NA,batch5hes,batch5hes,45,54,1,Screen 1,continueButton,response_rating_scale_likert_active,4543.299999952316,NA,NA,Somewhat Agree,1,0,1,0,NA,NA,NA,NA,1,statements,The more people that are vaccinated the quicker things will return to normal,1,17/05/2021 11:49,17/05/2021 11:54,314,Rarely,Most days,27,Female,-99,"Undergraduate degree (BSc, BA)",47,3,Against,For
57,1658935996903,27/07/2022 15:33:16,1658935999086,1,27/07/2022 16:33:19,94050,2,task-j4ag,NA,23334685,6847619,NA,complete,NA,62e159b018af0d054ff10f57,computer,Desktop or Laptop,Windows 10,Chrome 103.0.0.0,1536x864,1519x746,NA,ITT Ratings,3,For,5,NA,NA,NA,ACCEPT,NA,NA,NA,NA,NA,NA,batch5hes,batch5hes,9,55,1,Screen 1,continueButton,response_rating_scale_likert_active,13464.400000095367,NA,NA,Strongly Agree,1,0,1,0,NA,NA,NA,NA,1,statements,I want to be able to visit vulnerable friends and loved ones without being a risk factor to them,1,17/05/2021 11:29,17/05/2021 11:43,849,Rarely,Most months,29,Female,-99,"Postgraduate degree (MSc, MA, MPhil)",41,3,Against,For
58,1658935999052,27/07/2022 15:33:19,1658936001441,1,27/07/2022 16:33:21,94050,2,task-j4ag,NA,23334685,6847619,NA,complete,NA,62e159b018af0d054ff10f57,computer,Desktop or Laptop,Windows 10,Chrome 103.0.0.0,1536x864,1519x746,NA,ITT Ratings,3,For,5,NA,NA,NA,ACCEPT,NA,NA,NA,NA,NA,NA,batch5hes,batch5hes,4,56,1,Screen 1,continueButton,response_rating_scale_likert_active,2339.5,NA,NA,Strongly Disagree,1,0,1,0,NA,NA,NA,NA,1,statements,It has not been tested extensively on every demographic and race,1,17/05/2021 11:29,17/05/2021 11:43,849,Rarely,Most months,29,Female,-99,"Postgraduate degree (MSc, MA, MPhil)",41,1,Against,Against
59,1658936002969,27/07/2022 15:33:22,1658936004786,1,27/07/2022 16:33:24,94050,2,task-j4ag,NA,23334685,6847619,NA,complete,NA,62e159b018af0d054ff10f57,computer,Desktop or Laptop,Windows 10,Chrome 103.0.0.0,1536x864,1519x746,NA,ITT Ratings,3,For,5,NA,NA,NA,ACCEPT,NA,NA,NA,NA,NA,NA,batch5hes,batch5hes,6,57,1,Screen 1,continueButton,response_rating_scale_likert_active,3328.899999976158,NA,NA,Somewhat Disagree,1,0,1,0,NA,NA,NA,NA,1,statements,New variants may arise and that would invalidate old vaccines already taken,1,17/05/2021 11:29,17/05/2021 11:43,849,Rarely,Most months,29,Female,-99,"Postgraduate degree (MSc, MA, MPhil)",41,3,Against,Against
60,1658936004552,27/07/2022 15:33:24,1658936006950,1,27/07/2022 16:33:26,94050,2,task-j4ag,NA,23334685,6847619,NA,complete,NA,62e159b018af0d054ff10f57,computer,Desktop or Laptop,Windows 10,Chrome 103.0.0.0,1536x864,1519x746,NA,ITT Ratings,3,For,5,NA,NA,NA,ACCEPT,NA,NA,NA,NA,NA,NA,batch5hes,batch5hes,30,58,1,Screen 1,continueButton,response_rating_scale_likert_active,2148,NA,NA,Disagree,1,0,1,0,NA,NA,NA,NA,1,statements,dont know enough about it,1,17/05/2021 11:33,17/05/2021 11:51,1071,Most weeks,A few times a year,34,Male,-99,"Undergraduate degree (BSc, BA)",45,3,Against,Against
61,1658936007316,27/07/2022 15:33:27,1658936009698,1,27/07/2022 16:33:29,94050,2,task-j4ag,NA,23334685,6847619,NA,complete,NA,62e159b018af0d054ff10f57,computer,Desktop or Laptop,Windows 10,Chrome 103.0.0.0,1536x864,1519x746,NA,ITT Ratings,3,For,5,NA,NA,NA,ACCEPT,NA,NA,NA,NA,NA,NA,batch5hes,batch5hes,43,59,1,Screen 1,continueButton,response_rating_scale_likert_active,2732,NA,NA,Strongly Agree,1,0,1,0,NA,NA,NA,NA,1,statements,It will help protect vulnerable people,1,17/05/2021 11:49,17/05/2021 11:54,314,Rarely,Most days,27,Female,-99,"Undergraduate degree (BSc, BA)",47,1,Against,For
62,1658936010704,27/07/2022 15:33:30,1658936013086,1,27/07/2022 16:33:33,94050,2,task-j4ag,NA,23334685,6847619,NA,complete,NA,62e159b018af0d054ff10f57,computer,Desktop or Laptop,Windows 10,Chrome 103.0.0.0,1536x864,1519x746,NA,ITT Ratings,3,For,5,NA,NA,NA,ACCEPT,NA,NA,NA,NA,NA,NA,batch5hes,batch5hes,10,60,1,Screen 1,continueButton,response_rating_scale_likert_active,3369.2999999523163,NA,NA,Disagree,1,0,1,0,NA,NA,NA,NA,1,statements,"I am young and healthy, therefore I am extremely low risk at developing serious complications from COVID",1,17/05/2021 11:39,17/05/2021 11:43,295,Never,Rarely,24,Male,-99,"Undergraduate degree (BSc, BA)",42,1,Against,Against
63,1658936029552,27/07/2022 15:33:49,1658936031414,1,27/07/2022 16:33:51,94050,2,task-j4ag,NA,23334685,6847619,NA,complete,NA,62e159b018af0d054ff10f57,computer,Desktop or Laptop,Windows 10,Chrome 103.0.0.0,1536x864,1519x746,NA,ITT Ratings,3,For,5,NA,NA,NA,ACCEPT,NA,NA,NA,NA,NA,NA,batch5hes,batch5hes,37,61,1,Screen 1,continueButton,response_rating_scale_likert_active,18314.299999952316,NA,NA,Disagree,1,0,1,0,NA,NA,NA,NA,1,statements,i want to protect myself,1,17/05/2021 11:43,17/05/2021 11:53,620,Most weeks,Most days,51,Female,-99,GCSEs,46,1,Against,For
64,1658936035513,27/07/2022 15:33:55,1658936037273,1,27/07/2022 16:33:57,94050,2,task-j4ag,NA,23334685,6847619,NA,complete,NA,62e159b018af0d054ff10f57,computer,Desktop or Laptop,Windows 10,Chrome 103.0.0.0,1536x864,1519x746,NA,ITT Ratings,3,For,5,NA,NA,NA,ACCEPT,NA,NA,NA,NA,NA,NA,batch5hes,batch5hes,41,62,1,Screen 1,continueButton,response_rating_scale_likert_active,5845.899999976158,NA,NA,Disagree,1,0,1,0,NA,NA,NA,NA,1,statements,I am healthy and young so no benefit to me,1,17/05/2021 11:49,17/05/2021 11:54,314,Rarely,Most days,27,Female,-99,"Undergraduate degree (BSc, BA)",47,2,Against,Against
65,1658936035958,27/07/2022 15:33:55,1658936037280,1,27/07/2022 16:33:57,94050,2,task-j4ag,NA,23334685,6847619,NA,complete,NA,62e159b018af0d054ff10f57,computer,Desktop or Laptop,Windows 10,Chrome 103.0.0.0,1536x864,1519x746,NA,ITT Ratings,3,For,5,NA,NA,NA,ACCEPT,NA,NA,NA,NA,NA,NA,batch5hes,NA,NA,END TASK,NA,NA,NA,NA,265394,NA,NA,NA,NA,0,1,0,NA,NA,NA,NA,NA,NA,NA,NA,NA,NA,NA,NA,NA,NA,NA,NA,NA,NA,NA,NA,NA
1,1658936036211,27/07/2022 15:33:56,1658936036172,1,27/07/2022 16:33:56,94050,2,task-j4ag,NA,23334856,6847677,NA,complete,NA,62e15accf9f0d9dd6b748e7e,computer,Desktop or Laptop,Windows 10,Chrome 103.0.0.0,1920x1080,1920x937,NA,ITT Ratings,3,For,5,NA,NA,NA,ACCEPT,NA,NA,NA,NA,NA,NA,batch5hes,NA,NA,BEGIN TASK,NA,NA,NA,NA,NA,NA,NA,NA,NA,0,1,0,NA,NA,NA,NA,NA,NA,NA,NA,NA,NA,NA,NA,NA,NA,NA,NA,NA,NA,NA,NA,NA
2,1658936044972,27/07/2022 15:34:04,1658936045003,1,27/07/2022 16:34:05,94050,2,task-j4ag,NA,23334856,6847677,NA,complete,NA,62e15accf9f0d9dd6b748e7e,computer,Desktop or Laptop,Windows 10,Chrome 103.0.0.0,1920x1080,1920x937,NA,ITT Ratings,3,For,5,NA,NA,NA,ACCEPT,NA,NA,NA,NA,NA,NA,batch5hes,batch5hes,1,1,1,Screen 1,advancementZone,continue_button,8732.5,NA,NA,NA,NA,0,1,0,NA,NA,NA,NA,NA,instructions,NA,NA,NA,NA,NA,NA,NA,NA,NA,NA,NA,NA,NA,NA,NA
3,1658936049253,27/07/2022 15:34:09,1658936049282,1,27/07/2022 16:34:09,94050,2,task-j4ag,NA,23334856,6847677,NA,complete,NA,62e15accf9f0d9dd6b748e7e,computer,Desktop or Laptop,Windows 10,Chrome 103.0.0.0,1920x1080,1920x937,NA,ITT Ratings,3,For,5,NA,NA,NA,ACCEPT,NA,NA,NA,NA,NA,NA,batch5hes,batch5hes,33,1,1,Screen 1,continueButton,response_rating_scale_likert_active,4266.29999999702,NA,NA,Agree,1,0,1,0,NA,NA,NA,NA,1,statements,I believe it is safe,1,17/05/2021 11:33,17/05/2021 11:51,1071,Most weeks,A few times a year,34,Male,-99,"Undergraduate degree (BSc, BA)",45,3,Against,For
4,1658936065053,27/07/2022 15:34:25,1658936065081,1,27/07/2022 16:34:25,94050,2,task-j4ag,NA,23334856,6847677,NA,complete,NA,62e15accf9f0d9dd6b748e7e,computer,Desktop or Laptop,Windows 10,Chrome 103.0.0.0,1920x1080,1920x937,NA,ITT Ratings,3,For,5,NA,NA,NA,ACCEPT,NA,NA,NA,NA,NA,NA,batch5hes,batch5hes,29,2,1,Screen 1,continueButton,response_rating_scale_likert_active,15780.29999999702,NA,NA,Somewhat Agree,1,0,1,0,NA,NA,NA,NA,1,statements,it was developed too fast,1,17/05/2021 11:33,17/05/2021 11:51,1071,Most weeks,A few times a year,34,Male,-99,"Undergraduate degree (BSc, BA)",45,2,Against,Against
5,1658936070025,27/07/2022 15:34:30,1658936070049,1,27/07/2022 16:34:30,94050,2,task-j4ag,NA,23334856,6847677,NA,complete,NA,62e15accf9f0d9dd6b748e7e,computer,Desktop or Laptop,Windows 10,Chrome 103.0.0.0,1920x1080,1920x937,NA,ITT Ratings,3,For,5,NA,NA,NA,ACCEPT,NA,NA,NA,NA,NA,NA,batch5hes,batch5hes,4,3,1,Screen 1,continueButton,response_rating_scale_likert_active,4958.79999999702,NA,NA,Somewhat Disagree,1,0,1,0,NA,NA,NA,NA,1,statements,It has not been tested extensively on every demographic and race,1,17/05/2021 11:29,17/05/2021 11:43,849,Rarely,Most months,29,Female,-99,"Postgraduate degree (MSc, MA, MPhil)",41,1,Against,Against
6,1658936073675,27/07/2022 15:34:33,1658936073696,1,27/07/2022 16:34:33,94050,2,task-j4ag,NA,23334856,6847677,NA,complete,NA,62e15accf9f0d9dd6b748e7e,computer,Desktop or Laptop,Windows 10,Chrome 103.0.0.0,1920x1080,1920x937,NA,ITT Ratings,3,For,5,NA,NA,NA,ACCEPT,NA,NA,NA,NA,NA,NA,batch5hes,batch5hes,31,4,1,Screen 1,continueButton,response_rating_scale_likert_active,3639.70000000298,NA,NA,Somewhat Agree,1,0,1,0,NA,NA,NA,NA,1,statements,I trust the health care officials,1,17/05/2021 11:33,17/05/2021 11:51,1071,Most weeks,A few times a year,34,Male,-99,"Undergraduate degree (BSc, BA)",45,1,Against,For
7,1658936076140,27/07/2022 15:34:36,1658936076121,1,27/07/2022 16:34:36,94050,2,task-j4ag,NA,23334856,6847677,NA,complete,NA,62e15accf9f0d9dd6b748e7e,computer,Desktop or Laptop,Windows 10,Chrome 103.0.0.0,1920x1080,1920x937,NA,ITT Ratings,3,For,5,NA,NA,NA,ACCEPT,NA,NA,NA,NA,NA,NA,batch5hes,batch5hes,38,5,1,Screen 1,continueButton,response_rating_scale_likert_active,2408.199999988079,NA,NA,Agree,1,0,1,0,NA,NA,NA,NA,1,statements,i want to protect others,1,17/05/2021 11:43,17/05/2021 11:53,620,Most weeks,Most days,51,Female,-99,GCSEs,46,2,Against,For
8,1658936084431,27/07/2022 15:34:44,1658936084465,1,27/07/2022 16:34:44,94050,2,task-j4ag,NA,23334856,6847677,NA,complete,NA,62e15accf9f0d9dd6b748e7e,computer,Desktop or Laptop,Windows 10,Chrome 103.0.0.0,1920x1080,1920x937,NA,ITT Ratings,3,For,5,NA,NA,NA,ACCEPT,NA,NA,NA,NA,NA,NA,batch5hes,batch5hes,18,6,1,Screen 1,continueButton,response_rating_scale_likert_active,8335.59999999404,NA,NA,Somewhat Agree,1,0,1,0,NA,NA,NA,NA,1,statements,can cause problems that werent there initially,1,17/05/2021 11:33,17/05/2021 11:44,686,Most weeks,Most months,25,Male,-99,A levels,43,3,Against,Against
9,1658936086714,27/07/2022 15:34:46,1658936086745,1,27/07/2022 16:34:46,94050,2,task-j4ag,NA,23334856,6847677,NA,complete,NA,62e15accf9f0d9dd6b748e7e,computer,Desktop or Laptop,Windows 10,Chrome 103.0.0.0,1920x1080,1920x937,NA,ITT Ratings,3,For,5,NA,NA,NA,ACCEPT,NA,NA,NA,NA,NA,NA,batch5hes,batch5hes,34,7,1,Screen 1,continueButton,response_rating_scale_likert_active,2272.0999999940395,NA,NA,Somewhat Disagree,1,0,1,0,NA,NA,NA,NA,1,statements,i don't trust the pharmaceutical companies,1,17/05/2021 11:43,17/05/2021 11:53,620,Most weeks,Most days,51,Female,-99,GCSEs,46,1,Against,Against
10,1658936094445,27/07/2022 15:34:54,1658936094473,1,27/07/2022 16:34:54,94050,2,task-j4ag,NA,23334856,6847677,NA,complete,NA,62e15accf9f0d9dd6b748e7e,computer,Desktop or Laptop,Windows 10,Chrome 103.0.0.0,1920x1080,1920x937,NA,ITT Ratings,3,For,5,NA,NA,NA,ACCEPT,NA,NA,NA,NA,NA,NA,batch5hes,batch5hes,12,8,1,Screen 1,continueButton,response_rating_scale_likert_active,7719.29999999702,NA,NA,Disagree,1,0,1,0,NA,NA,NA,NA,1,statements,I am not sure about the testing and long term effects (both positive and negative) of the vaccine.,1,17/05/2021 11:39,17/05/2021 11:43,295,Never,Rarely,24,Male,-99,"Undergraduate degree (BSc, BA)",42,3,Against,Against
11,1658936097181,27/07/2022 15:34:57,1658936097216,1,27/07/2022 16:34:57,94050,2,task-j4ag,NA,23334856,6847677,NA,complete,NA,62e15accf9f0d9dd6b748e7e,computer,Desktop or Laptop,Windows 10,Chrome 103.0.0.0,1920x1080,1920x937,NA,ITT Ratings,3,For,5,NA,NA,NA,ACCEPT,NA,NA,NA,NA,NA,NA,batch5hes,batch5hes,62,9,1,Screen 1,continueButton,response_rating_scale_likert_active,2736.20000000298,NA,NA,Agree,1,0,1,0,NA,NA,NA,NA,1,statements,It will enable me to carry on as normal,1,17/05/2021 11:50,17/05/2021 11:57,423,Most weeks,Most weeks,48,Male,-99,"Undergraduate degree (BSc, BA)",50,2,Against,For
12,1658936106291,27/07/2022 15:35:06,1658936106312,1,27/07/2022 16:35:06,94050,2,task-j4ag,NA,23334856,6847677,NA,complete,NA,62e15accf9f0d9dd6b748e7e,computer,Desktop or Laptop,Windows 10,Chrome 103.0.0.0,1920x1080,1920x937,NA,ITT Ratings,3,For,5,NA,NA,NA,ACCEPT,NA,NA,NA,NA,NA,NA,batch5hes,batch5hes,53,10,1,Screen 1,continueButton,response_rating_scale_likert_active,9088.5,NA,NA,Disagree,1,0,1,0,NA,NA,NA,NA,1,statements,"Nanoparticles within the vaccine, MRNA changing DNA within the human body. Multiple videos on the internet showing adverse reactions to the vaccine",1,17/05/2021 11:30,17/05/2021 11:56,1558,Rarely,Most months,35,Male,-99,"GCSEs,A levels,Undergraduate degree (BSc, BA)",49,2,Against,Against
13,1658936110253,27/07/2022 15:35:10,1658936110289,1,27/07/2022 16:35:10,94050,2,task-j4ag,NA,23334856,6847677,NA,complete,NA,62e15accf9f0d9dd6b748e7e,computer,Desktop or Laptop,Windows 10,Chrome 103.0.0.0,1920x1080,1920x937,NA,ITT Ratings,3,For,5,NA,NA,NA,ACCEPT,NA,NA,NA,NA,NA,NA,batch5hes,batch5hes,59,11,1,Screen 1,continueButton,response_rating_scale_likert_active,3968.70000000298,NA,NA,Strongly Disagree,1,0,1,0,NA,NA,NA,NA,1,statements,It is not needed as there is no threat,1,17/05/2021 11:50,17/05/2021 11:57,423,Most weeks,Most weeks,48,Male,-99,"Undergraduate degree (BSc, BA)",50,2,Against,Against
14,1658936113126,27/07/2022 15:35:13,1658936113153,1,27/07/2022 16:35:13,94050,2,task-j4ag,NA,23334856,6847677,NA,complete,NA,62e15accf9f0d9dd6b748e7e,computer,Desktop or Laptop,Windows 10,Chrome 103.0.0.0,1920x1080,1920x937,NA,ITT Ratings,3,For,5,NA,NA,NA,ACCEPT,NA,NA,NA,NA,NA,NA,batch5hes,batch5hes,30,12,1,Screen 1,continueButton,response_rating_scale_likert_active,2856.4000000059605,NA,NA,Somewhat Disagree,1,0,1,0,NA,NA,NA,NA,1,statements,dont know enough about it,1,17/05/2021 11:33,17/05/2021 11:51,1071,Most weeks,A few times a year,34,Male,-99,"Undergraduate degree (BSc, BA)",45,3,Against,Against
15,1658936116895,27/07/2022 15:35:16,1658936116921,1,27/07/2022 16:35:16,94050,2,task-j4ag,NA,23334856,6847677,NA,complete,NA,62e15accf9f0d9dd6b748e7e,computer,Desktop or Laptop,Windows 10,Chrome 103.0.0.0,1920x1080,1920x937,NA,ITT Ratings,3,For,5,NA,NA,NA,ACCEPT,NA,NA,NA,NA,NA,NA,batch5hes,batch5hes,8,13,1,Screen 1,continueButton,response_rating_scale_likert_active,3761,NA,NA,Neither Agree nor Disagree,1,0,1,0,NA,NA,NA,NA,1,statements,I am tired of lockdown,1,17/05/2021 11:29,17/05/2021 11:43,849,Rarely,Most months,29,Female,-99,"Postgraduate degree (MSc, MA, MPhil)",41,2,Against,For
16,1658936132224,27/07/2022 15:35:32,1658936132248,1,27/07/2022 16:35:32,94050,2,task-j4ag,NA,23334856,6847677,NA,complete,NA,62e15accf9f0d9dd6b748e7e,computer,Desktop or Laptop,Windows 10,Chrome 103.0.0.0,1920x1080,1920x937,NA,ITT Ratings,3,For,5,NA,NA,NA,ACCEPT,NA,NA,NA,NA,NA,NA,batch5hes,batch5hes,5,14,1,Screen 1,continueButton,response_rating_scale_likert_active,15319.5,NA,NA,Disagree,1,0,1,0,NA,NA,NA,NA,1,statements,It was made too quickly and compromises to its integrity may have been made,1,17/05/2021 11:29,17/05/2021 11:43,849,Rarely,Most months,29,Female,-99,"Postgraduate degree (MSc, MA, MPhil)",41,2,Against,Against
17,1658936135188,27/07/2022 15:35:35,1658936135225,1,27/07/2022 16:35:35,94050,2,task-j4ag,NA,23334856,6847677,NA,complete,NA,62e15accf9f0d9dd6b748e7e,computer,Desktop or Laptop,Windows 10,Chrome 103.0.0.0,1920x1080,1920x937,NA,ITT Ratings,3,For,5,NA,NA,NA,ACCEPT,NA,NA,NA,NA,NA,NA,batch5hes,batch5hes,13,15,1,Screen 1,continueButton,response_rating_scale_likert_active,2969.1000000089407,NA,NA,Agree,1,0,1,0,NA,NA,NA,NA,1,statements,I want to be immune from the disease,1,17/05/2021 11:39,17/05/2021 11:43,295,Never,Rarely,24,Male,-99,"Undergraduate degree (BSc, BA)",42,1,Against,For
18,1658936139973,27/07/2022 15:35:39,1658936140008,1,27/07/2022 16:35:40,94050,2,task-j4ag,NA,23334856,6847677,NA,complete,NA,62e15accf9f0d9dd6b748e7e,computer,Desktop or Laptop,Windows 10,Chrome 103.0.0.0,1920x1080,1920x937,NA,ITT Ratings,3,For,5,NA,NA,NA,ACCEPT,NA,NA,NA,NA,NA,NA,batch5hes,batch5hes,42,16,1,Screen 1,continueButton,response_rating_scale_likert_active,4776.9000000059605,NA,NA,Somewhat Disagree,1,0,1,0,NA,NA,NA,NA,1,statements,You can't trust vaccines as the pharmaceutical industry just wants to make money,1,17/05/2021 11:49,17/05/2021 11:54,314,Rarely,Most days,27,Female,-99,"Undergraduate degree (BSc, BA)",47,3,Against,Against
19,1658936148997,27/07/2022 15:35:48,1658936149032,1,27/07/2022 16:35:49,94050,2,task-j4ag,NA,23334856,6847677,NA,complete,NA,62e15accf9f0d9dd6b748e7e,computer,Desktop or Laptop,Windows 10,Chrome 103.0.0.0,1920x1080,1920x937,NA,ITT Ratings,3,For,5,NA,NA,NA,ACCEPT,NA,NA,NA,NA,NA,NA,batch5hes,batch5hes,23,17,1,Screen 1,continueButton,response_rating_scale_likert_active,9016.79999999702,NA,NA,Disagree,1,0,1,0,NA,NA,NA,NA,1,statements,Breastfeeding and not enough trials/evidence to support the effects of potential transmission to my baby through milk,1,17/05/2021 11:36,17/05/2021 11:45,556,Rarely,Most weeks,26,Female,-99,"Undergraduate degree (BSc, BA)",44,2,Against,Against
20,1658936153088,27/07/2022 15:35:53,1658936153120,1,27/07/2022 16:35:53,94050,2,task-j4ag,NA,23334856,6847677,NA,complete,NA,62e15accf9f0d9dd6b748e7e,computer,Desktop or Laptop,Windows 10,Chrome 103.0.0.0,1920x1080,1920x937,NA,ITT Ratings,3,For,5,NA,NA,NA,ACCEPT,NA,NA,NA,NA,NA,NA,batch5hes,batch5hes,20,18,1,Screen 1,continueButton,response_rating_scale_likert_active,4081.099999994039,NA,NA,Agree,1,0,1,0,NA,NA,NA,NA,1,statements,I am scared of getting covid and will try anything to lower risk,1,17/05/2021 11:33,17/05/2021 11:44,686,Most weeks,Most months,25,Male,-99,A levels,43,2,Against,For
21,1658936154915,27/07/2022 15:35:54,1658936154952,1,27/07/2022 16:35:54,94050,2,task-j4ag,NA,23334856,6847677,NA,complete,NA,62e15accf9f0d9dd6b748e7e,computer,Desktop or Laptop,Windows 10,Chrome 103.0.0.0,1920x1080,1920x937,NA,ITT Ratings,3,For,5,NA,NA,NA,ACCEPT,NA,NA,NA,NA,NA,NA,batch5hes,batch5hes,61,19,1,Screen 1,continueButton,response_rating_scale_likert_active,1824.8999999910593,NA,NA,Agree,1,0,1,0,NA,NA,NA,NA,1,statements,It will protect me,1,17/05/2021 11:50,17/05/2021 11:57,423,Most weeks,Most weeks,48,Male,-99,"Undergraduate degree (BSc, BA)",50,1,Against,For
22,1658936159192,27/07/2022 15:35:59,1658936159216,1,27/07/2022 16:35:59,94050,2,task-j4ag,NA,23334856,6847677,NA,complete,NA,62e15accf9f0d9dd6b748e7e,computer,Desktop or Laptop,Windows 10,Chrome 103.0.0.0,1920x1080,1920x937,NA,ITT Ratings,3,For,5,NA,NA,NA,ACCEPT,NA,NA,NA,NA,NA,NA,batch5hes,batch5hes,45,20,1,Screen 1,continueButton,response_rating_scale_likert_active,4257,NA,NA,Strongly Agree,1,0,1,0,NA,NA,NA,NA,1,statements,The more people that are vaccinated the quicker things will return to normal,1,17/05/2021 11:49,17/05/2021 11:54,314,Rarely,Most days,27,Female,-99,"Undergraduate degree (BSc, BA)",47,3,Against,For
23,1658936163146,27/07/2022 15:36:03,1658936163184,1,27/07/2022 16:36:03,94050,2,task-j4ag,NA,23334856,6847677,NA,complete,NA,62e15accf9f0d9dd6b748e7e,computer,Desktop or Laptop,Windows 10,Chrome 103.0.0.0,1920x1080,1920x937,NA,ITT Ratings,3,For,5,NA,NA,NA,ACCEPT,NA,NA,NA,NA,NA,NA,batch5hes,batch5hes,25,21,1,Screen 1,continueButton,response_rating_scale_likert_active,3960.5,NA,NA,Agree,1,0,1,0,NA,NA,NA,NA,1,statements,Vulnerable person likely to become very ill with covid,1,17/05/2021 11:36,17/05/2021 11:45,556,Rarely,Most weeks,26,Female,-99,"Undergraduate degree (BSc, BA)",44,1,Against,For
24,1658936169309,27/07/2022 15:36:09,1658936169345,1,27/07/2022 16:36:09,94050,2,task-j4ag,NA,23334856,6847677,NA,complete,NA,62e15accf9f0d9dd6b748e7e,computer,Desktop or Laptop,Windows 10,Chrome 103.0.0.0,1920x1080,1920x937,NA,ITT Ratings,3,For,5,NA,NA,NA,ACCEPT,NA,NA,NA,NA,NA,NA,batch5hes,batch5hes,11,22,1,Screen 1,continueButton,response_rating_scale_likert_active,6152.5,NA,NA,Agree,1,0,1,0,NA,NA,NA,NA,1,statements,"I am not overweight or obese, nor have any underlying health conditions",1,17/05/2021 11:39,17/05/2021 11:43,295,Never,Rarely,24,Male,-99,"Undergraduate degree (BSc, BA)",42,2,Against,Against
25,1658936172689,27/07/2022 15:36:12,1658936172713,1,27/07/2022 16:36:12,94050,2,task-j4ag,NA,23334856,6847677,NA,complete,NA,62e15accf9f0d9dd6b748e7e,computer,Desktop or Laptop,Windows 10,Chrome 103.0.0.0,1920x1080,1920x937,NA,ITT Ratings,3,For,5,NA,NA,NA,ACCEPT,NA,NA,NA,NA,NA,NA,batch5hes,batch5hes,41,23,1,Screen 1,continueButton,response_rating_scale_likert_active,3359.5999999940395,NA,NA,Disagree,1,0,1,0,NA,NA,NA,NA,1,statements,I am healthy and young so no benefit to me,1,17/05/2021 11:49,17/05/2021 11:54,314,Rarely,Most days,27,Female,-99,"Undergraduate degree (BSc, BA)",47,2,Against,Against
26,1658936183939,27/07/2022 15:36:23,1658936183969,1,27/07/2022 16:36:23,94050,2,task-j4ag,NA,23334856,6847677,NA,complete,NA,62e15accf9f0d9dd6b748e7e,computer,Desktop or Laptop,Windows 10,Chrome 103.0.0.0,1920x1080,1920x937,NA,ITT Ratings,3,For,5,NA,NA,NA,ACCEPT,NA,NA,NA,NA,NA,NA,batch5hes,batch5hes,26,24,1,Screen 1,continueButton,response_rating_scale_likert_active,11249,NA,NA,Agree,1,0,1,0,NA,NA,NA,NA,1,statements,"Feel I have to to be able to get back to ""normal""",1,17/05/2021 11:36,17/05/2021 11:45,556,Rarely,Most weeks,26,Female,-99,"Undergraduate degree (BSc, BA)",44,2,Against,For
27,1658936187875,27/07/2022 15:36:27,1658936187897,1,27/07/2022 16:36:27,94050,2,task-j4ag,NA,23334856,6847677,NA,complete,NA,62e15accf9f0d9dd6b748e7e,computer,Desktop or Laptop,Windows 10,Chrome 103.0.0.0,1920x1080,1920x937,NA,ITT Ratings,3,For,5,NA,NA,NA,ACCEPT,NA,NA,NA,NA,NA,NA,batch5hes,batch5hes,40,25,1,Screen 1,continueButton,response_rating_scale_likert_active,3920.79999999702,NA,NA,Disagree,1,0,1,0,NA,NA,NA,NA,1,statements,It's been rushed so I am not ready to take it,1,17/05/2021 11:49,17/05/2021 11:54,314,Rarely,Most days,27,Female,-99,"Undergraduate degree (BSc, BA)",47,1,Against,Against
28,1658936189562,27/07/2022 15:36:29,1658936189593,1,27/07/2022 16:36:29,94050,2,task-j4ag,NA,23334856,6847677,NA,complete,NA,62e15accf9f0d9dd6b748e7e,computer,Desktop or Laptop,Windows 10,Chrome 103.0.0.0,1920x1080,1920x937,NA,ITT Ratings,3,For,5,NA,NA,NA,ACCEPT,NA,NA,NA,NA,NA,NA,batch5hes,batch5hes,35,26,1,Screen 1,continueButton,response_rating_scale_likert_active,1689,NA,NA,Strongly Disagree,1,0,1,0,NA,NA,NA,NA,1,statements,covid doesn't kill you,1,17/05/2021 11:43,17/05/2021 11:53,620,Most weeks,Most days,51,Female,-99,GCSEs,46,2,Against,Against
29,1658936200816,27/07/2022 15:36:40,1658936200841,1,27/07/2022 16:36:40,94050,2,task-j4ag,NA,23334856,6847677,NA,complete,NA,62e15accf9f0d9dd6b748e7e,computer,Desktop or Laptop,Windows 10,Chrome 103.0.0.0,1920x1080,1920x937,NA,ITT Ratings,3,For,5,NA,NA,NA,ACCEPT,NA,NA,NA,NA,NA,NA,batch5hes,batch5hes,54,27,1,Screen 1,continueButton,response_rating_scale_likert_active,11241.10000000894,NA,NA,Strongly Disagree,1,0,1,0,NA,NA,NA,NA,1,statements,Companies offering incentives to get the vaccine. Videos showing metal sticking to the arms of people in the position where the jab was taken- feels very suspect and untrustworthy promotion.,1,17/05/2021 11:30,17/05/2021 11:56,1558,Rarely,Most months,35,Male,-99,"GCSEs,A levels,Undergraduate degree (BSc, BA)",49,3,Against,Against
30,1658936203777,27/07/2022 15:36:43,1658936203801,1,27/07/2022 16:36:43,94050,2,task-j4ag,NA,23334856,6847677,NA,complete,NA,62e15accf9f0d9dd6b748e7e,computer,Desktop or Laptop,Windows 10,Chrome 103.0.0.0,1920x1080,1920x937,NA,ITT Ratings,3,For,5,NA,NA,NA,ACCEPT,NA,NA,NA,NA,NA,NA,batch5hes,batch5hes,55,28,1,Screen 1,continueButton,response_rating_scale_likert_active,2952.70000000298,NA,NA,Strongly Agree,1,0,1,0,NA,NA,NA,NA,1,statements,I want to protect my family and friends,1,17/05/2021 11:30,17/05/2021 11:56,1558,Rarely,Most months,35,Male,-99,"GCSEs,A levels,Undergraduate degree (BSc, BA)",49,1,Against,For
31,1658936210919,27/07/2022 15:36:50,1658936210945,1,27/07/2022 16:36:50,94050,2,task-j4ag,NA,23334856,6847677,NA,complete,NA,62e15accf9f0d9dd6b748e7e,computer,Desktop or Laptop,Windows 10,Chrome 103.0.0.0,1920x1080,1920x937,NA,ITT Ratings,3,For,5,NA,NA,NA,ACCEPT,NA,NA,NA,NA,NA,NA,batch5hes,batch5hes,22,29,1,Screen 1,continueButton,response_rating_scale_likert_active,7136.5,NA,NA,Strongly Disagree,1,0,1,0,NA,NA,NA,NA,1,statements,Pregnant and dont want to risk my unborn childs life,1,17/05/2021 11:36,17/05/2021 11:45,556,Rarely,Most weeks,26,Female,-99,"Undergraduate degree (BSc, BA)",44,1,Against,Against
32,1658936214507,27/07/2022 15:36:54,1658936214537,1,27/07/2022 16:36:54,94050,2,task-j4ag,NA,23334856,6847677,NA,complete,NA,62e15accf9f0d9dd6b748e7e,computer,Desktop or Laptop,Windows 10,Chrome 103.0.0.0,1920x1080,1920x937,NA,ITT Ratings,3,For,5,NA,NA,NA,ACCEPT,NA,NA,NA,NA,NA,NA,batch5hes,batch5hes,14,30,1,Screen 1,continueButton,response_rating_scale_likert_active,3585.29999999702,NA,NA,Agree,1,0,1,0,NA,NA,NA,NA,1,statements,I want to prevent my ability to infect others,1,17/05/2021 11:39,17/05/2021 11:43,295,Never,Rarely,24,Male,-99,"Undergraduate degree (BSc, BA)",42,2,Against,For
33,1658936216577,27/07/2022 15:36:56,1658936216609,1,27/07/2022 16:36:56,94050,2,task-j4ag,NA,23334856,6847677,NA,complete,NA,62e15accf9f0d9dd6b748e7e,computer,Desktop or Laptop,Windows 10,Chrome 103.0.0.0,1920x1080,1920x937,NA,ITT Ratings,3,For,5,NA,NA,NA,ACCEPT,NA,NA,NA,NA,NA,NA,batch5hes,batch5hes,39,31,1,Screen 1,continueButton,response_rating_scale_likert_active,2064.9000000059605,NA,NA,Agree,1,0,1,0,NA,NA,NA,NA,1,statements,i dont want to put strain on the health services,1,17/05/2021 11:43,17/05/2021 11:53,620,Most weeks,Most days,51,Female,-99,GCSEs,46,3,Against,For
34,1658936217639,27/07/2022 15:36:57,1658936217673,1,27/07/2022 16:36:57,94050,2,task-j4ag,NA,23334856,6847677,NA,complete,NA,62e15accf9f0d9dd6b748e7e,computer,Desktop or Laptop,Windows 10,Chrome 103.0.0.0,1920x1080,1920x937,NA,ITT Ratings,3,For,5,NA,NA,NA,ACCEPT,NA,NA,NA,NA,NA,NA,batch5hes,batch5hes,21,32,1,Screen 1,continueButton,response_rating_scale_likert_active,1057.0999999940395,NA,NA,Agree,1,0,1,0,NA,NA,NA,NA,1,statements,thinks it necessary,1,17/05/2021 11:33,17/05/2021 11:44,686,Most weeks,Most months,25,Male,-99,A levels,43,3,Against,For
35,1658936221506,27/07/2022 15:37:01,1658936221537,1,27/07/2022 16:37:01,94050,2,task-j4ag,NA,23334856,6847677,NA,complete,NA,62e15accf9f0d9dd6b748e7e,computer,Desktop or Laptop,Windows 10,Chrome 103.0.0.0,1920x1080,1920x937,NA,ITT Ratings,3,For,5,NA,NA,NA,ACCEPT,NA,NA,NA,NA,NA,NA,batch5hes,batch5hes,9,33,1,Screen 1,continueButton,response_rating_scale_likert_active,3857.20000000298,NA,NA,Agree,1,0,1,0,NA,NA,NA,NA,1,statements,I want to be able to visit vulnerable friends and loved ones without being a risk factor to them,1,17/05/2021 11:29,17/05/2021 11:43,849,Rarely,Most months,29,Female,-99,"Postgraduate degree (MSc, MA, MPhil)",41,3,Against,For
36,1658936225865,27/07/2022 15:37:05,1658936225897,1,27/07/2022 16:37:05,94050,2,task-j4ag,NA,23334856,6847677,NA,complete,NA,62e15accf9f0d9dd6b748e7e,computer,Desktop or Laptop,Windows 10,Chrome 103.0.0.0,1920x1080,1920x937,NA,ITT Ratings,3,For,5,NA,NA,NA,ACCEPT,NA,NA,NA,NA,NA,NA,batch5hes,batch5hes,46,34,1,Screen 1,continueButton,response_rating_scale_likert_active,4352.199999988079,NA,NA,Somewhat Disagree,1,0,1,0,NA,NA,NA,NA,1,statements,The government cannot be trusted to tell the truth.,1,17/05/2021 11:10,17/05/2021 11:56,2717,Rarely,Rarely,38,Male,-99,A levels,48,1,Against,Against
37,1658936228358,27/07/2022 15:37:08,1658936228384,1,27/07/2022 16:37:08,94050,2,task-j4ag,NA,23334856,6847677,NA,complete,NA,62e15accf9f0d9dd6b748e7e,computer,Desktop or Laptop,Windows 10,Chrome 103.0.0.0,1920x1080,1920x937,NA,ITT Ratings,3,For,5,NA,NA,NA,ACCEPT,NA,NA,NA,NA,NA,NA,batch5hes,batch5hes,57,35,1,Screen 1,continueButton,response_rating_scale_likert_active,2481.0999999940395,NA,NA,Agree,1,0,1,0,NA,NA,NA,NA,1,statements,I want to protect myself from covid 19,1,17/05/2021 11:30,17/05/2021 11:56,1558,Rarely,Most months,35,Male,-99,"GCSEs,A levels,Undergraduate degree (BSc, BA)",49,3,Against,For
38,1658936230575,27/07/2022 15:37:10,1658936230592,1,27/07/2022 16:37:10,94050,2,task-j4ag,NA,23334856,6847677,NA,complete,NA,62e15accf9f0d9dd6b748e7e,computer,Desktop or Laptop,Windows 10,Chrome 103.0.0.0,1920x1080,1920x937,NA,ITT Ratings,3,For,5,NA,NA,NA,ACCEPT,NA,NA,NA,NA,NA,NA,batch5hes,batch5hes,63,36,1,Screen 1,continueButton,response_rating_scale_likert_active,2201,NA,NA,Agree,1,0,1,0,NA,NA,NA,NA,1,statements,It will mean I can meet family members,1,17/05/2021 11:50,17/05/2021 11:57,423,Most weeks,Most weeks,48,Male,-99,"Undergraduate degree (BSc, BA)",50,3,Against,For
39,1658936233159,27/07/2022 15:37:13,1658936233184,1,27/07/2022 16:37:13,94050,2,task-j4ag,NA,23334856,6847677,NA,complete,NA,62e15accf9f0d9dd6b748e7e,computer,Desktop or Laptop,Windows 10,Chrome 103.0.0.0,1920x1080,1920x937,NA,ITT Ratings,3,For,5,NA,NA,NA,ACCEPT,NA,NA,NA,NA,NA,NA,batch5hes,batch5hes,7,37,1,Screen 1,continueButton,response_rating_scale_likert_active,2585.29999999702,NA,NA,Agree,1,0,1,0,NA,NA,NA,NA,1,statements,I can receive the vaccination passport and travel,1,17/05/2021 11:29,17/05/2021 11:43,849,Rarely,Most months,29,Female,-99,"Postgraduate degree (MSc, MA, MPhil)",41,1,Against,For
40,1658936235314,27/07/2022 15:37:15,1658936235344,1,27/07/2022 16:37:15,94050,2,task-j4ag,NA,23334856,6847677,NA,complete,NA,62e15accf9f0d9dd6b748e7e,computer,Desktop or Laptop,Windows 10,Chrome 103.0.0.0,1920x1080,1920x937,NA,ITT Ratings,3,For,5,NA,NA,NA,ACCEPT,NA,NA,NA,NA,NA,NA,batch5hes,batch5hes,60,38,1,Screen 1,continueButton,response_rating_scale_likert_active,2152.5999999940395,NA,NA,Somewhat Agree,1,0,1,0,NA,NA,NA,NA,1,statements,There could be side effects,1,17/05/2021 11:50,17/05/2021 11:57,423,Most weeks,Most weeks,48,Male,-99,"Undergraduate degree (BSc, BA)",50,3,Against,Against
41,1658936237426,27/07/2022 15:37:17,1658936237456,1,27/07/2022 16:37:17,94050,2,task-j4ag,NA,23334856,6847677,NA,complete,NA,62e15accf9f0d9dd6b748e7e,computer,Desktop or Laptop,Windows 10,Chrome 103.0.0.0,1920x1080,1920x937,NA,ITT Ratings,3,For,5,NA,NA,NA,ACCEPT,NA,NA,NA,NA,NA,NA,batch5hes,batch5hes,51,39,1,Screen 1,continueButton,response_rating_scale_likert_active,2105.29999999702,NA,NA,Agree,1,0,1,0,NA,NA,NA,NA,1,statements,I can interact with elderly members of my family.,1,17/05/2021 11:10,17/05/2021 11:56,2717,Rarely,Rarely,38,Male,-99,A levels,48,3,Against,For
42,1658936246115,27/07/2022 15:37:26,1658936246120,1,27/07/2022 16:37:26,94050,2,task-j4ag,NA,23334856,6847677,NA,complete,NA,62e15accf9f0d9dd6b748e7e,computer,Desktop or Laptop,Windows 10,Chrome 103.0.0.0,1920x1080,1920x937,NA,ITT Ratings,3,For,5,NA,NA,NA,ACCEPT,NA,NA,NA,NA,NA,NA,batch5hes,batch5hes,50,40,1,Screen 1,continueButton,response_rating_scale_likert_active,8657,NA,NA,Agree,1,0,1,0,NA,NA,NA,NA,1,statements,Getting vaccinated helps reduce the spread of the virus.,1,17/05/2021 11:10,17/05/2021 11:56,2717,Rarely,Rarely,38,Male,-99,A levels,48,2,Against,For
43,1658936248374,27/07/2022 15:37:28,1658936248408,1,27/07/2022 16:37:28,94050,2,task-j4ag,NA,23334856,6847677,NA,complete,NA,62e15accf9f0d9dd6b748e7e,computer,Desktop or Laptop,Windows 10,Chrome 103.0.0.0,1920x1080,1920x937,NA,ITT Ratings,3,For,5,NA,NA,NA,ACCEPT,NA,NA,NA,NA,NA,NA,batch5hes,batch5hes,56,41,1,Screen 1,continueButton,response_rating_scale_likert_active,2281.0999999940395,NA,NA,Agree,1,0,1,0,NA,NA,NA,NA,1,statements,I want to return to 'normal life',1,17/05/2021 11:30,17/05/2021 11:56,1558,Rarely,Most months,35,Male,-99,"GCSEs,A levels,Undergraduate degree (BSc, BA)",49,2,Against,For
44,1658936251940,27/07/2022 15:37:31,1658936251976,1,27/07/2022 16:37:31,94050,2,task-j4ag,NA,23334856,6847677,NA,complete,NA,62e15accf9f0d9dd6b748e7e,computer,Desktop or Laptop,Windows 10,Chrome 103.0.0.0,1920x1080,1920x937,NA,ITT Ratings,3,For,5,NA,NA,NA,ACCEPT,NA,NA,NA,NA,NA,NA,batch5hes,batch5hes,15,42,1,Screen 1,continueButton,response_rating_scale_likert_active,3561.70000000298,NA,NA,Agree,1,0,1,0,NA,NA,NA,NA,1,statements,The government has told me to do so.,1,17/05/2021 11:39,17/05/2021 11:43,295,Never,Rarely,24,Male,-99,"Undergraduate degree (BSc, BA)",42,3,Against,For
45,1658936256315,27/07/2022 15:37:36,1658936256352,1,27/07/2022 16:37:36,94050,2,task-j4ag,NA,23334856,6847677,NA,complete,NA,62e15accf9f0d9dd6b748e7e,computer,Desktop or Laptop,Windows 10,Chrome 103.0.0.0,1920x1080,1920x937,NA,ITT Ratings,3,For,5,NA,NA,NA,ACCEPT,NA,NA,NA,NA,NA,NA,batch5hes,batch5hes,2,43,1,Screen 1,continueButton,response_rating_scale_likert_active,4367.899999991059,NA,NA,Somewhat Agree,1,0,1,0,NA,NA,NA,NA,1,statements,We would like to check you are reading each argument carefully. Please select 'Somewhat Agree' for this answer,1,NA,NA,NA,NA,NA,NA,NA,NA,NA,NA,check1,NA,NA
46,1658936261654,27/07/2022 15:37:41,1658936261688,1,27/07/2022 16:37:41,94050,2,task-j4ag,NA,23334856,6847677,NA,complete,NA,62e15accf9f0d9dd6b748e7e,computer,Desktop or Laptop,Windows 10,Chrome 103.0.0.0,1920x1080,1920x937,NA,ITT Ratings,3,For,5,NA,NA,NA,ACCEPT,NA,NA,NA,NA,NA,NA,batch5hes,batch5hes,10,44,1,Screen 1,continueButton,response_rating_scale_likert_active,5329.29999999702,NA,NA,Somewhat Agree,1,0,1,0,NA,NA,NA,NA,1,statements,"I am young and healthy, therefore I am extremely low risk at developing serious complications from COVID",1,17/05/2021 11:39,17/05/2021 11:43,295,Never,Rarely,24,Male,-99,"Undergraduate degree (BSc, BA)",42,1,Against,Against
47,1658936266027,27/07/2022 15:37:46,1658936266056,1,27/07/2022 16:37:46,94050,2,task-j4ag,NA,23334856,6847677,NA,complete,NA,62e15accf9f0d9dd6b748e7e,computer,Desktop or Laptop,Windows 10,Chrome 103.0.0.0,1920x1080,1920x937,NA,ITT Ratings,3,For,5,NA,NA,NA,ACCEPT,NA,NA,NA,NA,NA,NA,batch5hes,batch5hes,48,45,1,Screen 1,continueButton,response_rating_scale_likert_active,4361.29999999702,NA,NA,Somewhat Disagree,1,0,1,0,NA,NA,NA,NA,1,statements,I'm not in an at risk group and the probability of becoming seriously ill is low.,1,17/05/2021 11:10,17/05/2021 11:56,2717,Rarely,Rarely,38,Male,-99,A levels,48,3,Against,Against
48,1658936269277,27/07/2022 15:37:49,1658936269312,1,27/07/2022 16:37:49,94050,2,task-j4ag,NA,23334856,6847677,NA,complete,NA,62e15accf9f0d9dd6b748e7e,computer,Desktop or Laptop,Windows 10,Chrome 103.0.0.0,1920x1080,1920x937,NA,ITT Ratings,3,For,5,NA,NA,NA,ACCEPT,NA,NA,NA,NA,NA,NA,batch5hes,batch5hes,19,46,1,Screen 1,continueButton,response_rating_scale_likert_active,3249.20000000298,NA,NA,Agree,1,0,1,0,NA,NA,NA,NA,1,statements,I want to beable to go on holiday,1,17/05/2021 11:33,17/05/2021 11:44,686,Most weeks,Most months,25,Male,-99,A levels,43,1,Against,For
49,1658936270406,27/07/2022 15:37:50,1658936270440,1,27/07/2022 16:37:50,94050,2,task-j4ag,NA,23334856,6847677,NA,complete,NA,62e15accf9f0d9dd6b748e7e,computer,Desktop or Laptop,Windows 10,Chrome 103.0.0.0,1920x1080,1920x937,NA,ITT Ratings,3,For,5,NA,NA,NA,ACCEPT,NA,NA,NA,NA,NA,NA,batch5hes,batch5hes,32,47,1,Screen 1,continueButton,response_rating_scale_likert_active,1121.2000000029802,NA,NA,Agree,1,0,1,0,NA,NA,NA,NA,1,statements,I want to be protected,1,17/05/2021 11:33,17/05/2021 11:51,1071,Most weeks,A few times a year,34,Male,-99,"Undergraduate degree (BSc, BA)",45,2,Against,For
50,1658936271251,27/07/2022 15:37:51,1658936271288,1,27/07/2022 16:37:51,94050,2,task-j4ag,NA,23334856,6847677,NA,complete,NA,62e15accf9f0d9dd6b748e7e,computer,Desktop or Laptop,Windows 10,Chrome 103.0.0.0,1920x1080,1920x937,NA,ITT Ratings,3,For,5,NA,NA,NA,ACCEPT,NA,NA,NA,NA,NA,NA,batch5hes,batch5hes,37,48,1,Screen 1,continueButton,response_rating_scale_likert_active,841.6000000089407,NA,NA,Agree,1,0,1,0,NA,NA,NA,NA,1,statements,i want to protect myself,1,17/05/2021 11:43,17/05/2021 11:53,620,Most weeks,Most days,51,Female,-99,GCSEs,46,1,Against,For
51,1658936273178,27/07/2022 15:37:53,1658936273216,1,27/07/2022 16:37:53,94050,2,task-j4ag,NA,23334856,6847677,NA,complete,NA,62e15accf9f0d9dd6b748e7e,computer,Desktop or Laptop,Windows 10,Chrome 103.0.0.0,1920x1080,1920x937,NA,ITT Ratings,3,For,5,NA,NA,NA,ACCEPT,NA,NA,NA,NA,NA,NA,batch5hes,batch5hes,36,49,1,Screen 1,continueButton,response_rating_scale_likert_active,1920.3999999910593,NA,NA,Agree,1,0,1,0,NA,NA,NA,NA,1,statements,i have had covid already,1,17/05/2021 11:43,17/05/2021 11:53,620,Most weeks,Most days,51,Female,-99,GCSEs,46,3,Against,Against
52,1658936278136,27/07/2022 15:37:58,1658936278168,1,27/07/2022 16:37:58,94050,2,task-j4ag,NA,23334856,6847677,NA,complete,NA,62e15accf9f0d9dd6b748e7e,computer,Desktop or Laptop,Windows 10,Chrome 103.0.0.0,1920x1080,1920x937,NA,ITT Ratings,3,For,5,NA,NA,NA,ACCEPT,NA,NA,NA,NA,NA,NA,batch5hes,batch5hes,49,50,1,Screen 1,continueButton,response_rating_scale_likert_active,4945.4000000059605,NA,NA,Somewhat Agree,1,0,1,0,NA,NA,NA,NA,1,statements,Being vaccinated enables lockdown to be rescinded.,1,17/05/2021 11:10,17/05/2021 11:56,2717,Rarely,Rarely,38,Male,-99,A levels,48,1,Against,For
53,1658936280183,27/07/2022 15:38:00,1658936280216,1,27/07/2022 16:38:00,94050,2,task-j4ag,NA,23334856,6847677,NA,complete,NA,62e15accf9f0d9dd6b748e7e,computer,Desktop or Laptop,Windows 10,Chrome 103.0.0.0,1920x1080,1920x937,NA,ITT Ratings,3,For,5,NA,NA,NA,ACCEPT,NA,NA,NA,NA,NA,NA,batch5hes,batch5hes,44,51,1,Screen 1,continueButton,response_rating_scale_likert_active,2041.4000000059605,NA,NA,Agree,1,0,1,0,NA,NA,NA,NA,1,statements,It has been approved so is safe,1,17/05/2021 11:49,17/05/2021 11:54,314,Rarely,Most days,27,Female,-99,"Undergraduate degree (BSc, BA)",47,2,Against,For
54,1658936286750,27/07/2022 15:38:06,1658936286784,1,27/07/2022 16:38:06,94050,2,task-j4ag,NA,23334856,6847677,NA,complete,NA,62e15accf9f0d9dd6b748e7e,computer,Desktop or Laptop,Windows 10,Chrome 103.0.0.0,1920x1080,1920x937,NA,ITT Ratings,3,For,5,NA,NA,NA,ACCEPT,NA,NA,NA,NA,NA,NA,batch5hes,batch5hes,52,52,1,Screen 1,continueButton,response_rating_scale_likert_active,6561.20000000298,NA,NA,Strongly Disagree,1,0,1,0,NA,NA,NA,NA,1,statements,"I don't want it because it has been massed produced under a year, when it takes on average 10 years to produce a vaccine for public release.",1,17/05/2021 11:30,17/05/2021 11:56,1558,Rarely,Most months,35,Male,-99,"GCSEs,A levels,Undergraduate degree (BSc, BA)",49,1,Against,Against
55,1658936289258,27/07/2022 15:38:09,1658936289248,1,27/07/2022 16:38:09,94050,2,task-j4ag,NA,23334856,6847677,NA,complete,NA,62e15accf9f0d9dd6b748e7e,computer,Desktop or Laptop,Windows 10,Chrome 103.0.0.0,1920x1080,1920x937,NA,ITT Ratings,3,For,5,NA,NA,NA,ACCEPT,NA,NA,NA,NA,NA,NA,batch5hes,batch5hes,58,53,1,Screen 1,continueButton,response_rating_scale_likert_active,2457.1000000089407,NA,NA,Strongly Disagree,1,0,1,0,NA,NA,NA,NA,1,statements,It is not safe and has not been tested properly,1,17/05/2021 11:50,17/05/2021 11:57,423,Most weeks,Most weeks,48,Male,-99,"Undergraduate degree (BSc, BA)",50,1,Against,Against
56,1658936293509,27/07/2022 15:38:13,1658936293536,1,27/07/2022 16:38:13,94050,2,task-j4ag,NA,23334856,6847677,NA,complete,NA,62e15accf9f0d9dd6b748e7e,computer,Desktop or Laptop,Windows 10,Chrome 103.0.0.0,1920x1080,1920x937,NA,ITT Ratings,3,For,5,NA,NA,NA,ACCEPT,NA,NA,NA,NA,NA,NA,batch5hes,batch5hes,6,54,1,Screen 1,continueButton,response_rating_scale_likert_active,4281.4000000059605,NA,NA,Somewhat Agree,1,0,1,0,NA,NA,NA,NA,1,statements,New variants may arise and that would invalidate old vaccines already taken,1,17/05/2021 11:29,17/05/2021 11:43,849,Rarely,Most months,29,Female,-99,"Postgraduate degree (MSc, MA, MPhil)",41,3,Against,Against
57,1658936295335,27/07/2022 15:38:15,1658936295368,1,27/07/2022 16:38:15,94050,2,task-j4ag,NA,23334856,6847677,NA,complete,NA,62e15accf9f0d9dd6b748e7e,computer,Desktop or Laptop,Windows 10,Chrome 103.0.0.0,1920x1080,1920x937,NA,ITT Ratings,3,For,5,NA,NA,NA,ACCEPT,NA,NA,NA,NA,NA,NA,batch5hes,batch5hes,24,55,1,Screen 1,continueButton,response_rating_scale_likert_active,1824.4000000059605,NA,NA,Somewhat Disagree,1,0,1,0,NA,NA,NA,NA,1,statements,Don't feel I need it,1,17/05/2021 11:36,17/05/2021 11:45,556,Rarely,Most weeks,26,Female,-99,"Undergraduate degree (BSc, BA)",44,3,Against,Against
58,1658936296812,27/07/2022 15:38:16,1658936296848,1,27/07/2022 16:38:16,94050,2,task-j4ag,NA,23334856,6847677,NA,complete,NA,62e15accf9f0d9dd6b748e7e,computer,Desktop or Laptop,Windows 10,Chrome 103.0.0.0,1920x1080,1920x937,NA,ITT Ratings,3,For,5,NA,NA,NA,ACCEPT,NA,NA,NA,NA,NA,NA,batch5hes,batch5hes,27,56,1,Screen 1,continueButton,response_rating_scale_likert_active,1473.4000000059605,NA,NA,Agree,1,0,1,0,NA,NA,NA,NA,1,statements,To protect family and friends,1,17/05/2021 11:36,17/05/2021 11:45,556,Rarely,Most weeks,26,Female,-99,"Undergraduate degree (BSc, BA)",44,3,Against,For
59,1658936301482,27/07/2022 15:38:21,1658936301520,1,27/07/2022 16:38:21,94050,2,task-j4ag,NA,23334856,6847677,NA,complete,NA,62e15accf9f0d9dd6b748e7e,computer,Desktop or Laptop,Windows 10,Chrome 103.0.0.0,1920x1080,1920x937,NA,ITT Ratings,3,For,5,NA,NA,NA,ACCEPT,NA,NA,NA,NA,NA,NA,batch5hes,batch5hes,3,57,1,Screen 1,continueButton,response_rating_scale_likert_active,4665.4000000059605,NA,NA,Somewhat Disagree,1,0,1,0,NA,NA,NA,NA,1,statements,We would like to check you are reading each argument carefully. Please select 'Somewhat Disagree' for this answer,1,NA,NA,NA,NA,NA,NA,NA,NA,NA,NA,check2,NA,NA
60,1658936304060,27/07/2022 15:38:24,1658936304088,1,27/07/2022 16:38:24,94050,2,task-j4ag,NA,23334856,6847677,NA,complete,NA,62e15accf9f0d9dd6b748e7e,computer,Desktop or Laptop,Windows 10,Chrome 103.0.0.0,1920x1080,1920x937,NA,ITT Ratings,3,For,5,NA,NA,NA,ACCEPT,NA,NA,NA,NA,NA,NA,batch5hes,batch5hes,16,58,1,Screen 1,continueButton,response_rating_scale_likert_active,2561.4000000059605,NA,NA,Somewhat Disagree,1,0,1,0,NA,NA,NA,NA,1,statements,possible unsafe side effects,1,17/05/2021 11:33,17/05/2021 11:44,686,Most weeks,Most months,25,Male,-99,A levels,43,1,Against,Against
61,1658936307206,27/07/2022 15:38:27,1658936307240,1,27/07/2022 16:38:27,94050,2,task-j4ag,NA,23334856,6847677,NA,complete,NA,62e15accf9f0d9dd6b748e7e,computer,Desktop or Laptop,Windows 10,Chrome 103.0.0.0,1920x1080,1920x937,NA,ITT Ratings,3,For,5,NA,NA,NA,ACCEPT,NA,NA,NA,NA,NA,NA,batch5hes,batch5hes,43,59,1,Screen 1,continueButton,response_rating_scale_likert_active,3144.6000000089407,NA,NA,Agree,1,0,1,0,NA,NA,NA,NA,1,statements,It will help protect vulnerable people,1,17/05/2021 11:49,17/05/2021 11:54,314,Rarely,Most days,27,Female,-99,"Undergraduate degree (BSc, BA)",47,1,Against,For
62,1658936308706,27/07/2022 15:38:28,1658936308744,1,27/07/2022 16:38:28,94050,2,task-j4ag,NA,23334856,6847677,NA,complete,NA,62e15accf9f0d9dd6b748e7e,computer,Desktop or Laptop,Windows 10,Chrome 103.0.0.0,1920x1080,1920x937,NA,ITT Ratings,3,For,5,NA,NA,NA,ACCEPT,NA,NA,NA,NA,NA,NA,batch5hes,batch5hes,28,60,1,Screen 1,continueButton,response_rating_scale_likert_active,1496.8999999910593,NA,NA,Disagree,1,0,1,0,NA,NA,NA,NA,1,statements,the vaccine is not safe,1,17/05/2021 11:33,17/05/2021 11:51,1071,Most weeks,A few times a year,34,Male,-99,"Undergraduate degree (BSc, BA)",45,1,Against,Against
63,1658936311985,27/07/2022 15:38:31,1658936312024,1,27/07/2022 16:38:32,94050,2,task-j4ag,NA,23334856,6847677,NA,complete,NA,62e15accf9f0d9dd6b748e7e,computer,Desktop or Laptop,Windows 10,Chrome 103.0.0.0,1920x1080,1920x937,NA,ITT Ratings,3,For,5,NA,NA,NA,ACCEPT,NA,NA,NA,NA,NA,NA,batch5hes,batch5hes,17,61,1,Screen 1,continueButton,response_rating_scale_likert_active,3274.800000011921,NA,NA,Disagree,1,0,1,0,NA,NA,NA,NA,1,statements,not knowing exactly whats in it,1,17/05/2021 11:33,17/05/2021 11:44,686,Most weeks,Most months,25,Male,-99,A levels,43,2,Against,Against
64,1658936316227,27/07/2022 15:38:36,1658936316264,1,27/07/2022 16:38:36,94050,2,task-j4ag,NA,23334856,6847677,NA,complete,NA,62e15accf9f0d9dd6b748e7e,computer,Desktop or Laptop,Windows 10,Chrome 103.0.0.0,1920x1080,1920x937,NA,ITT Ratings,3,For,5,NA,NA,NA,ACCEPT,NA,NA,NA,NA,NA,NA,batch5hes,batch5hes,47,62,1,Screen 1,continueButton,response_rating_scale_likert_active,4234.5,NA,NA,Disagree,1,0,1,0,NA,NA,NA,NA,1,statements,The side effects are being under reported.,1,17/05/2021 11:10,17/05/2021 11:56,2717,Rarely,Rarely,38,Male,-99,A levels,48,2,Against,Against
65,1658936316288,27/07/2022 15:38:36,1658936316268,1,27/07/2022 16:38:36,94050,2,task-j4ag,NA,23334856,6847677,NA,complete,NA,62e15accf9f0d9dd6b748e7e,computer,Desktop or Laptop,Windows 10,Chrome 103.0.0.0,1920x1080,1920x937,NA,ITT Ratings,3,For,5,NA,NA,NA,ACCEPT,NA,NA,NA,NA,NA,NA,batch5hes,NA,NA,END TASK,NA,NA,NA,NA,280097,NA,NA,NA,NA,0,1,0,NA,NA,NA,NA,NA,NA,NA,NA,NA,NA,NA,NA,NA,NA,NA,NA,NA,NA,NA,NA,NA
1,1658936428589,27/07/2022 15:40:28,1658936428470,1,27/07/2022 16:40:28,94050,2,task-j4ag,NA,23335027,6847729,NA,complete,NA,62e15c48f8b0ee3e0e7abd78,computer,Desktop or Laptop,Mac OS 10.15.6,Safari 15.5,834x1194,1194x716,NA,ITT Ratings,3,For,5,NA,NA,NA,ACCEPT,NA,NA,NA,NA,NA,NA,batch5hes,NA,NA,BEGIN TASK,NA,NA,NA,NA,NA,NA,NA,NA,NA,0,1,0,NA,NA,NA,NA,NA,NA,NA,NA,NA,NA,NA,NA,NA,NA,NA,NA,NA,NA,NA,NA,NA
2,1658936434993,27/07/2022 15:40:34,1658936434889,1,27/07/2022 16:40:34,94050,2,task-j4ag,NA,23335027,6847729,NA,complete,NA,62e15c48f8b0ee3e0e7abd78,computer,Desktop or Laptop,Mac OS 10.15.6,Safari 15.5,834x1194,1194x716,NA,ITT Ratings,3,For,5,NA,NA,NA,ACCEPT,NA,NA,NA,NA,NA,NA,batch5hes,batch5hes,1,1,1,Screen 1,advancementZone,continue_button,6389.000000000001,NA,NA,NA,NA,0,1,0,NA,NA,NA,NA,NA,instructions,NA,NA,NA,NA,NA,NA,NA,NA,NA,NA,NA,NA,NA,NA,NA
3,1658936439097,27/07/2022 15:40:39,1658936439000,1,27/07/2022 16:40:39,94050,2,task-j4ag,NA,23335027,6847729,NA,complete,NA,62e15c48f8b0ee3e0e7abd78,computer,Desktop or Laptop,Mac OS 10.15.6,Safari 15.5,834x1194,1194x716,NA,ITT Ratings,3,For,5,NA,NA,NA,ACCEPT,NA,NA,NA,NA,NA,NA,batch5hes,batch5hes,44,1,1,Screen 1,continueButton,response_rating_scale_likert_active,4090,NA,NA,Strongly Agree,1,0,1,0,NA,NA,NA,NA,1,statements,It has been approved so is safe,1,17/05/2021 11:49,17/05/2021 11:54,314,Rarely,Most days,27,Female,-99,"Undergraduate degree (BSc, BA)",47,2,Against,For
4,1658936442324,27/07/2022 15:40:42,1658936442239,1,27/07/2022 16:40:42,94050,2,task-j4ag,NA,23335027,6847729,NA,complete,NA,62e15c48f8b0ee3e0e7abd78,computer,Desktop or Laptop,Mac OS 10.15.6,Safari 15.5,834x1194,1194x716,NA,ITT Ratings,3,For,5,NA,NA,NA,ACCEPT,NA,NA,NA,NA,NA,NA,batch5hes,batch5hes,41,2,1,Screen 1,continueButton,response_rating_scale_likert_active,3221.999999999998,NA,NA,Strongly Disagree,1,0,1,0,NA,NA,NA,NA,1,statements,I am healthy and young so no benefit to me,1,17/05/2021 11:49,17/05/2021 11:54,314,Rarely,Most days,27,Female,-99,"Undergraduate degree (BSc, BA)",47,2,Against,Against
5,1658936444405,27/07/2022 15:40:44,1658936444308,1,27/07/2022 16:40:44,94050,2,task-j4ag,NA,23335027,6847729,NA,complete,NA,62e15c48f8b0ee3e0e7abd78,computer,Desktop or Laptop,Mac OS 10.15.6,Safari 15.5,834x1194,1194x716,NA,ITT Ratings,3,For,5,NA,NA,NA,ACCEPT,NA,NA,NA,NA,NA,NA,batch5hes,batch5hes,29,3,1,Screen 1,continueButton,response_rating_scale_likert_active,2052,NA,NA,Strongly Disagree,1,0,1,0,NA,NA,NA,NA,1,statements,it was developed too fast,1,17/05/2021 11:33,17/05/2021 11:51,1071,Most weeks,A few times a year,34,Male,-99,"Undergraduate degree (BSc, BA)",45,2,Against,Against
6,1658936448155,27/07/2022 15:40:48,1658936448070,1,27/07/2022 16:40:48,94050,2,task-j4ag,NA,23335027,6847729,NA,complete,NA,62e15c48f8b0ee3e0e7abd78,computer,Desktop or Laptop,Mac OS 10.15.6,Safari 15.5,834x1194,1194x716,NA,ITT Ratings,3,For,5,NA,NA,NA,ACCEPT,NA,NA,NA,NA,NA,NA,batch5hes,batch5hes,51,4,1,Screen 1,continueButton,response_rating_scale_likert_active,3746,NA,NA,Strongly Agree,1,0,1,0,NA,NA,NA,NA,1,statements,I can interact with elderly members of my family.,1,17/05/2021 11:10,17/05/2021 11:56,2717,Rarely,Rarely,38,Male,-99,A levels,48,3,Against,For
7,1658936449921,27/07/2022 15:40:49,1658936449824,1,27/07/2022 16:40:49,94050,2,task-j4ag,NA,23335027,6847729,NA,complete,NA,62e15c48f8b0ee3e0e7abd78,computer,Desktop or Laptop,Mac OS 10.15.6,Safari 15.5,834x1194,1194x716,NA,ITT Ratings,3,For,5,NA,NA,NA,ACCEPT,NA,NA,NA,NA,NA,NA,batch5hes,batch5hes,58,5,1,Screen 1,continueButton,response_rating_scale_likert_active,1736,NA,NA,Strongly Disagree,1,0,1,0,NA,NA,NA,NA,1,statements,It is not safe and has not been tested properly,1,17/05/2021 11:50,17/05/2021 11:57,423,Most weeks,Most weeks,48,Male,-99,"Undergraduate degree (BSc, BA)",50,1,Against,Against
8,1658936451676,27/07/2022 15:40:51,1658936451586,1,27/07/2022 16:40:51,94050,2,task-j4ag,NA,23335027,6847729,NA,complete,NA,62e15c48f8b0ee3e0e7abd78,computer,Desktop or Laptop,Mac OS 10.15.6,Safari 15.5,834x1194,1194x716,NA,ITT Ratings,3,For,5,NA,NA,NA,ACCEPT,NA,NA,NA,NA,NA,NA,batch5hes,batch5hes,40,6,1,Screen 1,continueButton,response_rating_scale_likert_active,1743,NA,NA,Strongly Disagree,1,0,1,0,NA,NA,NA,NA,1,statements,It's been rushed so I am not ready to take it,1,17/05/2021 11:49,17/05/2021 11:54,314,Rarely,Most days,27,Female,-99,"Undergraduate degree (BSc, BA)",47,1,Against,Against
9,1658936453514,27/07/2022 15:40:53,1658936453433,1,27/07/2022 16:40:53,94050,2,task-j4ag,NA,23335027,6847729,NA,complete,NA,62e15c48f8b0ee3e0e7abd78,computer,Desktop or Laptop,Mac OS 10.15.6,Safari 15.5,834x1194,1194x716,NA,ITT Ratings,3,For,5,NA,NA,NA,ACCEPT,NA,NA,NA,NA,NA,NA,batch5hes,batch5hes,22,7,1,Screen 1,continueButton,response_rating_scale_likert_active,1827,NA,NA,Strongly Disagree,1,0,1,0,NA,NA,NA,NA,1,statements,Pregnant and dont want to risk my unborn childs life,1,17/05/2021 11:36,17/05/2021 11:45,556,Rarely,Most weeks,26,Female,-99,"Undergraduate degree (BSc, BA)",44,1,Against,Against
10,1658936455983,27/07/2022 15:40:55,1658936455896,1,27/07/2022 16:40:55,94050,2,task-j4ag,NA,23335027,6847729,NA,complete,NA,62e15c48f8b0ee3e0e7abd78,computer,Desktop or Laptop,Mac OS 10.15.6,Safari 15.5,834x1194,1194x716,NA,ITT Ratings,3,For,5,NA,NA,NA,ACCEPT,NA,NA,NA,NA,NA,NA,batch5hes,batch5hes,9,8,1,Screen 1,continueButton,response_rating_scale_likert_active,2446.0000000000036,NA,NA,Strongly Agree,1,0,1,0,NA,NA,NA,NA,1,statements,I want to be able to visit vulnerable friends and loved ones without being a risk factor to them,1,17/05/2021 11:29,17/05/2021 11:43,849,Rarely,Most months,29,Female,-99,"Postgraduate degree (MSc, MA, MPhil)",41,3,Against,For
11,1658936457660,27/07/2022 15:40:57,1658936457557,1,27/07/2022 16:40:57,94050,2,task-j4ag,NA,23335027,6847729,NA,complete,NA,62e15c48f8b0ee3e0e7abd78,computer,Desktop or Laptop,Mac OS 10.15.6,Safari 15.5,834x1194,1194x716,NA,ITT Ratings,3,For,5,NA,NA,NA,ACCEPT,NA,NA,NA,NA,NA,NA,batch5hes,batch5hes,31,9,1,Screen 1,continueButton,response_rating_scale_likert_active,1647,NA,NA,Strongly Agree,1,0,1,0,NA,NA,NA,NA,1,statements,I trust the health care officials,1,17/05/2021 11:33,17/05/2021 11:51,1071,Most weeks,A few times a year,34,Male,-99,"Undergraduate degree (BSc, BA)",45,1,Against,For
12,1658936458977,27/07/2022 15:40:58,1658936458891,1,27/07/2022 16:40:58,94050,2,task-j4ag,NA,23335027,6847729,NA,complete,NA,62e15c48f8b0ee3e0e7abd78,computer,Desktop or Laptop,Mac OS 10.15.6,Safari 15.5,834x1194,1194x716,NA,ITT Ratings,3,For,5,NA,NA,NA,ACCEPT,NA,NA,NA,NA,NA,NA,batch5hes,batch5hes,21,10,1,Screen 1,continueButton,response_rating_scale_likert_active,1317.9999999999964,NA,NA,Strongly Agree,1,0,1,0,NA,NA,NA,NA,1,statements,thinks it necessary,1,17/05/2021 11:33,17/05/2021 11:44,686,Most weeks,Most months,25,Male,-99,A levels,43,3,Against,For
13,1658936461714,27/07/2022 15:41:01,1658936461626,1,27/07/2022 16:41:01,94050,2,task-j4ag,NA,23335027,6847729,NA,complete,NA,62e15c48f8b0ee3e0e7abd78,computer,Desktop or Laptop,Mac OS 10.15.6,Safari 15.5,834x1194,1194x716,NA,ITT Ratings,3,For,5,NA,NA,NA,ACCEPT,NA,NA,NA,NA,NA,NA,batch5hes,batch5hes,12,11,1,Screen 1,continueButton,response_rating_scale_likert_active,2720.0000000000073,NA,NA,Strongly Disagree,1,0,1,0,NA,NA,NA,NA,1,statements,I am not sure about the testing and long term effects (both positive and negative) of the vaccine.,1,17/05/2021 11:39,17/05/2021 11:43,295,Never,Rarely,24,Male,-99,"Undergraduate degree (BSc, BA)",42,3,Against,Against
14,1658936462977,27/07/2022 15:41:02,1658936462887,1,27/07/2022 16:41:02,94050,2,task-j4ag,NA,23335027,6847729,NA,complete,NA,62e15c48f8b0ee3e0e7abd78,computer,Desktop or Laptop,Mac OS 10.15.6,Safari 15.5,834x1194,1194x716,NA,ITT Ratings,3,For,5,NA,NA,NA,ACCEPT,NA,NA,NA,NA,NA,NA,batch5hes,batch5hes,61,12,1,Screen 1,continueButton,response_rating_scale_likert_active,1244,NA,NA,Strongly Agree,1,0,1,0,NA,NA,NA,NA,1,statements,It will protect me,1,17/05/2021 11:50,17/05/2021 11:57,423,Most weeks,Most weeks,48,Male,-99,"Undergraduate degree (BSc, BA)",50,1,Against,For
15,1658936466087,27/07/2022 15:41:06,1658936466002,1,27/07/2022 16:41:06,94050,2,task-j4ag,NA,23335027,6847729,NA,complete,NA,62e15c48f8b0ee3e0e7abd78,computer,Desktop or Laptop,Mac OS 10.15.6,Safari 15.5,834x1194,1194x716,NA,ITT Ratings,3,For,5,NA,NA,NA,ACCEPT,NA,NA,NA,NA,NA,NA,batch5hes,batch5hes,14,13,1,Screen 1,continueButton,response_rating_scale_likert_active,3099,NA,NA,Strongly Agree,1,0,1,0,NA,NA,NA,NA,1,statements,I want to prevent my ability to infect others,1,17/05/2021 11:39,17/05/2021 11:43,295,Never,Rarely,24,Male,-99,"Undergraduate degree (BSc, BA)",42,2,Against,For
16,1658936467679,27/07/2022 15:41:07,1658936467597,1,27/07/2022 16:41:07,94050,2,task-j4ag,NA,23335027,6847729,NA,complete,NA,62e15c48f8b0ee3e0e7abd78,computer,Desktop or Laptop,Mac OS 10.15.6,Safari 15.5,834x1194,1194x716,NA,ITT Ratings,3,For,5,NA,NA,NA,ACCEPT,NA,NA,NA,NA,NA,NA,batch5hes,batch5hes,59,14,1,Screen 1,continueButton,response_rating_scale_likert_active,1579,NA,NA,Strongly Disagree,1,0,1,0,NA,NA,NA,NA,1,statements,It is not needed as there is no threat,1,17/05/2021 11:50,17/05/2021 11:57,423,Most weeks,Most weeks,48,Male,-99,"Undergraduate degree (BSc, BA)",50,2,Against,Against
17,1658936469110,27/07/2022 15:41:09,1658936469037,1,27/07/2022 16:41:09,94050,2,task-j4ag,NA,23335027,6847729,NA,complete,NA,62e15c48f8b0ee3e0e7abd78,computer,Desktop or Laptop,Mac OS 10.15.6,Safari 15.5,834x1194,1194x716,NA,ITT Ratings,3,For,5,NA,NA,NA,ACCEPT,NA,NA,NA,NA,NA,NA,batch5hes,batch5hes,55,15,1,Screen 1,continueButton,response_rating_scale_likert_active,1423,NA,NA,Strongly Agree,1,0,1,0,NA,NA,NA,NA,1,statements,I want to protect my family and friends,1,17/05/2021 11:30,17/05/2021 11:56,1558,Rarely,Most months,35,Male,-99,"GCSEs,A levels,Undergraduate degree (BSc, BA)",49,1,Against,For
18,1658936470239,27/07/2022 15:41:10,1658936470156,1,27/07/2022 16:41:10,94050,2,task-j4ag,NA,23335027,6847729,NA,complete,NA,62e15c48f8b0ee3e0e7abd78,computer,Desktop or Laptop,Mac OS 10.15.6,Safari 15.5,834x1194,1194x716,NA,ITT Ratings,3,For,5,NA,NA,NA,ACCEPT,NA,NA,NA,NA,NA,NA,batch5hes,batch5hes,33,16,1,Screen 1,continueButton,response_rating_scale_likert_active,1104,NA,NA,Strongly Agree,1,0,1,0,NA,NA,NA,NA,1,statements,I believe it is safe,1,17/05/2021 11:33,17/05/2021 11:51,1071,Most weeks,A few times a year,34,Male,-99,"Undergraduate degree (BSc, BA)",45,3,Against,For
19,1658936473057,27/07/2022 15:41:13,1658936472966,1,27/07/2022 16:41:12,94050,2,task-j4ag,NA,23335027,6847729,NA,complete,NA,62e15c48f8b0ee3e0e7abd78,computer,Desktop or Laptop,Mac OS 10.15.6,Safari 15.5,834x1194,1194x716,NA,ITT Ratings,3,For,5,NA,NA,NA,ACCEPT,NA,NA,NA,NA,NA,NA,batch5hes,batch5hes,17,17,1,Screen 1,continueButton,response_rating_scale_likert_active,2794,NA,NA,Strongly Disagree,1,0,1,0,NA,NA,NA,NA,1,statements,not knowing exactly whats in it,1,17/05/2021 11:33,17/05/2021 11:44,686,Most weeks,Most months,25,Male,-99,A levels,43,2,Against,Against
20,1658936478398,27/07/2022 15:41:18,1658936478315,1,27/07/2022 16:41:18,94050,2,task-j4ag,NA,23335027,6847729,NA,complete,NA,62e15c48f8b0ee3e0e7abd78,computer,Desktop or Laptop,Mac OS 10.15.6,Safari 15.5,834x1194,1194x716,NA,ITT Ratings,3,For,5,NA,NA,NA,ACCEPT,NA,NA,NA,NA,NA,NA,batch5hes,batch5hes,54,18,1,Screen 1,continueButton,response_rating_scale_likert_active,5331,NA,NA,Strongly Disagree,1,0,1,0,NA,NA,NA,NA,1,statements,Companies offering incentives to get the vaccine. Videos showing metal sticking to the arms of people in the position where the jab was taken- feels very suspect and untrustworthy promotion.,1,17/05/2021 11:30,17/05/2021 11:56,1558,Rarely,Most months,35,Male,-99,"GCSEs,A levels,Undergraduate degree (BSc, BA)",49,3,Against,Against
21,1658936480923,27/07/2022 15:41:20,1658936480834,1,27/07/2022 16:41:20,94050,2,task-j4ag,NA,23335027,6847729,NA,complete,NA,62e15c48f8b0ee3e0e7abd78,computer,Desktop or Laptop,Mac OS 10.15.6,Safari 15.5,834x1194,1194x716,NA,ITT Ratings,3,For,5,NA,NA,NA,ACCEPT,NA,NA,NA,NA,NA,NA,batch5hes,batch5hes,6,19,1,Screen 1,continueButton,response_rating_scale_likert_active,2504,NA,NA,Strongly Disagree,1,0,1,0,NA,NA,NA,NA,1,statements,New variants may arise and that would invalidate old vaccines already taken,1,17/05/2021 11:29,17/05/2021 11:43,849,Rarely,Most months,29,Female,-99,"Postgraduate degree (MSc, MA, MPhil)",41,3,Against,Against
22,1658936483076,27/07/2022 15:41:23,1658936482985,1,27/07/2022 16:41:22,94050,2,task-j4ag,NA,23335027,6847729,NA,complete,NA,62e15c48f8b0ee3e0e7abd78,computer,Desktop or Laptop,Mac OS 10.15.6,Safari 15.5,834x1194,1194x716,NA,ITT Ratings,3,For,5,NA,NA,NA,ACCEPT,NA,NA,NA,NA,NA,NA,batch5hes,batch5hes,5,20,1,Screen 1,continueButton,response_rating_scale_likert_active,2136,NA,NA,Strongly Disagree,1,0,1,0,NA,NA,NA,NA,1,statements,It was made too quickly and compromises to its integrity may have been made,1,17/05/2021 11:29,17/05/2021 11:43,849,Rarely,Most months,29,Female,-99,"Postgraduate degree (MSc, MA, MPhil)",41,2,Against,Against
23,1658936484265,27/07/2022 15:41:24,1658936484176,1,27/07/2022 16:41:24,94050,2,task-j4ag,NA,23335027,6847729,NA,complete,NA,62e15c48f8b0ee3e0e7abd78,computer,Desktop or Laptop,Mac OS 10.15.6,Safari 15.5,834x1194,1194x716,NA,ITT Ratings,3,For,5,NA,NA,NA,ACCEPT,NA,NA,NA,NA,NA,NA,batch5hes,batch5hes,32,21,1,Screen 1,continueButton,response_rating_scale_likert_active,1176,NA,NA,Strongly Agree,1,0,1,0,NA,NA,NA,NA,1,statements,I want to be protected,1,17/05/2021 11:33,17/05/2021 11:51,1071,Most weeks,A few times a year,34,Male,-99,"Undergraduate degree (BSc, BA)",45,2,Against,For
24,1658936487660,27/07/2022 15:41:27,1658936487570,1,27/07/2022 16:41:27,94050,2,task-j4ag,NA,23335027,6847729,NA,complete,NA,62e15c48f8b0ee3e0e7abd78,computer,Desktop or Laptop,Mac OS 10.15.6,Safari 15.5,834x1194,1194x716,NA,ITT Ratings,3,For,5,NA,NA,NA,ACCEPT,NA,NA,NA,NA,NA,NA,batch5hes,batch5hes,53,22,1,Screen 1,continueButton,response_rating_scale_likert_active,3379,NA,NA,Strongly Disagree,1,0,1,0,NA,NA,NA,NA,1,statements,"Nanoparticles within the vaccine, MRNA changing DNA within the human body. Multiple videos on the internet showing adverse reactions to the vaccine",1,17/05/2021 11:30,17/05/2021 11:56,1558,Rarely,Most months,35,Male,-99,"GCSEs,A levels,Undergraduate degree (BSc, BA)",49,2,Against,Against
25,1658936489607,27/07/2022 15:41:29,1658936489526,1,27/07/2022 16:41:29,94050,2,task-j4ag,NA,23335027,6847729,NA,complete,NA,62e15c48f8b0ee3e0e7abd78,computer,Desktop or Laptop,Mac OS 10.15.6,Safari 15.5,834x1194,1194x716,NA,ITT Ratings,3,For,5,NA,NA,NA,ACCEPT,NA,NA,NA,NA,NA,NA,batch5hes,batch5hes,18,23,1,Screen 1,continueButton,response_rating_scale_likert_active,1942,NA,NA,Strongly Disagree,1,0,1,0,NA,NA,NA,NA,1,statements,can cause problems that werent there initially,1,17/05/2021 11:33,17/05/2021 11:44,686,Most weeks,Most months,25,Male,-99,A levels,43,3,Against,Against
26,1658936493587,27/07/2022 15:41:33,1658936493497,1,27/07/2022 16:41:33,94050,2,task-j4ag,NA,23335027,6847729,NA,complete,NA,62e15c48f8b0ee3e0e7abd78,computer,Desktop or Laptop,Mac OS 10.15.6,Safari 15.5,834x1194,1194x716,NA,ITT Ratings,3,For,5,NA,NA,NA,ACCEPT,NA,NA,NA,NA,NA,NA,batch5hes,batch5hes,36,24,1,Screen 1,continueButton,response_rating_scale_likert_active,3956,NA,NA,Strongly Disagree,1,0,1,0,NA,NA,NA,NA,1,statements,i have had covid already,1,17/05/2021 11:43,17/05/2021 11:53,620,Most weeks,Most days,51,Female,-99,GCSEs,46,3,Against,Against
27,1658936495993,27/07/2022 15:41:35,1658936495910,1,27/07/2022 16:41:35,94050,2,task-j4ag,NA,23335027,6847729,NA,complete,NA,62e15c48f8b0ee3e0e7abd78,computer,Desktop or Laptop,Mac OS 10.15.6,Safari 15.5,834x1194,1194x716,NA,ITT Ratings,3,For,5,NA,NA,NA,ACCEPT,NA,NA,NA,NA,NA,NA,batch5hes,batch5hes,52,25,1,Screen 1,continueButton,response_rating_scale_likert_active,2394,NA,NA,Strongly Disagree,1,0,1,0,NA,NA,NA,NA,1,statements,"I don't want it because it has been massed produced under a year, when it takes on average 10 years to produce a vaccine for public release.",1,17/05/2021 11:30,17/05/2021 11:56,1558,Rarely,Most months,35,Male,-99,"GCSEs,A levels,Undergraduate degree (BSc, BA)",49,1,Against,Against
28,1658936497853,27/07/2022 15:41:37,1658936497758,1,27/07/2022 16:41:37,94050,2,task-j4ag,NA,23335027,6847729,NA,complete,NA,62e15c48f8b0ee3e0e7abd78,computer,Desktop or Laptop,Mac OS 10.15.6,Safari 15.5,834x1194,1194x716,NA,ITT Ratings,3,For,5,NA,NA,NA,ACCEPT,NA,NA,NA,NA,NA,NA,batch5hes,batch5hes,50,26,1,Screen 1,continueButton,response_rating_scale_likert_active,1832,NA,NA,Strongly Agree,1,0,1,0,NA,NA,NA,NA,1,statements,Getting vaccinated helps reduce the spread of the virus.,1,17/05/2021 11:10,17/05/2021 11:56,2717,Rarely,Rarely,38,Male,-99,A levels,48,2,Against,For
29,1658936498967,27/07/2022 15:41:38,1658936498881,1,27/07/2022 16:41:38,94050,2,task-j4ag,NA,23335027,6847729,NA,complete,NA,62e15c48f8b0ee3e0e7abd78,computer,Desktop or Laptop,Mac OS 10.15.6,Safari 15.5,834x1194,1194x716,NA,ITT Ratings,3,For,5,NA,NA,NA,ACCEPT,NA,NA,NA,NA,NA,NA,batch5hes,batch5hes,37,27,1,Screen 1,continueButton,response_rating_scale_likert_active,1108,NA,NA,Strongly Agree,1,0,1,0,NA,NA,NA,NA,1,statements,i want to protect myself,1,17/05/2021 11:43,17/05/2021 11:53,620,Most weeks,Most days,51,Female,-99,GCSEs,46,1,Against,For
30,1658936499804,27/07/2022 15:41:39,1658936499717,1,27/07/2022 16:41:39,94050,2,task-j4ag,NA,23335027,6847729,NA,complete,NA,62e15c48f8b0ee3e0e7abd78,computer,Desktop or Laptop,Mac OS 10.15.6,Safari 15.5,834x1194,1194x716,NA,ITT Ratings,3,For,5,NA,NA,NA,ACCEPT,NA,NA,NA,NA,NA,NA,batch5hes,batch5hes,38,28,1,Screen 1,continueButton,response_rating_scale_likert_active,821,NA,NA,Strongly Agree,1,0,1,0,NA,NA,NA,NA,1,statements,i want to protect others,1,17/05/2021 11:43,17/05/2021 11:53,620,Most weeks,Most days,51,Female,-99,GCSEs,46,2,Against,For
31,1658936501470,27/07/2022 15:41:41,1658936501379,1,27/07/2022 16:41:41,94050,2,task-j4ag,NA,23335027,6847729,NA,complete,NA,62e15c48f8b0ee3e0e7abd78,computer,Desktop or Laptop,Mac OS 10.15.6,Safari 15.5,834x1194,1194x716,NA,ITT Ratings,3,For,5,NA,NA,NA,ACCEPT,NA,NA,NA,NA,NA,NA,batch5hes,batch5hes,45,29,1,Screen 1,continueButton,response_rating_scale_likert_active,1645.9999999999854,NA,NA,Strongly Agree,1,0,1,0,NA,NA,NA,NA,1,statements,The more people that are vaccinated the quicker things will return to normal,1,17/05/2021 11:49,17/05/2021 11:54,314,Rarely,Most days,27,Female,-99,"Undergraduate degree (BSc, BA)",47,3,Against,For
32,1658936502822,27/07/2022 15:41:42,1658936502741,1,27/07/2022 16:41:42,94050,2,task-j4ag,NA,23335027,6847729,NA,complete,NA,62e15c48f8b0ee3e0e7abd78,computer,Desktop or Laptop,Mac OS 10.15.6,Safari 15.5,834x1194,1194x716,NA,ITT Ratings,3,For,5,NA,NA,NA,ACCEPT,NA,NA,NA,NA,NA,NA,batch5hes,batch5hes,57,30,1,Screen 1,continueButton,response_rating_scale_likert_active,1348.0000000000146,NA,NA,Strongly Agree,1,0,1,0,NA,NA,NA,NA,1,statements,I want to protect myself from covid 19,1,17/05/2021 11:30,17/05/2021 11:56,1558,Rarely,Most months,35,Male,-99,"GCSEs,A levels,Undergraduate degree (BSc, BA)",49,3,Against,For
33,1658936504695,27/07/2022 15:41:44,1658936504608,1,27/07/2022 16:41:44,94050,2,task-j4ag,NA,23335027,6847729,NA,complete,NA,62e15c48f8b0ee3e0e7abd78,computer,Desktop or Laptop,Mac OS 10.15.6,Safari 15.5,834x1194,1194x716,NA,ITT Ratings,3,For,5,NA,NA,NA,ACCEPT,NA,NA,NA,NA,NA,NA,batch5hes,batch5hes,8,31,1,Screen 1,continueButton,response_rating_scale_likert_active,1851.0000000000143,NA,NA,Strongly Agree,1,0,1,0,NA,NA,NA,NA,1,statements,I am tired of lockdown,1,17/05/2021 11:29,17/05/2021 11:43,849,Rarely,Most months,29,Female,-99,"Postgraduate degree (MSc, MA, MPhil)",41,2,Against,For
34,1658936506939,27/07/2022 15:41:46,1658936506852,1,27/07/2022 16:41:46,94050,2,task-j4ag,NA,23335027,6847729,NA,complete,NA,62e15c48f8b0ee3e0e7abd78,computer,Desktop or Laptop,Mac OS 10.15.6,Safari 15.5,834x1194,1194x716,NA,ITT Ratings,3,For,5,NA,NA,NA,ACCEPT,NA,NA,NA,NA,NA,NA,batch5hes,batch5hes,11,32,1,Screen 1,continueButton,response_rating_scale_likert_active,2229.9999999999854,NA,NA,Strongly Disagree,1,0,1,0,NA,NA,NA,NA,1,statements,"I am not overweight or obese, nor have any underlying health conditions",1,17/05/2021 11:39,17/05/2021 11:43,295,Never,Rarely,24,Male,-99,"Undergraduate degree (BSc, BA)",42,2,Against,Against
35,1658936508659,27/07/2022 15:41:48,1658936508586,1,27/07/2022 16:41:48,94050,2,task-j4ag,NA,23335027,6847729,NA,complete,NA,62e15c48f8b0ee3e0e7abd78,computer,Desktop or Laptop,Mac OS 10.15.6,Safari 15.5,834x1194,1194x716,NA,ITT Ratings,3,For,5,NA,NA,NA,ACCEPT,NA,NA,NA,NA,NA,NA,batch5hes,batch5hes,63,33,1,Screen 1,continueButton,response_rating_scale_likert_active,1717,NA,NA,Strongly Agree,1,0,1,0,NA,NA,NA,NA,1,statements,It will mean I can meet family members,1,17/05/2021 11:50,17/05/2021 11:57,423,Most weeks,Most weeks,48,Male,-99,"Undergraduate degree (BSc, BA)",50,3,Against,For
