Event.Index,UTC.Timestamp,UTC.Date,Local.Timestamp,Local.Timezone,Local.Date,Experiment.ID,Experiment.Version,Tree.Node.Key,Repeat.Key,Schedule.ID,Participant.Private.ID,Participant.Starting.Group,Participant.Status,Participant.Completion.Code,Participant.External.Session.ID,Participant.Device.Type,Participant.Device,Participant.OS,Participant.Browser,Participant.Monitor.Size,Participant.Viewport.Size,Checkpoint,Task.Name,Task.Version,branch.69an,randomiser.8vg2,quota.bqtt,quota.rycs,quota.wtfi,quota.usve,quota.zgic,quota.f3yz,quota.r9vy,quota.tfqq,quota.3dga,quota.dtj6,Spreadsheet,Spreadsheet.Name,Spreadsheet.Row,Trial.Number,Screen.Number,Screen.Name,Zone.Name,Zone.Type,Reaction.Time,Reaction.Onset,Response.Type,Response,Attempt,Correct,Incorrect,Dishonest,X.Coordinate,Y.Coordinate,Timed.Out,randomise_blocks,randomise_trials,display,Arguments,ShowProgressBar,StartDate,EndDate,Duration,discuss_1,read_1,age,gender,gender_4_TEXT,edu,ID,arg_ID,Position,Arg_Position
1,1658940000000,27/07/2022 15:40,1658940000000,1,27/07/2022 16:40,94050,2,task-k2dt,NA,23335022,6847730,NA,complete,NA,62e15c4a8a31447bd0c73670,computer,Desktop or Laptop,Mac OS 10.15.7,Chrome 102.0.0.0,1440x900,1440x821,NA,ITT Ratings,3,For,7,NA,NA,NA,NA,NA,ACCEPT,NA,NA,NA,NA,batch7hes,NA,NA,BEGIN TASK,NA,NA,NA,NA,NA,NA,NA,NA,NA,0,1,0,NA,NA,NA,NA,NA,NA,NA,NA,NA,NA,NA,NA,NA,NA,NA,NA,NA,NA,NA,NA,NA
2,1658940000000,27/07/2022 15:40,1658940000000,1,27/07/2022 16:40,94050,2,task-k2dt,NA,23335022,6847730,NA,complete,NA,62e15c4a8a31447bd0c73670,computer,Desktop or Laptop,Mac OS 10.15.7,Chrome 102.0.0.0,1440x900,1440x821,NA,ITT Ratings,3,For,7,NA,NA,NA,NA,NA,ACCEPT,NA,NA,NA,NA,batch7hes,batch7hes,1,1,1,Screen 1,advancementZone,continue_button,6128,NA,NA,NA,NA,0,1,0,NA,NA,NA,NA,NA,instructions,NA,NA,NA,NA,NA,NA,NA,NA,NA,NA,NA,NA,NA,NA,NA
3,1658940000000,27/07/2022 15:40,1658940000000,1,27/07/2022 16:40,94050,2,task-k2dt,NA,23335022,6847730,NA,complete,NA,62e15c4a8a31447bd0c73670,computer,Desktop or Laptop,Mac OS 10.15.7,Chrome 102.0.0.0,1440x900,1440x821,NA,ITT Ratings,3,For,7,NA,NA,NA,NA,NA,ACCEPT,NA,NA,NA,NA,batch7hes,batch7hes,29,1,1,Screen 1,continueButton,response_rating_scale_likert_active,7140.6,NA,NA,Somewhat Disagree,1,0,1,0,NA,NA,NA,NA,1,statements,It has not been developed long enough to see the reactions or effectiveness.,1,17/05/2021 12:11,17/05/2021 12:24,783,Most months,Most months,27,Female,-99,"Undergraduate degree (BSc, BA)",65,2,Against,Against
4,1658940000000,27/07/2022 15:40,1658940000000,1,27/07/2022 16:40,94050,2,task-k2dt,NA,23335022,6847730,NA,complete,NA,62e15c4a8a31447bd0c73670,computer,Desktop or Laptop,Mac OS 10.15.7,Chrome 102.0.0.0,1440x900,1440x821,NA,ITT Ratings,3,For,7,NA,NA,NA,NA,NA,ACCEPT,NA,NA,NA,NA,batch7hes,batch7hes,63,2,1,Screen 1,continueButton,response_rating_scale_likert_active,13419,NA,NA,Somewhat Disagree,1,0,1,0,NA,NA,NA,NA,1,statements,Because I think life will return to normal but loads vaccinated and nothing changes,1,17/05/2021 12:18,17/05/2021 12:35,1078,Never,Never,34,Female,-99,No formal qualifications,70,3,Against,For
5,1658940000000,27/07/2022 15:40,1658940000000,1,27/07/2022 16:40,94050,2,task-k2dt,NA,23335022,6847730,NA,complete,NA,62e15c4a8a31447bd0c73670,computer,Desktop or Laptop,Mac OS 10.15.7,Chrome 102.0.0.0,1440x900,1440x821,NA,ITT Ratings,3,For,7,NA,NA,NA,NA,NA,ACCEPT,NA,NA,NA,NA,batch7hes,batch7hes,52,3,1,Screen 1,continueButton,response_rating_scale_likert_active,2576.5,NA,NA,Disagree,1,0,1,0,NA,NA,NA,NA,1,statements,I think it is dangerous,1,17/05/2021 12:30,17/05/2021 12:35,345,Most days,Most days,53,Female,-99,"GCSEs,Vocational Training / Apprenticeship",69,1,Against,Against
6,1658940000000,27/07/2022 15:40,1658940000000,1,27/07/2022 16:40,94050,2,task-k2dt,NA,23335022,6847730,NA,complete,NA,62e15c4a8a31447bd0c73670,computer,Desktop or Laptop,Mac OS 10.15.7,Chrome 102.0.0.0,1440x900,1440x821,NA,ITT Ratings,3,For,7,NA,NA,NA,NA,NA,ACCEPT,NA,NA,NA,NA,batch7hes,batch7hes,23,4,1,Screen 1,continueButton,response_rating_scale_likert_active,2899.6,NA,NA,Disagree,1,0,1,0,NA,NA,NA,NA,1,statements,Worried about chance of serious side affects,1,17/05/2021 12:03,17/05/2021 12:23,1164,Most weeks,Most days,34,Male,-99,A levels,64,2,Against,Against
7,1658940000000,27/07/2022 15:40,1658940000000,1,27/07/2022 16:40,94050,2,task-k2dt,NA,23335022,6847730,NA,complete,NA,62e15c4a8a31447bd0c73670,computer,Desktop or Laptop,Mac OS 10.15.7,Chrome 102.0.0.0,1440x900,1440x821,NA,ITT Ratings,3,For,7,NA,NA,NA,NA,NA,ACCEPT,NA,NA,NA,NA,batch7hes,batch7hes,37,5,1,Screen 1,continueButton,response_rating_scale_likert_active,4112,NA,NA,Disagree,1,0,1,0,NA,NA,NA,NA,1,statements,Less likely to get it,1,17/05/2021 12:21,17/05/2021 12:30,549,Most months,Most months,27,Female,-99,A levels,66,1,Against,For
8,1658940000000,27/07/2022 15:41,1658940000000,1,27/07/2022 16:41,94050,2,task-k2dt,NA,23335022,6847730,NA,complete,NA,62e15c4a8a31447bd0c73670,computer,Desktop or Laptop,Mac OS 10.15.7,Chrome 102.0.0.0,1440x900,1440x821,NA,ITT Ratings,3,For,7,NA,NA,NA,NA,NA,ACCEPT,NA,NA,NA,NA,batch7hes,batch7hes,20,6,1,Screen 1,continueButton,response_rating_scale_likert_active,4169.2,NA,NA,Disagree,1,0,1,0,NA,NA,NA,NA,1,statements,The research and development was too fast for a vaccine.,1,17/05/2021 12:08,17/05/2021 12:22,862,Rarely,Most months,20,Female,-99,A levels,63,2,Against,For
9,1658940000000,27/07/2022 15:41,1658940000000,1,27/07/2022 16:41,94050,2,task-k2dt,NA,23335022,6847730,NA,complete,NA,62e15c4a8a31447bd0c73670,computer,Desktop or Laptop,Mac OS 10.15.7,Chrome 102.0.0.0,1440x900,1440x821,NA,ITT Ratings,3,For,7,NA,NA,NA,NA,NA,ACCEPT,NA,NA,NA,NA,batch7hes,batch7hes,26,7,1,Screen 1,continueButton,response_rating_scale_likert_active,3315.3,NA,NA,Somewhat Agree,1,0,1,0,NA,NA,NA,NA,1,statements,Full confidence in the safety of the vaccination program,1,17/05/2021 12:03,17/05/2021 12:23,1164,Most weeks,Most days,34,Male,-99,A levels,64,2,Against,For
10,1658940000000,27/07/2022 15:41,1658940000000,1,27/07/2022 16:41,94050,2,task-k2dt,NA,23335022,6847730,NA,complete,NA,62e15c4a8a31447bd0c73670,computer,Desktop or Laptop,Mac OS 10.15.7,Chrome 102.0.0.0,1440x900,1440x821,NA,ITT Ratings,3,For,7,NA,NA,NA,NA,NA,ACCEPT,NA,NA,NA,NA,batch7hes,batch7hes,31,8,1,Screen 1,continueButton,response_rating_scale_likert_active,3239,NA,NA,Agree,1,0,1,0,NA,NA,NA,NA,1,statements,Don't want to spread the virus,1,17/05/2021 12:11,17/05/2021 12:24,783,Most months,Most months,27,Female,-99,"Undergraduate degree (BSc, BA)",65,1,Against,For
11,1658940000000,27/07/2022 15:41,1658940000000,1,27/07/2022 16:41,94050,2,task-k2dt,NA,23335022,6847730,NA,complete,NA,62e15c4a8a31447bd0c73670,computer,Desktop or Laptop,Mac OS 10.15.7,Chrome 102.0.0.0,1440x900,1440x821,NA,ITT Ratings,3,For,7,NA,NA,NA,NA,NA,ACCEPT,NA,NA,NA,NA,batch7hes,batch7hes,18,9,1,Screen 1,continueButton,response_rating_scale_likert_active,7046.1,NA,NA,Disagree,1,0,1,0,NA,NA,NA,NA,1,statements,The fast development was due to China sharing the COVID shape to the world so that it would reduce the time to research.,1,17/05/2021 12:08,17/05/2021 12:22,862,Rarely,Most months,20,Female,-99,A levels,63,3,Against,Against
12,1658940000000,27/07/2022 15:41,1658940000000,1,27/07/2022 16:41,94050,2,task-k2dt,NA,23335022,6847730,NA,complete,NA,62e15c4a8a31447bd0c73670,computer,Desktop or Laptop,Mac OS 10.15.7,Chrome 102.0.0.0,1440x900,1440x821,NA,ITT Ratings,3,For,7,NA,NA,NA,NA,NA,ACCEPT,NA,NA,NA,NA,batch7hes,batch7hes,9,10,1,Screen 1,continueButton,response_rating_scale_likert_active,3211.6,NA,NA,Agree,1,0,1,0,NA,NA,NA,NA,1,statements,To reduce the amount of deaths.,1,17/05/2021 12:13,17/05/2021 12:18,332,Rarely,Rarely,31,Male,-99,"Undergraduate degree (BSc, BA)",61,3,Against,For
13,1658940000000,27/07/2022 15:41,1658940000000,1,27/07/2022 16:41,94050,2,task-k2dt,NA,23335022,6847730,NA,complete,NA,62e15c4a8a31447bd0c73670,computer,Desktop or Laptop,Mac OS 10.15.7,Chrome 102.0.0.0,1440x900,1440x821,NA,ITT Ratings,3,For,7,NA,NA,NA,NA,NA,ACCEPT,NA,NA,NA,NA,batch7hes,batch7hes,57,11,1,Screen 1,continueButton,response_rating_scale_likert_active,2272.3,NA,NA,Agree,1,0,1,0,NA,NA,NA,NA,1,statements,I want to help stop the spread of the virus,1,17/05/2021 12:30,17/05/2021 12:35,345,Most days,Most days,53,Female,-99,"GCSEs,Vocational Training / Apprenticeship",69,3,Against,For
14,1658940000000,27/07/2022 15:41,1658940000000,1,27/07/2022 16:41,94050,2,task-k2dt,NA,23335022,6847730,NA,complete,NA,62e15c4a8a31447bd0c73670,computer,Desktop or Laptop,Mac OS 10.15.7,Chrome 102.0.0.0,1440x900,1440x821,NA,ITT Ratings,3,For,7,NA,NA,NA,NA,NA,ACCEPT,NA,NA,NA,NA,batch7hes,batch7hes,40,12,1,Screen 1,continueButton,response_rating_scale_likert_active,5594.6,NA,NA,Neither Agree nor Disagree,1,0,1,0,NA,NA,NA,NA,1,statements,Don't know the long term effects,1,17/05/2021 12:21,17/05/2021 12:33,726,Most months,A few times a year,21,Female,-99,A levels,67,1,Against,Against
15,1658940000000,27/07/2022 15:41,1658940000000,1,27/07/2022 16:41,94050,2,task-k2dt,NA,23335022,6847730,NA,complete,NA,62e15c4a8a31447bd0c73670,computer,Desktop or Laptop,Mac OS 10.15.7,Chrome 102.0.0.0,1440x900,1440x821,NA,ITT Ratings,3,For,7,NA,NA,NA,NA,NA,ACCEPT,NA,NA,NA,NA,batch7hes,batch7hes,22,13,1,Screen 1,continueButton,response_rating_scale_likert_active,6264.6,NA,NA,Somewhat Disagree,1,0,1,0,NA,NA,NA,NA,1,statements,Concern over a reaction to the vaccine,1,17/05/2021 12:03,17/05/2021 12:23,1164,Most weeks,Most days,34,Male,-99,A levels,64,1,Against,Against
16,1658940000000,27/07/2022 15:41,1658940000000,1,27/07/2022 16:41,94050,2,task-k2dt,NA,23335022,6847730,NA,complete,NA,62e15c4a8a31447bd0c73670,computer,Desktop or Laptop,Mac OS 10.15.7,Chrome 102.0.0.0,1440x900,1440x821,NA,ITT Ratings,3,For,7,NA,NA,NA,NA,NA,ACCEPT,NA,NA,NA,NA,batch7hes,batch7hes,17,14,1,Screen 1,continueButton,response_rating_scale_likert_active,8781.1,NA,NA,Agree,1,0,1,0,NA,NA,NA,NA,1,statements,Most vaccines have side effects such as headaches and muscle aches so it is the same with eh COVID vaccines.,1,17/05/2021 12:08,17/05/2021 12:22,862,Rarely,Most months,20,Female,-99,A levels,63,2,Against,Against
17,1658940000000,27/07/2022 15:41,1658940000000,1,27/07/2022 16:41,94050,2,task-k2dt,NA,23335022,6847730,NA,complete,NA,62e15c4a8a31447bd0c73670,computer,Desktop or Laptop,Mac OS 10.15.7,Chrome 102.0.0.0,1440x900,1440x821,NA,ITT Ratings,3,For,7,NA,NA,NA,NA,NA,ACCEPT,NA,NA,NA,NA,batch7hes,batch7hes,33,15,1,Screen 1,continueButton,response_rating_scale_likert_active,8891.4,NA,NA,Somewhat Disagree,1,0,1,0,NA,NA,NA,NA,1,statements,"Because X Y Z (friends, family, celebrity, influencer etc) has had it, so it should be safe.",1,17/05/2021 12:11,17/05/2021 12:24,783,Most months,Most months,27,Female,-99,"Undergraduate degree (BSc, BA)",65,3,Against,For
18,1658940000000,27/07/2022 15:41,1658940000000,1,27/07/2022 16:41,94050,2,task-k2dt,NA,23335022,6847730,NA,complete,NA,62e15c4a8a31447bd0c73670,computer,Desktop or Laptop,Mac OS 10.15.7,Chrome 102.0.0.0,1440x900,1440x821,NA,ITT Ratings,3,For,7,NA,NA,NA,NA,NA,ACCEPT,NA,NA,NA,NA,batch7hes,batch7hes,51,16,1,Screen 1,continueButton,response_rating_scale_likert_active,2650.5,NA,NA,Agree,1,0,1,0,NA,NA,NA,NA,1,statements,It is my choice to take it,1,17/05/2021 12:22,17/05/2021 12:34,730,Once or twice a year,Most weeks,59,Male,-99,Vocational Training / Apprenticeship,68,3,Against,For
19,1658940000000,27/07/2022 15:42,1658940000000,1,27/07/2022 16:42,94050,2,task-k2dt,NA,23335022,6847730,NA,complete,NA,62e15c4a8a31447bd0c73670,computer,Desktop or Laptop,Mac OS 10.15.7,Chrome 102.0.0.0,1440x900,1440x821,NA,ITT Ratings,3,For,7,NA,NA,NA,NA,NA,ACCEPT,NA,NA,NA,NA,batch7hes,batch7hes,24,17,1,Screen 1,continueButton,response_rating_scale_likert_active,7670.7,NA,NA,Somewhat Agree,1,0,1,0,NA,NA,NA,NA,1,statements,General disbelief in the effectiveness of requirement to be vaccinated in the first place,1,17/05/2021 12:03,17/05/2021 12:23,1164,Most weeks,Most days,34,Male,-99,A levels,64,3,Against,Against
20,1658940000000,27/07/2022 15:42,1658940000000,1,27/07/2022 16:42,94050,2,task-k2dt,NA,23335022,6847730,NA,complete,NA,62e15c4a8a31447bd0c73670,computer,Desktop or Laptop,Mac OS 10.15.7,Chrome 102.0.0.0,1440x900,1440x821,NA,ITT Ratings,3,For,7,NA,NA,NA,NA,NA,ACCEPT,NA,NA,NA,NA,batch7hes,batch7hes,12,18,1,Screen 1,continueButton,response_rating_scale_likert_active,5912.4,NA,NA,Disagree,1,0,1,0,NA,NA,NA,NA,1,statements,Why vaccinate healthy people against something they have never had,1,17/05/2021 12:13,17/05/2021 12:20,381,Most weeks,Most months,36,Male,-99,A levels,62,3,Against,Against
21,1658940000000,27/07/2022 15:42,1658940000000,1,27/07/2022 16:42,94050,2,task-k2dt,NA,23335022,6847730,NA,complete,NA,62e15c4a8a31447bd0c73670,computer,Desktop or Laptop,Mac OS 10.15.7,Chrome 102.0.0.0,1440x900,1440x821,NA,ITT Ratings,3,For,7,NA,NA,NA,NA,NA,ACCEPT,NA,NA,NA,NA,batch7hes,batch7hes,62,19,1,Screen 1,continueButton,response_rating_scale_likert_active,5484.1,NA,NA,Neither Agree nor Disagree,1,0,1,0,NA,NA,NA,NA,1,statements,Because I believe the death rate,1,17/05/2021 12:18,17/05/2021 12:35,1078,Never,Never,34,Female,-99,No formal qualifications,70,2,Against,For
22,1658940000000,27/07/2022 15:42,1658940000000,1,27/07/2022 16:42,94050,2,task-k2dt,NA,23335022,6847730,NA,complete,NA,62e15c4a8a31447bd0c73670,computer,Desktop or Laptop,Mac OS 10.15.7,Chrome 102.0.0.0,1440x900,1440x821,NA,ITT Ratings,3,For,7,NA,NA,NA,NA,NA,ACCEPT,NA,NA,NA,NA,batch7hes,batch7hes,46,20,1,Screen 1,continueButton,response_rating_scale_likert_active,1849.7,NA,NA,Agree,1,0,1,0,NA,NA,NA,NA,1,statements,It is my personal choice,1,17/05/2021 12:22,17/05/2021 12:34,730,Once or twice a year,Most weeks,59,Male,-99,Vocational Training / Apprenticeship,68,1,Against,Against
23,1658940000000,27/07/2022 15:42,1658940000000,1,27/07/2022 16:42,94050,2,task-k2dt,NA,23335022,6847730,NA,complete,NA,62e15c4a8a31447bd0c73670,computer,Desktop or Laptop,Mac OS 10.15.7,Chrome 102.0.0.0,1440x900,1440x821,NA,ITT Ratings,3,For,7,NA,NA,NA,NA,NA,ACCEPT,NA,NA,NA,NA,batch7hes,batch7hes,50,21,1,Screen 1,continueButton,response_rating_scale_likert_active,4310.8,NA,NA,Disagree,1,0,1,0,NA,NA,NA,NA,1,statements,I am an elderly person,1,17/05/2021 12:22,17/05/2021 12:34,730,Once or twice a year,Most weeks,59,Male,-99,Vocational Training / Apprenticeship,68,2,Against,For
24,1658940000000,27/07/2022 15:42,1658940000000,1,27/07/2022 16:42,94050,2,task-k2dt,NA,23335022,6847730,NA,complete,NA,62e15c4a8a31447bd0c73670,computer,Desktop or Laptop,Mac OS 10.15.7,Chrome 102.0.0.0,1440x900,1440x821,NA,ITT Ratings,3,For,7,NA,NA,NA,NA,NA,ACCEPT,NA,NA,NA,NA,batch7hes,batch7hes,32,22,1,Screen 1,continueButton,response_rating_scale_likert_active,3063.6,NA,NA,Agree,1,0,1,0,NA,NA,NA,NA,1,statements,Want to protect friends and family.,1,17/05/2021 12:11,17/05/2021 12:24,783,Most months,Most months,27,Female,-99,"Undergraduate degree (BSc, BA)",65,2,Against,For
25,1658940000000,27/07/2022 15:42,1658940000000,1,27/07/2022 16:42,94050,2,task-k2dt,NA,23335022,6847730,NA,complete,NA,62e15c4a8a31447bd0c73670,computer,Desktop or Laptop,Mac OS 10.15.7,Chrome 102.0.0.0,1440x900,1440x821,NA,ITT Ratings,3,For,7,NA,NA,NA,NA,NA,ACCEPT,NA,NA,NA,NA,batch7hes,batch7hes,39,23,1,Screen 1,continueButton,response_rating_scale_likert_active,8078.9,NA,NA,Agree,1,0,1,0,NA,NA,NA,NA,1,statements,To help protect against Underlying health conditions,1,17/05/2021 12:21,17/05/2021 12:30,549,Most months,Most months,27,Female,-99,A levels,66,3,Against,For
26,1658940000000,27/07/2022 15:42,1658940000000,1,27/07/2022 16:42,94050,2,task-k2dt,NA,23335022,6847730,NA,complete,NA,62e15c4a8a31447bd0c73670,computer,Desktop or Laptop,Mac OS 10.15.7,Chrome 102.0.0.0,1440x900,1440x821,NA,ITT Ratings,3,For,7,NA,NA,NA,NA,NA,ACCEPT,NA,NA,NA,NA,batch7hes,batch7hes,2,24,1,Screen 1,continueButton,response_rating_scale_likert_active,5023,NA,NA,Somewhat Agree,1,0,1,0,NA,NA,NA,NA,1,statements,We would like to check you are reading each argument carefully. Please select 'Somewhat Agree' for this answer,1,NA,NA,NA,NA,NA,NA,NA,NA,NA,NA,check1,NA,NA
27,1658940000000,27/07/2022 15:42,1658940000000,1,27/07/2022 16:42,94050,2,task-k2dt,NA,23335022,6847730,NA,complete,NA,62e15c4a8a31447bd0c73670,computer,Desktop or Laptop,Mac OS 10.15.7,Chrome 102.0.0.0,1440x900,1440x821,NA,ITT Ratings,3,For,7,NA,NA,NA,NA,NA,ACCEPT,NA,NA,NA,NA,batch7hes,batch7hes,21,25,1,Screen 1,continueButton,response_rating_scale_likert_active,3866.6,NA,NA,Disagree,1,0,1,0,NA,NA,NA,NA,1,statements,The double dose doesn't make sense in terms of science.,1,17/05/2021 12:08,17/05/2021 12:22,862,Rarely,Most months,20,Female,-99,A levels,63,3,Against,For
28,1658940000000,27/07/2022 15:42,1658940000000,1,27/07/2022 16:42,94050,2,task-k2dt,NA,23335022,6847730,NA,complete,NA,62e15c4a8a31447bd0c73670,computer,Desktop or Laptop,Mac OS 10.15.7,Chrome 102.0.0.0,1440x900,1440x821,NA,ITT Ratings,3,For,7,NA,NA,NA,NA,NA,ACCEPT,NA,NA,NA,NA,batch7hes,batch7hes,58,26,1,Screen 1,continueButton,response_rating_scale_likert_active,5970.2,NA,NA,Disagree,1,0,1,0,NA,NA,NA,NA,1,statements,Professionals on tv have said it won't protect you from getting the virus or stop you spreading it to others,1,17/05/2021 12:18,17/05/2021 12:35,1078,Never,Never,34,Female,-99,No formal qualifications,70,1,Against,Against
29,1658940000000,27/07/2022 15:42,1658940000000,1,27/07/2022 16:42,94050,2,task-k2dt,NA,23335022,6847730,NA,complete,NA,62e15c4a8a31447bd0c73670,computer,Desktop or Laptop,Mac OS 10.15.7,Chrome 102.0.0.0,1440x900,1440x821,NA,ITT Ratings,3,For,7,NA,NA,NA,NA,NA,ACCEPT,NA,NA,NA,NA,batch7hes,batch7hes,15,27,1,Screen 1,continueButton,response_rating_scale_likert_active,7790.4,NA,NA,Agree,1,0,1,0,NA,NA,NA,NA,1,statements,ItÈs in the countries best interest,1,17/05/2021 12:13,17/05/2021 12:20,381,Most weeks,Most months,36,Male,-99,A levels,62,3,Against,For
30,1658940000000,27/07/2022 15:43,1658940000000,1,27/07/2022 16:43,94050,2,task-k2dt,NA,23335022,6847730,NA,complete,NA,62e15c4a8a31447bd0c73670,computer,Desktop or Laptop,Mac OS 10.15.7,Chrome 102.0.0.0,1440x900,1440x821,NA,ITT Ratings,3,For,7,NA,NA,NA,NA,NA,ACCEPT,NA,NA,NA,NA,batch7hes,batch7hes,19,28,1,Screen 1,continueButton,response_rating_scale_likert_active,6463.3,NA,NA,Somewhat Disagree,1,0,1,0,NA,NA,NA,NA,1,statements,There have been 7 people that have died from it as it caused them a rare blood clot disease.,1,17/05/2021 12:08,17/05/2021 12:22,862,Rarely,Most months,20,Female,-99,A levels,63,1,Against,For
31,1658940000000,27/07/2022 15:43,1658940000000,1,27/07/2022 16:43,94050,2,task-k2dt,NA,23335022,6847730,NA,complete,NA,62e15c4a8a31447bd0c73670,computer,Desktop or Laptop,Mac OS 10.15.7,Chrome 102.0.0.0,1440x900,1440x821,NA,ITT Ratings,3,For,7,NA,NA,NA,NA,NA,ACCEPT,NA,NA,NA,NA,batch7hes,batch7hes,5,29,1,Screen 1,continueButton,response_rating_scale_likert_active,5488.7,NA,NA,Disagree,1,0,1,0,NA,NA,NA,NA,1,statements,Don't trust the people who are in charge of creating a vaccine.,1,17/05/2021 12:13,17/05/2021 12:18,332,Rarely,Rarely,31,Male,-99,"Undergraduate degree (BSc, BA)",61,2,Against,Against
32,1658940000000,27/07/2022 15:43,1658940000000,1,27/07/2022 16:43,94050,2,task-k2dt,NA,23335022,6847730,NA,complete,NA,62e15c4a8a31447bd0c73670,computer,Desktop or Laptop,Mac OS 10.15.7,Chrome 102.0.0.0,1440x900,1440x821,NA,ITT Ratings,3,For,7,NA,NA,NA,NA,NA,ACCEPT,NA,NA,NA,NA,batch7hes,batch7hes,13,30,1,Screen 1,continueButton,response_rating_scale_likert_active,6113,NA,NA,Disagree,1,0,1,0,NA,NA,NA,NA,1,statements,It will fight covid in its path,1,17/05/2021 12:13,17/05/2021 12:20,381,Most weeks,Most months,36,Male,-99,A levels,62,1,Against,For
33,1658940000000,27/07/2022 15:43,1658940000000,1,27/07/2022 16:43,94050,2,task-k2dt,NA,23335022,6847730,NA,complete,NA,62e15c4a8a31447bd0c73670,computer,Desktop or Laptop,Mac OS 10.15.7,Chrome 102.0.0.0,1440x900,1440x821,NA,ITT Ratings,3,For,7,NA,NA,NA,NA,NA,ACCEPT,NA,NA,NA,NA,batch7hes,batch7hes,38,31,1,Screen 1,continueButton,response_rating_scale_likert_active,2377.2,NA,NA,Agree,1,0,1,0,NA,NA,NA,NA,1,statements,Help prevent the spread,1,17/05/2021 12:21,17/05/2021 12:30,549,Most months,Most months,27,Female,-99,A levels,66,2,Against,For
34,1658940000000,27/07/2022 15:43,1658940000000,1,27/07/2022 16:43,94050,2,task-k2dt,NA,23335022,6847730,NA,complete,NA,62e15c4a8a31447bd0c73670,computer,Desktop or Laptop,Mac OS 10.15.7,Chrome 102.0.0.0,1440x900,1440x821,NA,ITT Ratings,3,For,7,NA,NA,NA,NA,NA,ACCEPT,NA,NA,NA,NA,batch7hes,batch7hes,34,32,1,Screen 1,continueButton,response_rating_scale_likert_active,7723.7,NA,NA,Neither Agree nor Disagree,1,0,1,0,NA,NA,NA,NA,1,statements,It's not guaranteed full immunity,1,17/05/2021 12:21,17/05/2021 12:30,549,Most months,Most months,27,Female,-99,A levels,66,1,Against,Against
35,1658940000000,27/07/2022 15:43,1658940000000,1,27/07/2022 16:43,94050,2,task-k2dt,NA,23335022,6847730,NA,complete,NA,62e15c4a8a31447bd0c73670,computer,Desktop or Laptop,Mac OS 10.15.7,Chrome 102.0.0.0,1440x900,1440x821,NA,ITT Ratings,3,For,7,NA,NA,NA,NA,NA,ACCEPT,NA,NA,NA,NA,batch7hes,batch7hes,54,33,1,Screen 1,continueButton,response_rating_scale_likert_active,4435,NA,NA,Disagree,1,0,1,0,NA,NA,NA,NA,1,statements,I think it hasn't had enough time to develop,1,17/05/2021 12:30,17/05/2021 12:35,345,Most days,Most days,53,Female,-99,"GCSEs,Vocational Training / Apprenticeship",69,3,Against,Against
36,1658940000000,27/07/2022 15:43,1658940000000,1,27/07/2022 16:43,94050,2,task-k2dt,NA,23335022,6847730,NA,complete,NA,62e15c4a8a31447bd0c73670,computer,Desktop or Laptop,Mac OS 10.15.7,Chrome 102.0.0.0,1440x900,1440x821,NA,ITT Ratings,3,For,7,NA,NA,NA,NA,NA,ACCEPT,NA,NA,NA,NA,batch7hes,batch7hes,41,34,1,Screen 1,continueButton,response_rating_scale_likert_active,16200.3,NA,NA,Neither Agree nor Disagree,1,0,1,0,NA,NA,NA,NA,1,statements,It doesnt stop the spread just how much it impacts so young people wouldn't need it as much,1,17/05/2021 12:21,17/05/2021 12:33,726,Most months,A few times a year,21,Female,-99,A levels,67,2,Against,Against
37,1658940000000,27/07/2022 15:43,1658940000000,1,27/07/2022 16:43,94050,2,task-k2dt,NA,23335022,6847730,NA,complete,NA,62e15c4a8a31447bd0c73670,computer,Desktop or Laptop,Mac OS 10.15.7,Chrome 102.0.0.0,1440x900,1440x821,NA,ITT Ratings,3,For,7,NA,NA,NA,NA,NA,ACCEPT,NA,NA,NA,NA,batch7hes,batch7hes,8,35,1,Screen 1,continueButton,response_rating_scale_likert_active,7159.4,NA,NA,Somewhat Agree,1,0,1,0,NA,NA,NA,NA,1,statements,To be able to go out and see elderly relatives.,1,17/05/2021 12:13,17/05/2021 12:18,332,Rarely,Rarely,31,Male,-99,"Undergraduate degree (BSc, BA)",61,2,Against,For
38,1658940000000,27/07/2022 15:43,1658940000000,1,27/07/2022 16:43,94050,2,task-k2dt,NA,23335022,6847730,NA,complete,NA,62e15c4a8a31447bd0c73670,computer,Desktop or Laptop,Mac OS 10.15.7,Chrome 102.0.0.0,1440x900,1440x821,NA,ITT Ratings,3,For,7,NA,NA,NA,NA,NA,ACCEPT,NA,NA,NA,NA,batch7hes,batch7hes,59,36,1,Screen 1,continueButton,response_rating_scale_likert_active,4363,NA,NA,Somewhat Agree,1,0,1,0,NA,NA,NA,NA,1,statements,Vaccinations still won't return life back to normal,1,17/05/2021 12:18,17/05/2021 12:35,1078,Never,Never,34,Female,-99,No formal qualifications,70,2,Against,Against
39,1658940000000,27/07/2022 15:43,1658940000000,1,27/07/2022 16:43,94050,2,task-k2dt,NA,23335022,6847730,NA,complete,NA,62e15c4a8a31447bd0c73670,computer,Desktop or Laptop,Mac OS 10.15.7,Chrome 102.0.0.0,1440x900,1440x821,NA,ITT Ratings,3,For,7,NA,NA,NA,NA,NA,ACCEPT,NA,NA,NA,NA,batch7hes,batch7hes,45,37,1,Screen 1,continueButton,response_rating_scale_likert_active,4131.3,NA,NA,Somewhat Agree,1,0,1,0,NA,NA,NA,NA,1,statements,The best scientist have made it so it should be safe,1,17/05/2021 12:21,17/05/2021 12:33,726,Most months,A few times a year,21,Female,-99,A levels,67,3,Against,For
40,1658940000000,27/07/2022 15:44,1658940000000,1,27/07/2022 16:44,94050,2,task-k2dt,NA,23335022,6847730,NA,complete,NA,62e15c4a8a31447bd0c73670,computer,Desktop or Laptop,Mac OS 10.15.7,Chrome 102.0.0.0,1440x900,1440x821,NA,ITT Ratings,3,For,7,NA,NA,NA,NA,NA,ACCEPT,NA,NA,NA,NA,batch7hes,batch7hes,47,38,1,Screen 1,continueButton,response_rating_scale_likert_active,3841.7,NA,NA,Disagree,1,0,1,0,NA,NA,NA,NA,1,statements,Vaccine not fully tested,1,17/05/2021 12:22,17/05/2021 12:34,730,Once or twice a year,Most weeks,59,Male,-99,Vocational Training / Apprenticeship,68,2,Against,Against
41,1658940000000,27/07/2022 15:44,1658940000000,1,27/07/2022 16:44,94050,2,task-k2dt,NA,23335022,6847730,NA,complete,NA,62e15c4a8a31447bd0c73670,computer,Desktop or Laptop,Mac OS 10.15.7,Chrome 102.0.0.0,1440x900,1440x821,NA,ITT Ratings,3,For,7,NA,NA,NA,NA,NA,ACCEPT,NA,NA,NA,NA,batch7hes,batch7hes,6,39,1,Screen 1,continueButton,response_rating_scale_likert_active,4941.1,NA,NA,Disagree,1,0,1,0,NA,NA,NA,NA,1,statements,Telling us lies on how everything started out from the virus from day one.,1,17/05/2021 12:13,17/05/2021 12:18,332,Rarely,Rarely,31,Male,-99,"Undergraduate degree (BSc, BA)",61,3,Against,Against
42,1658940000000,27/07/2022 15:44,1658940000000,1,27/07/2022 16:44,94050,2,task-k2dt,NA,23335022,6847730,NA,complete,NA,62e15c4a8a31447bd0c73670,computer,Desktop or Laptop,Mac OS 10.15.7,Chrome 102.0.0.0,1440x900,1440x821,NA,ITT Ratings,3,For,7,NA,NA,NA,NA,NA,ACCEPT,NA,NA,NA,NA,batch7hes,batch7hes,49,40,1,Screen 1,continueButton,response_rating_scale_likert_active,6628.8,NA,NA,Agree,1,0,1,0,NA,NA,NA,NA,1,statements,I at risk with my medical condition,1,17/05/2021 12:22,17/05/2021 12:34,730,Once or twice a year,Most weeks,59,Male,-99,Vocational Training / Apprenticeship,68,1,Against,For
43,1658940000000,27/07/2022 15:44,1658940000000,1,27/07/2022 16:44,94050,2,task-k2dt,NA,23335022,6847730,NA,complete,NA,62e15c4a8a31447bd0c73670,computer,Desktop or Laptop,Mac OS 10.15.7,Chrome 102.0.0.0,1440x900,1440x821,NA,ITT Ratings,3,For,7,NA,NA,NA,NA,NA,ACCEPT,NA,NA,NA,NA,batch7hes,batch7hes,25,41,1,Screen 1,continueButton,response_rating_scale_likert_active,4008.4,NA,NA,Agree,1,0,1,0,NA,NA,NA,NA,1,statements,Get life back to some sort of new normal with lifting restrictions on everyday life,1,17/05/2021 12:03,17/05/2021 12:23,1164,Most weeks,Most days,34,Male,-99,A levels,64,1,Against,For
44,1658940000000,27/07/2022 15:44,1658940000000,1,27/07/2022 16:44,94050,2,task-k2dt,NA,23335022,6847730,NA,complete,NA,62e15c4a8a31447bd0c73670,computer,Desktop or Laptop,Mac OS 10.15.7,Chrome 102.0.0.0,1440x900,1440x821,NA,ITT Ratings,3,For,7,NA,NA,NA,NA,NA,ACCEPT,NA,NA,NA,NA,batch7hes,batch7hes,4,42,1,Screen 1,continueButton,response_rating_scale_likert_active,2587.9,NA,NA,Disagree,1,0,1,0,NA,NA,NA,NA,1,statements,Can't make a vaccine that quick.,1,17/05/2021 12:13,17/05/2021 12:18,332,Rarely,Rarely,31,Male,-99,"Undergraduate degree (BSc, BA)",61,1,Against,Against
45,1658940000000,27/07/2022 15:44,1658940000000,1,27/07/2022 16:44,94050,2,task-k2dt,NA,23335022,6847730,NA,complete,NA,62e15c4a8a31447bd0c73670,computer,Desktop or Laptop,Mac OS 10.15.7,Chrome 102.0.0.0,1440x900,1440x821,NA,ITT Ratings,3,For,7,NA,NA,NA,NA,NA,ACCEPT,NA,NA,NA,NA,batch7hes,batch7hes,43,43,1,Screen 1,continueButton,response_rating_scale_likert_active,10996.4,NA,NA,Agree,1,0,1,0,NA,NA,NA,NA,1,statements,Protect yourself from getting the virus very badly,1,17/05/2021 12:21,17/05/2021 12:33,726,Most months,A few times a year,21,Female,-99,A levels,67,1,Against,For
46,1658940000000,27/07/2022 15:44,1658940000000,1,27/07/2022 16:44,94050,2,task-k2dt,NA,23335022,6847730,NA,complete,NA,62e15c4a8a31447bd0c73670,computer,Desktop or Laptop,Mac OS 10.15.7,Chrome 102.0.0.0,1440x900,1440x821,NA,ITT Ratings,3,For,7,NA,NA,NA,NA,NA,ACCEPT,NA,NA,NA,NA,batch7hes,batch7hes,28,44,1,Screen 1,continueButton,response_rating_scale_likert_active,4689.9,NA,NA,Somewhat Disagree,1,0,1,0,NA,NA,NA,NA,1,statements,We do not know the side effects of it in a couple of years time,1,17/05/2021 12:11,17/05/2021 12:24,783,Most months,Most months,27,Female,-99,"Undergraduate degree (BSc, BA)",65,1,Against,Against
47,1658940000000,27/07/2022 15:44,1658940000000,1,27/07/2022 16:44,94050,2,task-k2dt,NA,23335022,6847730,NA,complete,NA,62e15c4a8a31447bd0c73670,computer,Desktop or Laptop,Mac OS 10.15.7,Chrome 102.0.0.0,1440x900,1440x821,NA,ITT Ratings,3,For,7,NA,NA,NA,NA,NA,ACCEPT,NA,NA,NA,NA,batch7hes,batch7hes,11,45,1,Screen 1,continueButton,response_rating_scale_likert_active,2969.7,NA,NA,Disagree,1,0,1,0,NA,NA,NA,NA,1,statements,Vaccine was produced too quickly,1,17/05/2021 12:13,17/05/2021 12:20,381,Most weeks,Most months,36,Male,-99,A levels,62,2,Against,Against
48,1658940000000,27/07/2022 15:44,1658940000000,1,27/07/2022 16:44,94050,2,task-k2dt,NA,23335022,6847730,NA,complete,NA,62e15c4a8a31447bd0c73670,computer,Desktop or Laptop,Mac OS 10.15.7,Chrome 102.0.0.0,1440x900,1440x821,NA,ITT Ratings,3,For,7,NA,NA,NA,NA,NA,ACCEPT,NA,NA,NA,NA,batch7hes,batch7hes,10,46,1,Screen 1,continueButton,response_rating_scale_likert_active,1264.8,NA,NA,Disagree,1,0,1,0,NA,NA,NA,NA,1,statements,Unsure of side effects,1,17/05/2021 12:13,17/05/2021 12:20,381,Most weeks,Most months,36,Male,-99,A levels,62,1,Against,Against
49,1658940000000,27/07/2022 15:44,1658940000000,1,27/07/2022 16:44,94050,2,task-k2dt,NA,23335022,6847730,NA,complete,NA,62e15c4a8a31447bd0c73670,computer,Desktop or Laptop,Mac OS 10.15.7,Chrome 102.0.0.0,1440x900,1440x821,NA,ITT Ratings,3,For,7,NA,NA,NA,NA,NA,ACCEPT,NA,NA,NA,NA,batch7hes,batch7hes,55,47,1,Screen 1,continueButton,response_rating_scale_likert_active,3723.4,NA,NA,Somewhat Agree,1,0,1,0,NA,NA,NA,NA,1,statements,I want to be immunised against the virus,1,17/05/2021 12:30,17/05/2021 12:35,345,Most days,Most days,53,Female,-99,"GCSEs,Vocational Training / Apprenticeship",69,1,Against,For
50,1658940000000,27/07/2022 15:44,1658940000000,1,27/07/2022 16:44,94050,2,task-k2dt,NA,23335022,6847730,NA,complete,NA,62e15c4a8a31447bd0c73670,computer,Desktop or Laptop,Mac OS 10.15.7,Chrome 102.0.0.0,1440x900,1440x821,NA,ITT Ratings,3,For,7,NA,NA,NA,NA,NA,ACCEPT,NA,NA,NA,NA,batch7hes,batch7hes,60,48,1,Screen 1,continueButton,response_rating_scale_likert_active,3516.2,NA,NA,Disagree,1,0,1,0,NA,NA,NA,NA,1,statements,Because of what's in it,1,17/05/2021 12:18,17/05/2021 12:35,1078,Never,Never,34,Female,-99,No formal qualifications,70,3,Against,Against
51,1658940000000,27/07/2022 15:44,1658940000000,1,27/07/2022 16:44,94050,2,task-k2dt,NA,23335022,6847730,NA,complete,NA,62e15c4a8a31447bd0c73670,computer,Desktop or Laptop,Mac OS 10.15.7,Chrome 102.0.0.0,1440x900,1440x821,NA,ITT Ratings,3,For,7,NA,NA,NA,NA,NA,ACCEPT,NA,NA,NA,NA,batch7hes,batch7hes,44,49,1,Screen 1,continueButton,response_rating_scale_likert_active,3035.5,NA,NA,Agree,1,0,1,0,NA,NA,NA,NA,1,statements,Protect others from getting the virus,1,17/05/2021 12:21,17/05/2021 12:33,726,Most months,A few times a year,21,Female,-99,A levels,67,2,Against,For
52,1658940000000,27/07/2022 15:44,1658940000000,1,27/07/2022 16:44,94050,2,task-k2dt,NA,23335022,6847730,NA,complete,NA,62e15c4a8a31447bd0c73670,computer,Desktop or Laptop,Mac OS 10.15.7,Chrome 102.0.0.0,1440x900,1440x821,NA,ITT Ratings,3,For,7,NA,NA,NA,NA,NA,ACCEPT,NA,NA,NA,NA,batch7hes,batch7hes,35,50,1,Screen 1,continueButton,response_rating_scale_likert_active,2909.6,NA,NA,Disagree,1,0,1,0,NA,NA,NA,NA,1,statements,Not enough time to develop the vaccine,1,17/05/2021 12:21,17/05/2021 12:30,549,Most months,Most months,27,Female,-99,A levels,66,2,Against,Against
53,1658940000000,27/07/2022 15:44,1658940000000,1,27/07/2022 16:44,94050,2,task-k2dt,NA,23335022,6847730,NA,complete,NA,62e15c4a8a31447bd0c73670,computer,Desktop or Laptop,Mac OS 10.15.7,Chrome 102.0.0.0,1440x900,1440x821,NA,ITT Ratings,3,For,7,NA,NA,NA,NA,NA,ACCEPT,NA,NA,NA,NA,batch7hes,batch7hes,3,51,1,Screen 1,continueButton,response_rating_scale_likert_active,2846.9,NA,NA,Somewhat Disagree,1,0,1,0,NA,NA,NA,NA,1,statements,We would like to check you are reading each argument carefully. Please select 'Somewhat Disagree' for this answer,1,NA,NA,NA,NA,NA,NA,NA,NA,NA,NA,check2,NA,NA
54,1658940000000,27/07/2022 15:45,1658940000000,1,27/07/2022 16:45,94050,2,task-k2dt,NA,23335022,6847730,NA,complete,NA,62e15c4a8a31447bd0c73670,computer,Desktop or Laptop,Mac OS 10.15.7,Chrome 102.0.0.0,1440x900,1440x821,NA,ITT Ratings,3,For,7,NA,NA,NA,NA,NA,ACCEPT,NA,NA,NA,NA,batch7hes,batch7hes,56,52,1,Screen 1,continueButton,response_rating_scale_likert_active,3660.9,NA,NA,Agree,1,0,1,0,NA,NA,NA,NA,1,statements,I want to protect someone who is vulnerable,1,17/05/2021 12:30,17/05/2021 12:35,345,Most days,Most days,53,Female,-99,"GCSEs,Vocational Training / Apprenticeship",69,2,Against,For
55,1658940000000,27/07/2022 15:45,1658940000000,1,27/07/2022 16:45,94050,2,task-k2dt,NA,23335022,6847730,NA,complete,NA,62e15c4a8a31447bd0c73670,computer,Desktop or Laptop,Mac OS 10.15.7,Chrome 102.0.0.0,1440x900,1440x821,NA,ITT Ratings,3,For,7,NA,NA,NA,NA,NA,ACCEPT,NA,NA,NA,NA,batch7hes,batch7hes,14,53,1,Screen 1,continueButton,response_rating_scale_likert_active,2876.3,NA,NA,Somewhat Agree,1,0,1,0,NA,NA,NA,NA,1,statements,I am protected against the disease,1,17/05/2021 12:13,17/05/2021 12:20,381,Most weeks,Most months,36,Male,-99,A levels,62,2,Against,For
56,1658940000000,27/07/2022 15:45,1658940000000,1,27/07/2022 16:45,94050,2,task-k2dt,NA,23335022,6847730,NA,complete,NA,62e15c4a8a31447bd0c73670,computer,Desktop or Laptop,Mac OS 10.15.7,Chrome 102.0.0.0,1440x900,1440x821,NA,ITT Ratings,3,For,7,NA,NA,NA,NA,NA,ACCEPT,NA,NA,NA,NA,batch7hes,batch7hes,27,54,1,Screen 1,continueButton,response_rating_scale_likert_active,7062.7,NA,NA,Disagree,1,0,1,0,NA,NA,NA,NA,1,statements,"Feel like there is no choice in the matter other than too have the vaccination to support friends, family etc",1,17/05/2021 12:03,17/05/2021 12:23,1164,Most weeks,Most days,34,Male,-99,A levels,64,3,Against,For
57,1658940000000,27/07/2022 15:45,1658940000000,1,27/07/2022 16:45,94050,2,task-k2dt,NA,23335022,6847730,NA,complete,NA,62e15c4a8a31447bd0c73670,computer,Desktop or Laptop,Mac OS 10.15.7,Chrome 102.0.0.0,1440x900,1440x821,NA,ITT Ratings,3,For,7,NA,NA,NA,NA,NA,ACCEPT,NA,NA,NA,NA,batch7hes,batch7hes,61,55,1,Screen 1,continueButton,response_rating_scale_likert_active,2771.3,NA,NA,Disagree,1,0,1,0,NA,NA,NA,NA,1,statements,Because I believe the fear,1,17/05/2021 12:18,17/05/2021 12:35,1078,Never,Never,34,Female,-99,No formal qualifications,70,1,Against,For
58,1658940000000,27/07/2022 15:45,1658940000000,1,27/07/2022 16:45,94050,2,task-k2dt,NA,23335022,6847730,NA,complete,NA,62e15c4a8a31447bd0c73670,computer,Desktop or Laptop,Mac OS 10.15.7,Chrome 102.0.0.0,1440x900,1440x821,NA,ITT Ratings,3,For,7,NA,NA,NA,NA,NA,ACCEPT,NA,NA,NA,NA,batch7hes,batch7hes,36,56,1,Screen 1,continueButton,response_rating_scale_likert_active,3273.9,NA,NA,Disagree,1,0,1,0,NA,NA,NA,NA,1,statements,Side effects or risks of taking the vaccine,1,17/05/2021 12:21,17/05/2021 12:30,549,Most months,Most months,27,Female,-99,A levels,66,3,Against,Against
59,1658940000000,27/07/2022 15:45,1658940000000,1,27/07/2022 16:45,94050,2,task-k2dt,NA,23335022,6847730,NA,complete,NA,62e15c4a8a31447bd0c73670,computer,Desktop or Laptop,Mac OS 10.15.7,Chrome 102.0.0.0,1440x900,1440x821,NA,ITT Ratings,3,For,7,NA,NA,NA,NA,NA,ACCEPT,NA,NA,NA,NA,batch7hes,batch7hes,48,57,1,Screen 1,continueButton,response_rating_scale_likert_active,10208.4,NA,NA,Neither Agree nor Disagree,1,0,1,0,NA,NA,NA,NA,1,statements,The vaccine only partial projects and you will always take it like the flu jab,1,17/05/2021 12:22,17/05/2021 12:34,730,Once or twice a year,Most weeks,59,Male,-99,Vocational Training / Apprenticeship,68,3,Against,Against
60,1658940000000,27/07/2022 15:45,1658940000000,1,27/07/2022 16:45,94050,2,task-k2dt,NA,23335022,6847730,NA,complete,NA,62e15c4a8a31447bd0c73670,computer,Desktop or Laptop,Mac OS 10.15.7,Chrome 102.0.0.0,1440x900,1440x821,NA,ITT Ratings,3,For,7,NA,NA,NA,NA,NA,ACCEPT,NA,NA,NA,NA,batch7hes,batch7hes,30,58,1,Screen 1,continueButton,response_rating_scale_likert_active,4604,NA,NA,Somewhat Disagree,1,0,1,0,NA,NA,NA,NA,1,statements,There are natural ways to help boost the immune system and fight the virus instead of putting artificial substances into the body.,1,17/05/2021 12:11,17/05/2021 12:24,783,Most months,Most months,27,Female,-99,"Undergraduate degree (BSc, BA)",65,3,Against,Against
61,1658940000000,27/07/2022 15:45,1658940000000,1,27/07/2022 16:45,94050,2,task-k2dt,NA,23335022,6847730,NA,complete,NA,62e15c4a8a31447bd0c73670,computer,Desktop or Laptop,Mac OS 10.15.7,Chrome 102.0.0.0,1440x900,1440x821,NA,ITT Ratings,3,For,7,NA,NA,NA,NA,NA,ACCEPT,NA,NA,NA,NA,batch7hes,batch7hes,7,59,1,Screen 1,continueButton,response_rating_scale_likert_active,3437.9,NA,NA,Agree,1,0,1,0,NA,NA,NA,NA,1,statements,To be safe from the virus.,1,17/05/2021 12:13,17/05/2021 12:18,332,Rarely,Rarely,31,Male,-99,"Undergraduate degree (BSc, BA)",61,1,Against,For
62,1658940000000,27/07/2022 15:45,1658940000000,1,27/07/2022 16:45,94050,2,task-k2dt,NA,23335022,6847730,NA,complete,NA,62e15c4a8a31447bd0c73670,computer,Desktop or Laptop,Mac OS 10.15.7,Chrome 102.0.0.0,1440x900,1440x821,NA,ITT Ratings,3,For,7,NA,NA,NA,NA,NA,ACCEPT,NA,NA,NA,NA,batch7hes,batch7hes,16,60,1,Screen 1,continueButton,response_rating_scale_likert_active,6907.7,NA,NA,Agree,1,0,1,0,NA,NA,NA,NA,1,statements,"Even though the development of the vaccine was fast, they have used RNA technology that took about 30 years to work effectively.",1,17/05/2021 12:08,17/05/2021 12:22,862,Rarely,Most months,20,Female,-99,A levels,63,1,Against,Against
63,1658940000000,27/07/2022 15:45,1658940000000,1,27/07/2022 16:45,94050,2,task-k2dt,NA,23335022,6847730,NA,complete,NA,62e15c4a8a31447bd0c73670,computer,Desktop or Laptop,Mac OS 10.15.7,Chrome 102.0.0.0,1440x900,1440x821,NA,ITT Ratings,3,For,7,NA,NA,NA,NA,NA,ACCEPT,NA,NA,NA,NA,batch7hes,batch7hes,42,61,1,Screen 1,continueButton,response_rating_scale_likert_active,10073.7,NA,NA,Somewhat Agree,1,0,1,0,NA,NA,NA,NA,1,statements,It's scary to feel forced in to taking a vaccine that's just been developed,1,17/05/2021 12:21,17/05/2021 12:33,726,Most months,A few times a year,21,Female,-99,A levels,67,3,Against,Against
64,1658940000000,27/07/2022 15:45,1658940000000,1,27/07/2022 16:45,94050,2,task-k2dt,NA,23335022,6847730,NA,complete,NA,62e15c4a8a31447bd0c73670,computer,Desktop or Laptop,Mac OS 10.15.7,Chrome 102.0.0.0,1440x900,1440x821,NA,ITT Ratings,3,For,7,NA,NA,NA,NA,NA,ACCEPT,NA,NA,NA,NA,batch7hes,batch7hes,53,62,1,Screen 1,continueButton,response_rating_scale_likert_active,2808.8,NA,NA,Disagree,1,0,1,0,NA,NA,NA,NA,1,statements,I think it is ineffective,1,17/05/2021 12:30,17/05/2021 12:35,345,Most days,Most days,53,Female,-99,"GCSEs,Vocational Training / Apprenticeship",69,2,Against,Against
65,1658940000000,27/07/2022 15:45,1658940000000,1,27/07/2022 16:45,94050,2,task-k2dt,NA,23335022,6847730,NA,complete,NA,62e15c4a8a31447bd0c73670,computer,Desktop or Laptop,Mac OS 10.15.7,Chrome 102.0.0.0,1440x900,1440x821,NA,ITT Ratings,3,For,7,NA,NA,NA,NA,NA,ACCEPT,NA,NA,NA,NA,batch7hes,NA,NA,END TASK,NA,NA,NA,NA,331566,NA,NA,NA,NA,0,1,0,NA,NA,NA,NA,NA,NA,NA,NA,NA,NA,NA,NA,NA,NA,NA,NA,NA,NA,NA,NA,NA
1,1658940000000,27/07/2022 15:44,1658940000000,1,27/07/2022 16:44,94050,2,task-k2dt,NA,23335245,6847796,NA,complete,NA,62e15d63d4b447135495cb0f,computer,Desktop or Laptop,Mac OS 10.15.7,Safari 15.4,1440x900,1440x797,NA,ITT Ratings,3,For,7,NA,NA,NA,NA,NA,ACCEPT,NA,NA,NA,NA,batch7hes,NA,NA,BEGIN TASK,NA,NA,NA,NA,NA,NA,NA,NA,NA,0,1,0,NA,NA,NA,NA,NA,NA,NA,NA,NA,NA,NA,NA,NA,NA,NA,NA,NA,NA,NA,NA,NA
2,1658940000000,27/07/2022 15:45,1658940000000,1,27/07/2022 16:45,94050,2,task-k2dt,NA,23335245,6847796,NA,complete,NA,62e15d63d4b447135495cb0f,computer,Desktop or Laptop,Mac OS 10.15.7,Safari 15.4,1440x900,1440x797,NA,ITT Ratings,3,For,7,NA,NA,NA,NA,NA,ACCEPT,NA,NA,NA,NA,batch7hes,batch7hes,1,1,1,Screen 1,advancementZone,continue_button,5688,NA,NA,NA,NA,0,1,0,NA,NA,NA,NA,NA,instructions,NA,NA,NA,NA,NA,NA,NA,NA,NA,NA,NA,NA,NA,NA,NA
3,1658940000000,27/07/2022 15:45,1658940000000,1,27/07/2022 16:45,94050,2,task-k2dt,NA,23335245,6847796,NA,complete,NA,62e15d63d4b447135495cb0f,computer,Desktop or Laptop,Mac OS 10.15.7,Safari 15.4,1440x900,1440x797,NA,ITT Ratings,3,For,7,NA,NA,NA,NA,NA,ACCEPT,NA,NA,NA,NA,batch7hes,batch7hes,51,1,1,Screen 1,continueButton,response_rating_scale_likert_active,4002,NA,NA,Somewhat Agree,1,0,1,0,NA,NA,NA,NA,1,statements,It is my choice to take it,1,17/05/2021 12:22,17/05/2021 12:34,730,Once or twice a year,Most weeks,59,Male,-99,Vocational Training / Apprenticeship,68,3,Against,For
4,1658940000000,27/07/2022 15:45,1658940000000,1,27/07/2022 16:45,94050,2,task-k2dt,NA,23335245,6847796,NA,complete,NA,62e15d63d4b447135495cb0f,computer,Desktop or Laptop,Mac OS 10.15.7,Safari 15.4,1440x900,1440x797,NA,ITT Ratings,3,For,7,NA,NA,NA,NA,NA,ACCEPT,NA,NA,NA,NA,batch7hes,batch7hes,17,2,1,Screen 1,continueButton,response_rating_scale_likert_active,8953,NA,NA,Strongly Agree,1,0,1,0,NA,NA,NA,NA,1,statements,Most vaccines have side effects such as headaches and muscle aches so it is the same with eh COVID vaccines.,1,17/05/2021 12:08,17/05/2021 12:22,862,Rarely,Most months,20,Female,-99,A levels,63,2,Against,Against
5,1658940000000,27/07/2022 15:45,1658940000000,1,27/07/2022 16:45,94050,2,task-k2dt,NA,23335245,6847796,NA,complete,NA,62e15d63d4b447135495cb0f,computer,Desktop or Laptop,Mac OS 10.15.7,Safari 15.4,1440x900,1440x797,NA,ITT Ratings,3,For,7,NA,NA,NA,NA,NA,ACCEPT,NA,NA,NA,NA,batch7hes,batch7hes,26,3,1,Screen 1,continueButton,response_rating_scale_likert_active,1379,NA,NA,Strongly Agree,1,0,1,0,NA,NA,NA,NA,1,statements,Full confidence in the safety of the vaccination program,1,17/05/2021 12:03,17/05/2021 12:23,1164,Most weeks,Most days,34,Male,-99,A levels,64,2,Against,For
6,1658940000000,27/07/2022 15:45,1658940000000,1,27/07/2022 16:45,94050,2,task-k2dt,NA,23335245,6847796,NA,complete,NA,62e15d63d4b447135495cb0f,computer,Desktop or Laptop,Mac OS 10.15.7,Safari 15.4,1440x900,1440x797,NA,ITT Ratings,3,For,7,NA,NA,NA,NA,NA,ACCEPT,NA,NA,NA,NA,batch7hes,batch7hes,46,4,1,Screen 1,continueButton,response_rating_scale_likert_active,1662,NA,NA,Somewhat Agree,1,0,1,0,NA,NA,NA,NA,1,statements,It is my personal choice,1,17/05/2021 12:22,17/05/2021 12:34,730,Once or twice a year,Most weeks,59,Male,-99,Vocational Training / Apprenticeship,68,1,Against,Against
7,1658940000000,27/07/2022 15:45,1658940000000,1,27/07/2022 16:45,94050,2,task-k2dt,NA,23335245,6847796,NA,complete,NA,62e15d63d4b447135495cb0f,computer,Desktop or Laptop,Mac OS 10.15.7,Safari 15.4,1440x900,1440x797,NA,ITT Ratings,3,For,7,NA,NA,NA,NA,NA,ACCEPT,NA,NA,NA,NA,batch7hes,batch7hes,50,5,1,Screen 1,continueButton,response_rating_scale_likert_active,1845,NA,NA,Strongly Disagree,1,0,1,0,NA,NA,NA,NA,1,statements,I am an elderly person,1,17/05/2021 12:22,17/05/2021 12:34,730,Once or twice a year,Most weeks,59,Male,-99,Vocational Training / Apprenticeship,68,2,Against,For
8,1658940000000,27/07/2022 15:45,1658940000000,1,27/07/2022 16:45,94050,2,task-k2dt,NA,23335245,6847796,NA,complete,NA,62e15d63d4b447135495cb0f,computer,Desktop or Laptop,Mac OS 10.15.7,Safari 15.4,1440x900,1440x797,NA,ITT Ratings,3,For,7,NA,NA,NA,NA,NA,ACCEPT,NA,NA,NA,NA,batch7hes,batch7hes,2,6,1,Screen 1,continueButton,response_rating_scale_likert_active,2086,NA,NA,Somewhat Agree,1,0,1,0,NA,NA,NA,NA,1,statements,We would like to check you are reading each argument carefully. Please select 'Somewhat Agree' for this answer,1,NA,NA,NA,NA,NA,NA,NA,NA,NA,NA,check1,NA,NA
9,1658940000000,27/07/2022 15:45,1658940000000,1,27/07/2022 16:45,94050,2,task-k2dt,NA,23335245,6847796,NA,complete,NA,62e15d63d4b447135495cb0f,computer,Desktop or Laptop,Mac OS 10.15.7,Safari 15.4,1440x900,1440x797,NA,ITT Ratings,3,For,7,NA,NA,NA,NA,NA,ACCEPT,NA,NA,NA,NA,batch7hes,batch7hes,49,7,1,Screen 1,continueButton,response_rating_scale_likert_active,12794,NA,NA,Strongly Disagree,1,0,1,0,NA,NA,NA,NA,1,statements,I at risk with my medical condition,1,17/05/2021 12:22,17/05/2021 12:34,730,Once or twice a year,Most weeks,59,Male,-99,Vocational Training / Apprenticeship,68,1,Against,For
10,1658940000000,27/07/2022 15:45,1658940000000,1,27/07/2022 16:45,94050,2,task-k2dt,NA,23335245,6847796,NA,complete,NA,62e15d63d4b447135495cb0f,computer,Desktop or Laptop,Mac OS 10.15.7,Safari 15.4,1440x900,1440x797,NA,ITT Ratings,3,For,7,NA,NA,NA,NA,NA,ACCEPT,NA,NA,NA,NA,batch7hes,batch7hes,21,8,1,Screen 1,continueButton,response_rating_scale_likert_active,2682,NA,NA,Strongly Disagree,1,0,1,0,NA,NA,NA,NA,1,statements,The double dose doesn't make sense in terms of science.,1,17/05/2021 12:08,17/05/2021 12:22,862,Rarely,Most months,20,Female,-99,A levels,63,3,Against,For
11,1658940000000,27/07/2022 15:45,1658940000000,1,27/07/2022 16:45,94050,2,task-k2dt,NA,23335245,6847796,NA,complete,NA,62e15d63d4b447135495cb0f,computer,Desktop or Laptop,Mac OS 10.15.7,Safari 15.4,1440x900,1440x797,NA,ITT Ratings,3,For,7,NA,NA,NA,NA,NA,ACCEPT,NA,NA,NA,NA,batch7hes,batch7hes,23,9,1,Screen 1,continueButton,response_rating_scale_likert_active,2051,NA,NA,Disagree,1,0,1,0,NA,NA,NA,NA,1,statements,Worried about chance of serious side affects,1,17/05/2021 12:03,17/05/2021 12:23,1164,Most weeks,Most days,34,Male,-99,A levels,64,2,Against,Against
12,1658940000000,27/07/2022 15:45,1658940000000,1,27/07/2022 16:45,94050,2,task-k2dt,NA,23335245,6847796,NA,complete,NA,62e15d63d4b447135495cb0f,computer,Desktop or Laptop,Mac OS 10.15.7,Safari 15.4,1440x900,1440x797,NA,ITT Ratings,3,For,7,NA,NA,NA,NA,NA,ACCEPT,NA,NA,NA,NA,batch7hes,batch7hes,60,10,1,Screen 1,continueButton,response_rating_scale_likert_active,2216,NA,NA,Strongly Disagree,1,0,1,0,NA,NA,NA,NA,1,statements,Because of what's in it,1,17/05/2021 12:18,17/05/2021 12:35,1078,Never,Never,34,Female,-99,No formal qualifications,70,3,Against,Against
13,1658940000000,27/07/2022 15:45,1658940000000,1,27/07/2022 16:45,94050,2,task-k2dt,NA,23335245,6847796,NA,complete,NA,62e15d63d4b447135495cb0f,computer,Desktop or Laptop,Mac OS 10.15.7,Safari 15.4,1440x900,1440x797,NA,ITT Ratings,3,For,7,NA,NA,NA,NA,NA,ACCEPT,NA,NA,NA,NA,batch7hes,batch7hes,45,11,1,Screen 1,continueButton,response_rating_scale_likert_active,2777,NA,NA,Strongly Agree,1,0,1,0,NA,NA,NA,NA,1,statements,The best scientist have made it so it should be safe,1,17/05/2021 12:21,17/05/2021 12:33,726,Most months,A few times a year,21,Female,-99,A levels,67,3,Against,For
14,1658940000000,27/07/2022 15:45,1658940000000,1,27/07/2022 16:45,94050,2,task-k2dt,NA,23335245,6847796,NA,complete,NA,62e15d63d4b447135495cb0f,computer,Desktop or Laptop,Mac OS 10.15.7,Safari 15.4,1440x900,1440x797,NA,ITT Ratings,3,For,7,NA,NA,NA,NA,NA,ACCEPT,NA,NA,NA,NA,batch7hes,batch7hes,34,12,1,Screen 1,continueButton,response_rating_scale_likert_active,2572,NA,NA,Somewhat Disagree,1,0,1,0,NA,NA,NA,NA,1,statements,It's not guaranteed full immunity,1,17/05/2021 12:21,17/05/2021 12:30,549,Most months,Most months,27,Female,-99,A levels,66,1,Against,Against
15,1658940000000,27/07/2022 15:45,1658940000000,1,27/07/2022 16:45,94050,2,task-k2dt,NA,23335245,6847796,NA,complete,NA,62e15d63d4b447135495cb0f,computer,Desktop or Laptop,Mac OS 10.15.7,Safari 15.4,1440x900,1440x797,NA,ITT Ratings,3,For,7,NA,NA,NA,NA,NA,ACCEPT,NA,NA,NA,NA,batch7hes,batch7hes,6,13,1,Screen 1,continueButton,response_rating_scale_likert_active,3193,NA,NA,Strongly Disagree,1,0,1,0,NA,NA,NA,NA,1,statements,Telling us lies on how everything started out from the virus from day one.,1,17/05/2021 12:13,17/05/2021 12:18,332,Rarely,Rarely,31,Male,-99,"Undergraduate degree (BSc, BA)",61,3,Against,Against
16,1658940000000,27/07/2022 15:45,1658940000000,1,27/07/2022 16:45,94050,2,task-k2dt,NA,23335245,6847796,NA,complete,NA,62e15d63d4b447135495cb0f,computer,Desktop or Laptop,Mac OS 10.15.7,Safari 15.4,1440x900,1440x797,NA,ITT Ratings,3,For,7,NA,NA,NA,NA,NA,ACCEPT,NA,NA,NA,NA,batch7hes,batch7hes,8,14,1,Screen 1,continueButton,response_rating_scale_likert_active,2126,NA,NA,Strongly Agree,1,0,1,0,NA,NA,NA,NA,1,statements,To be able to go out and see elderly relatives.,1,17/05/2021 12:13,17/05/2021 12:18,332,Rarely,Rarely,31,Male,-99,"Undergraduate degree (BSc, BA)",61,2,Against,For
17,1658940000000,27/07/2022 15:45,1658940000000,1,27/07/2022 16:45,94050,2,task-k2dt,NA,23335245,6847796,NA,complete,NA,62e15d63d4b447135495cb0f,computer,Desktop or Laptop,Mac OS 10.15.7,Safari 15.4,1440x900,1440x797,NA,ITT Ratings,3,For,7,NA,NA,NA,NA,NA,ACCEPT,NA,NA,NA,NA,batch7hes,batch7hes,14,15,1,Screen 1,continueButton,response_rating_scale_likert_active,1267,NA,NA,Strongly Agree,1,0,1,0,NA,NA,NA,NA,1,statements,I am protected against the disease,1,17/05/2021 12:13,17/05/2021 12:20,381,Most weeks,Most months,36,Male,-99,A levels,62,2,Against,For
18,1658940000000,27/07/2022 15:45,1658940000000,1,27/07/2022 16:45,94050,2,task-k2dt,NA,23335245,6847796,NA,complete,NA,62e15d63d4b447135495cb0f,computer,Desktop or Laptop,Mac OS 10.15.7,Safari 15.4,1440x900,1440x797,NA,ITT Ratings,3,For,7,NA,NA,NA,NA,NA,ACCEPT,NA,NA,NA,NA,batch7hes,batch7hes,28,16,1,Screen 1,continueButton,response_rating_scale_likert_active,2349,NA,NA,Disagree,1,0,1,0,NA,NA,NA,NA,1,statements,We do not know the side effects of it in a couple of years time,1,17/05/2021 12:11,17/05/2021 12:24,783,Most months,Most months,27,Female,-99,"Undergraduate degree (BSc, BA)",65,1,Against,Against
19,1658940000000,27/07/2022 15:46,1658940000000,1,27/07/2022 16:46,94050,2,task-k2dt,NA,23335245,6847796,NA,complete,NA,62e15d63d4b447135495cb0f,computer,Desktop or Laptop,Mac OS 10.15.7,Safari 15.4,1440x900,1440x797,NA,ITT Ratings,3,For,7,NA,NA,NA,NA,NA,ACCEPT,NA,NA,NA,NA,batch7hes,batch7hes,58,17,1,Screen 1,continueButton,response_rating_scale_likert_active,3529,NA,NA,Disagree,1,0,1,0,NA,NA,NA,NA,1,statements,Professionals on tv have said it won't protect you from getting the virus or stop you spreading it to others,1,17/05/2021 12:18,17/05/2021 12:35,1078,Never,Never,34,Female,-99,No formal qualifications,70,1,Against,Against
20,1658940000000,27/07/2022 15:46,1658940000000,1,27/07/2022 16:46,94050,2,task-k2dt,NA,23335245,6847796,NA,complete,NA,62e15d63d4b447135495cb0f,computer,Desktop or Laptop,Mac OS 10.15.7,Safari 15.4,1440x900,1440x797,NA,ITT Ratings,3,For,7,NA,NA,NA,NA,NA,ACCEPT,NA,NA,NA,NA,batch7hes,batch7hes,12,18,1,Screen 1,continueButton,response_rating_scale_likert_active,2193,NA,NA,Strongly Disagree,1,0,1,0,NA,NA,NA,NA,1,statements,Why vaccinate healthy people against something they have never had,1,17/05/2021 12:13,17/05/2021 12:20,381,Most weeks,Most months,36,Male,-99,A levels,62,3,Against,Against
21,1658940000000,27/07/2022 15:46,1658940000000,1,27/07/2022 16:46,94050,2,task-k2dt,NA,23335245,6847796,NA,complete,NA,62e15d63d4b447135495cb0f,computer,Desktop or Laptop,Mac OS 10.15.7,Safari 15.4,1440x900,1440x797,NA,ITT Ratings,3,For,7,NA,NA,NA,NA,NA,ACCEPT,NA,NA,NA,NA,batch7hes,batch7hes,54,19,1,Screen 1,continueButton,response_rating_scale_likert_active,3510,NA,NA,Strongly Disagree,1,0,1,0,NA,NA,NA,NA,1,statements,I think it hasn't had enough time to develop,1,17/05/2021 12:30,17/05/2021 12:35,345,Most days,Most days,53,Female,-99,"GCSEs,Vocational Training / Apprenticeship",69,3,Against,Against
22,1658940000000,27/07/2022 15:46,1658940000000,1,27/07/2022 16:46,94050,2,task-k2dt,NA,23335245,6847796,NA,complete,NA,62e15d63d4b447135495cb0f,computer,Desktop or Laptop,Mac OS 10.15.7,Safari 15.4,1440x900,1440x797,NA,ITT Ratings,3,For,7,NA,NA,NA,NA,NA,ACCEPT,NA,NA,NA,NA,batch7hes,batch7hes,31,20,1,Screen 1,continueButton,response_rating_scale_likert_active,1995,NA,NA,Strongly Agree,1,0,1,0,NA,NA,NA,NA,1,statements,Don't want to spread the virus,1,17/05/2021 12:11,17/05/2021 12:24,783,Most months,Most months,27,Female,-99,"Undergraduate degree (BSc, BA)",65,1,Against,For
23,1658940000000,27/07/2022 15:46,1658940000000,1,27/07/2022 16:46,94050,2,task-k2dt,NA,23335245,6847796,NA,complete,NA,62e15d63d4b447135495cb0f,computer,Desktop or Laptop,Mac OS 10.15.7,Safari 15.4,1440x900,1440x797,NA,ITT Ratings,3,For,7,NA,NA,NA,NA,NA,ACCEPT,NA,NA,NA,NA,batch7hes,batch7hes,18,21,1,Screen 1,continueButton,response_rating_scale_likert_active,4825,NA,NA,Strongly Disagree,1,0,1,0,NA,NA,NA,NA,1,statements,The fast development was due to China sharing the COVID shape to the world so that it would reduce the time to research.,1,17/05/2021 12:08,17/05/2021 12:22,862,Rarely,Most months,20,Female,-99,A levels,63,3,Against,Against
24,1658940000000,27/07/2022 15:46,1658940000000,1,27/07/2022 16:46,94050,2,task-k2dt,NA,23335245,6847796,NA,complete,NA,62e15d63d4b447135495cb0f,computer,Desktop or Laptop,Mac OS 10.15.7,Safari 15.4,1440x900,1440x797,NA,ITT Ratings,3,For,7,NA,NA,NA,NA,NA,ACCEPT,NA,NA,NA,NA,batch7hes,batch7hes,16,22,1,Screen 1,continueButton,response_rating_scale_likert_active,10979,NA,NA,Neither Agree nor Disagree,1,0,1,0,NA,NA,NA,NA,1,statements,"Even though the development of the vaccine was fast, they have used RNA technology that took about 30 years to work effectively.",1,17/05/2021 12:08,17/05/2021 12:22,862,Rarely,Most months,20,Female,-99,A levels,63,1,Against,Against
25,1658940000000,27/07/2022 15:46,1658940000000,1,27/07/2022 16:46,94050,2,task-k2dt,NA,23335245,6847796,NA,complete,NA,62e15d63d4b447135495cb0f,computer,Desktop or Laptop,Mac OS 10.15.7,Safari 15.4,1440x900,1440x797,NA,ITT Ratings,3,For,7,NA,NA,NA,NA,NA,ACCEPT,NA,NA,NA,NA,batch7hes,batch7hes,32,23,1,Screen 1,continueButton,response_rating_scale_likert_active,1427,NA,NA,Strongly Agree,1,0,1,0,NA,NA,NA,NA,1,statements,Want to protect friends and family.,1,17/05/2021 12:11,17/05/2021 12:24,783,Most months,Most months,27,Female,-99,"Undergraduate degree (BSc, BA)",65,2,Against,For
26,1658940000000,27/07/2022 15:46,1658940000000,1,27/07/2022 16:46,94050,2,task-k2dt,NA,23335245,6847796,NA,complete,NA,62e15d63d4b447135495cb0f,computer,Desktop or Laptop,Mac OS 10.15.7,Safari 15.4,1440x900,1440x797,NA,ITT Ratings,3,For,7,NA,NA,NA,NA,NA,ACCEPT,NA,NA,NA,NA,batch7hes,batch7hes,48,24,1,Screen 1,continueButton,response_rating_scale_likert_active,3059,NA,NA,Strongly Agree,1,0,1,0,NA,NA,NA,NA,1,statements,The vaccine only partial projects and you will always take it like the flu jab,1,17/05/2021 12:22,17/05/2021 12:34,730,Once or twice a year,Most weeks,59,Male,-99,Vocational Training / Apprenticeship,68,3,Against,Against
27,1658940000000,27/07/2022 15:46,1658940000000,1,27/07/2022 16:46,94050,2,task-k2dt,NA,23335245,6847796,NA,complete,NA,62e15d63d4b447135495cb0f,computer,Desktop or Laptop,Mac OS 10.15.7,Safari 15.4,1440x900,1440x797,NA,ITT Ratings,3,For,7,NA,NA,NA,NA,NA,ACCEPT,NA,NA,NA,NA,batch7hes,batch7hes,40,25,1,Screen 1,continueButton,response_rating_scale_likert_active,1661,NA,NA,Strongly Disagree,1,0,1,0,NA,NA,NA,NA,1,statements,Don't know the long term effects,1,17/05/2021 12:21,17/05/2021 12:33,726,Most months,A few times a year,21,Female,-99,A levels,67,1,Against,Against
28,1658940000000,27/07/2022 15:46,1658940000000,1,27/07/2022 16:46,94050,2,task-k2dt,NA,23335245,6847796,NA,complete,NA,62e15d63d4b447135495cb0f,computer,Desktop or Laptop,Mac OS 10.15.7,Safari 15.4,1440x900,1440x797,NA,ITT Ratings,3,For,7,NA,NA,NA,NA,NA,ACCEPT,NA,NA,NA,NA,batch7hes,batch7hes,47,26,1,Screen 1,continueButton,response_rating_scale_likert_active,1565,NA,NA,Strongly Disagree,1,0,1,0,NA,NA,NA,NA,1,statements,Vaccine not fully tested,1,17/05/2021 12:22,17/05/2021 12:34,730,Once or twice a year,Most weeks,59,Male,-99,Vocational Training / Apprenticeship,68,2,Against,Against
29,1658940000000,27/07/2022 15:46,1658940000000,1,27/07/2022 16:46,94050,2,task-k2dt,NA,23335245,6847796,NA,complete,NA,62e15d63d4b447135495cb0f,computer,Desktop or Laptop,Mac OS 10.15.7,Safari 15.4,1440x900,1440x797,NA,ITT Ratings,3,For,7,NA,NA,NA,NA,NA,ACCEPT,NA,NA,NA,NA,batch7hes,batch7hes,33,27,1,Screen 1,continueButton,response_rating_scale_likert_active,2688,NA,NA,Somewhat Agree,1,0,1,0,NA,NA,NA,NA,1,statements,"Because X Y Z (friends, family, celebrity, influencer etc) has had it, so it should be safe.",1,17/05/2021 12:11,17/05/2021 12:24,783,Most months,Most months,27,Female,-99,"Undergraduate degree (BSc, BA)",65,3,Against,For
30,1658940000000,27/07/2022 15:46,1658940000000,1,27/07/2022 16:46,94050,2,task-k2dt,NA,23335245,6847796,NA,complete,NA,62e15d63d4b447135495cb0f,computer,Desktop or Laptop,Mac OS 10.15.7,Safari 15.4,1440x900,1440x797,NA,ITT Ratings,3,For,7,NA,NA,NA,NA,NA,ACCEPT,NA,NA,NA,NA,batch7hes,batch7hes,44,28,1,Screen 1,continueButton,response_rating_scale_likert_active,1540,NA,NA,Strongly Agree,1,0,1,0,NA,NA,NA,NA,1,statements,Protect others from getting the virus,1,17/05/2021 12:21,17/05/2021 12:33,726,Most months,A few times a year,21,Female,-99,A levels,67,2,Against,For
31,1658940000000,27/07/2022 15:46,1658940000000,1,27/07/2022 16:46,94050,2,task-k2dt,NA,23335245,6847796,NA,complete,NA,62e15d63d4b447135495cb0f,computer,Desktop or Laptop,Mac OS 10.15.7,Safari 15.4,1440x900,1440x797,NA,ITT Ratings,3,For,7,NA,NA,NA,NA,NA,ACCEPT,NA,NA,NA,NA,batch7hes,batch7hes,4,29,1,Screen 1,continueButton,response_rating_scale_likert_active,1715,NA,NA,Strongly Disagree,1,0,1,0,NA,NA,NA,NA,1,statements,Can't make a vaccine that quick.,1,17/05/2021 12:13,17/05/2021 12:18,332,Rarely,Rarely,31,Male,-99,"Undergraduate degree (BSc, BA)",61,1,Against,Against
32,1658940000000,27/07/2022 15:46,1658940000000,1,27/07/2022 16:46,94050,2,task-k2dt,NA,23335245,6847796,NA,complete,NA,62e15d63d4b447135495cb0f,computer,Desktop or Laptop,Mac OS 10.15.7,Safari 15.4,1440x900,1440x797,NA,ITT Ratings,3,For,7,NA,NA,NA,NA,NA,ACCEPT,NA,NA,NA,NA,batch7hes,batch7hes,38,30,1,Screen 1,continueButton,response_rating_scale_likert_active,1685,NA,NA,Strongly Agree,1,0,1,0,NA,NA,NA,NA,1,statements,Help prevent the spread,1,17/05/2021 12:21,17/05/2021 12:30,549,Most months,Most months,27,Female,-99,A levels,66,2,Against,For
33,1658940000000,27/07/2022 15:46,1658940000000,1,27/07/2022 16:46,94050,2,task-k2dt,NA,23335245,6847796,NA,complete,NA,62e15d63d4b447135495cb0f,computer,Desktop or Laptop,Mac OS 10.15.7,Safari 15.4,1440x900,1440x797,NA,ITT Ratings,3,For,7,NA,NA,NA,NA,NA,ACCEPT,NA,NA,NA,NA,batch7hes,batch7hes,19,31,1,Screen 1,continueButton,response_rating_scale_likert_active,2501,NA,NA,Strongly Disagree,1,0,1,0,NA,NA,NA,NA,1,statements,There have been 7 people that have died from it as it caused them a rare blood clot disease.,1,17/05/2021 12:08,17/05/2021 12:22,862,Rarely,Most months,20,Female,-99,A levels,63,1,Against,For
34,1658940000000,27/07/2022 15:46,1658940000000,1,27/07/2022 16:46,94050,2,task-k2dt,NA,23335245,6847796,NA,complete,NA,62e15d63d4b447135495cb0f,computer,Desktop or Laptop,Mac OS 10.15.7,Safari 15.4,1440x900,1440x797,NA,ITT Ratings,3,For,7,NA,NA,NA,NA,NA,ACCEPT,NA,NA,NA,NA,batch7hes,batch7hes,43,32,1,Screen 1,continueButton,response_rating_scale_likert_active,1862,NA,NA,Strongly Agree,1,0,1,0,NA,NA,NA,NA,1,statements,Protect yourself from getting the virus very badly,1,17/05/2021 12:21,17/05/2021 12:33,726,Most months,A few times a year,21,Female,-99,A levels,67,1,Against,For
35,1658940000000,27/07/2022 15:46,1658940000000,1,27/07/2022 16:46,94050,2,task-k2dt,NA,23335245,6847796,NA,complete,NA,62e15d63d4b447135495cb0f,computer,Desktop or Laptop,Mac OS 10.15.7,Safari 15.4,1440x900,1440x797,NA,ITT Ratings,3,For,7,NA,NA,NA,NA,NA,ACCEPT,NA,NA,NA,NA,batch7hes,batch7hes,59,33,1,Screen 1,continueButton,response_rating_scale_likert_active,2926,NA,NA,Disagree,1,0,1,0,NA,NA,NA,NA,1,statements,Vaccinations still won't return life back to normal,1,17/05/2021 12:18,17/05/2021 12:35,1078,Never,Never,34,Female,-99,No formal qualifications,70,2,Against,Against
36,1658940000000,27/07/2022 15:46,1658940000000,1,27/07/2022 16:46,94050,2,task-k2dt,NA,23335245,6847796,NA,complete,NA,62e15d63d4b447135495cb0f,computer,Desktop or Laptop,Mac OS 10.15.7,Safari 15.4,1440x900,1440x797,NA,ITT Ratings,3,For,7,NA,NA,NA,NA,NA,ACCEPT,NA,NA,NA,NA,batch7hes,batch7hes,11,34,1,Screen 1,continueButton,response_rating_scale_likert_active,2974,NA,NA,Strongly Disagree,1,0,1,0,NA,NA,NA,NA,1,statements,Vaccine was produced too quickly,1,17/05/2021 12:13,17/05/2021 12:20,381,Most weeks,Most months,36,Male,-99,A levels,62,2,Against,Against
37,1658940000000,27/07/2022 15:46,1658940000000,1,27/07/2022 16:46,94050,2,task-k2dt,NA,23335245,6847796,NA,complete,NA,62e15d63d4b447135495cb0f,computer,Desktop or Laptop,Mac OS 10.15.7,Safari 15.4,1440x900,1440x797,NA,ITT Ratings,3,For,7,NA,NA,NA,NA,NA,ACCEPT,NA,NA,NA,NA,batch7hes,batch7hes,35,35,1,Screen 1,continueButton,response_rating_scale_likert_active,945,NA,NA,Strongly Disagree,1,0,1,0,NA,NA,NA,NA,1,statements,Not enough time to develop the vaccine,1,17/05/2021 12:21,17/05/2021 12:30,549,Most months,Most months,27,Female,-99,A levels,66,2,Against,Against
38,1658940000000,27/07/2022 15:46,1658940000000,1,27/07/2022 16:46,94050,2,task-k2dt,NA,23335245,6847796,NA,complete,NA,62e15d63d4b447135495cb0f,computer,Desktop or Laptop,Mac OS 10.15.7,Safari 15.4,1440x900,1440x797,NA,ITT Ratings,3,For,7,NA,NA,NA,NA,NA,ACCEPT,NA,NA,NA,NA,batch7hes,batch7hes,56,36,1,Screen 1,continueButton,response_rating_scale_likert_active,1488,NA,NA,Strongly Agree,1,0,1,0,NA,NA,NA,NA,1,statements,I want to protect someone who is vulnerable,1,17/05/2021 12:30,17/05/2021 12:35,345,Most days,Most days,53,Female,-99,"GCSEs,Vocational Training / Apprenticeship",69,2,Against,For
39,1658940000000,27/07/2022 15:46,1658940000000,1,27/07/2022 16:46,94050,2,task-k2dt,NA,23335245,6847796,NA,complete,NA,62e15d63d4b447135495cb0f,computer,Desktop or Laptop,Mac OS 10.15.7,Safari 15.4,1440x900,1440x797,NA,ITT Ratings,3,For,7,NA,NA,NA,NA,NA,ACCEPT,NA,NA,NA,NA,batch7hes,batch7hes,24,37,1,Screen 1,continueButton,response_rating_scale_likert_active,1920,NA,NA,Strongly Disagree,1,0,1,0,NA,NA,NA,NA,1,statements,General disbelief in the effectiveness of requirement to be vaccinated in the first place,1,17/05/2021 12:03,17/05/2021 12:23,1164,Most weeks,Most days,34,Male,-99,A levels,64,3,Against,Against
40,1658940000000,27/07/2022 15:46,1658940000000,1,27/07/2022 16:46,94050,2,task-k2dt,NA,23335245,6847796,NA,complete,NA,62e15d63d4b447135495cb0f,computer,Desktop or Laptop,Mac OS 10.15.7,Safari 15.4,1440x900,1440x797,NA,ITT Ratings,3,For,7,NA,NA,NA,NA,NA,ACCEPT,NA,NA,NA,NA,batch7hes,batch7hes,37,38,1,Screen 1,continueButton,response_rating_scale_likert_active,1499,NA,NA,Strongly Disagree,1,0,1,0,NA,NA,NA,NA,1,statements,Less likely to get it,1,17/05/2021 12:21,17/05/2021 12:30,549,Most months,Most months,27,Female,-99,A levels,66,1,Against,For
41,1658940000000,27/07/2022 15:46,1658940000000,1,27/07/2022 16:46,94050,2,task-k2dt,NA,23335245,6847796,NA,complete,NA,62e15d63d4b447135495cb0f,computer,Desktop or Laptop,Mac OS 10.15.7,Safari 15.4,1440x900,1440x797,NA,ITT Ratings,3,For,7,NA,NA,NA,NA,NA,ACCEPT,NA,NA,NA,NA,batch7hes,batch7hes,7,39,1,Screen 1,continueButton,response_rating_scale_likert_active,1236,NA,NA,Strongly Agree,1,0,1,0,NA,NA,NA,NA,1,statements,To be safe from the virus.,1,17/05/2021 12:13,17/05/2021 12:18,332,Rarely,Rarely,31,Male,-99,"Undergraduate degree (BSc, BA)",61,1,Against,For
42,1658940000000,27/07/2022 15:47,1658940000000,1,27/07/2022 16:47,94050,2,task-k2dt,NA,23335245,6847796,NA,complete,NA,62e15d63d4b447135495cb0f,computer,Desktop or Laptop,Mac OS 10.15.7,Safari 15.4,1440x900,1440x797,NA,ITT Ratings,3,For,7,NA,NA,NA,NA,NA,ACCEPT,NA,NA,NA,NA,batch7hes,batch7hes,42,40,1,Screen 1,continueButton,response_rating_scale_likert_active,3592,NA,NA,Strongly Disagree,1,0,1,0,NA,NA,NA,NA,1,statements,It's scary to feel forced in to taking a vaccine that's just been developed,1,17/05/2021 12:21,17/05/2021 12:33,726,Most months,A few times a year,21,Female,-99,A levels,67,3,Against,Against
43,1658940000000,27/07/2022 15:47,1658940000000,1,27/07/2022 16:47,94050,2,task-k2dt,NA,23335245,6847796,NA,complete,NA,62e15d63d4b447135495cb0f,computer,Desktop or Laptop,Mac OS 10.15.7,Safari 15.4,1440x900,1440x797,NA,ITT Ratings,3,For,7,NA,NA,NA,NA,NA,ACCEPT,NA,NA,NA,NA,batch7hes,batch7hes,55,41,1,Screen 1,continueButton,response_rating_scale_likert_active,1647,NA,NA,Strongly Agree,1,0,1,0,NA,NA,NA,NA,1,statements,I want to be immunised against the virus,1,17/05/2021 12:30,17/05/2021 12:35,345,Most days,Most days,53,Female,-99,"GCSEs,Vocational Training / Apprenticeship",69,1,Against,For
44,1658940000000,27/07/2022 15:47,1658940000000,1,27/07/2022 16:47,94050,2,task-k2dt,NA,23335245,6847796,NA,complete,NA,62e15d63d4b447135495cb0f,computer,Desktop or Laptop,Mac OS 10.15.7,Safari 15.4,1440x900,1440x797,NA,ITT Ratings,3,For,7,NA,NA,NA,NA,NA,ACCEPT,NA,NA,NA,NA,batch7hes,batch7hes,20,42,1,Screen 1,continueButton,response_rating_scale_likert_active,2734,NA,NA,Strongly Disagree,1,0,1,0,NA,NA,NA,NA,1,statements,The research and development was too fast for a vaccine.,1,17/05/2021 12:08,17/05/2021 12:22,862,Rarely,Most months,20,Female,-99,A levels,63,2,Against,For
45,1658940000000,27/07/2022 15:47,1658940000000,1,27/07/2022 16:47,94050,2,task-k2dt,NA,23335245,6847796,NA,complete,NA,62e15d63d4b447135495cb0f,computer,Desktop or Laptop,Mac OS 10.15.7,Safari 15.4,1440x900,1440x797,NA,ITT Ratings,3,For,7,NA,NA,NA,NA,NA,ACCEPT,NA,NA,NA,NA,batch7hes,batch7hes,3,43,1,Screen 1,continueButton,response_rating_scale_likert_active,2662,NA,NA,Somewhat Disagree,1,0,1,0,NA,NA,NA,NA,1,statements,We would like to check you are reading each argument carefully. Please select 'Somewhat Disagree' for this answer,1,NA,NA,NA,NA,NA,NA,NA,NA,NA,NA,check2,NA,NA
46,1658940000000,27/07/2022 15:47,1658940000000,1,27/07/2022 16:47,94050,2,task-k2dt,NA,23335245,6847796,NA,complete,NA,62e15d63d4b447135495cb0f,computer,Desktop or Laptop,Mac OS 10.15.7,Safari 15.4,1440x900,1440x797,NA,ITT Ratings,3,For,7,NA,NA,NA,NA,NA,ACCEPT,NA,NA,NA,NA,batch7hes,batch7hes,13,44,1,Screen 1,continueButton,response_rating_scale_likert_active,2115,NA,NA,Strongly Agree,1,0,1,0,NA,NA,NA,NA,1,statements,It will fight covid in its path,1,17/05/2021 12:13,17/05/2021 12:20,381,Most weeks,Most months,36,Male,-99,A levels,62,1,Against,For
47,1658940000000,27/07/2022 15:47,1658940000000,1,27/07/2022 16:47,94050,2,task-k2dt,NA,23335245,6847796,NA,complete,NA,62e15d63d4b447135495cb0f,computer,Desktop or Laptop,Mac OS 10.15.7,Safari 15.4,1440x900,1440x797,NA,ITT Ratings,3,For,7,NA,NA,NA,NA,NA,ACCEPT,NA,NA,NA,NA,batch7hes,batch7hes,61,45,1,Screen 1,continueButton,response_rating_scale_likert_active,2924,NA,NA,Neither Agree nor Disagree,1,0,1,0,NA,NA,NA,NA,1,statements,Because I believe the fear,1,17/05/2021 12:18,17/05/2021 12:35,1078,Never,Never,34,Female,-99,No formal qualifications,70,1,Against,For
48,1658940000000,27/07/2022 15:47,1658940000000,1,27/07/2022 16:47,94050,2,task-k2dt,NA,23335245,6847796,NA,complete,NA,62e15d63d4b447135495cb0f,computer,Desktop or Laptop,Mac OS 10.15.7,Safari 15.4,1440x900,1440x797,NA,ITT Ratings,3,For,7,NA,NA,NA,NA,NA,ACCEPT,NA,NA,NA,NA,batch7hes,batch7hes,29,46,1,Screen 1,continueButton,response_rating_scale_likert_active,2385,NA,NA,Strongly Disagree,1,0,1,0,NA,NA,NA,NA,1,statements,It has not been developed long enough to see the reactions or effectiveness.,1,17/05/2021 12:11,17/05/2021 12:24,783,Most months,Most months,27,Female,-99,"Undergraduate degree (BSc, BA)",65,2,Against,Against
49,1658940000000,27/07/2022 15:47,1658940000000,1,27/07/2022 16:47,94050,2,task-k2dt,NA,23335245,6847796,NA,complete,NA,62e15d63d4b447135495cb0f,computer,Desktop or Laptop,Mac OS 10.15.7,Safari 15.4,1440x900,1440x797,NA,ITT Ratings,3,For,7,NA,NA,NA,NA,NA,ACCEPT,NA,NA,NA,NA,batch7hes,batch7hes,27,47,1,Screen 1,continueButton,response_rating_scale_likert_active,2531,NA,NA,Strongly Agree,1,0,1,0,NA,NA,NA,NA,1,statements,"Feel like there is no choice in the matter other than too have the vaccination to support friends, family etc",1,17/05/2021 12:03,17/05/2021 12:23,1164,Most weeks,Most days,34,Male,-99,A levels,64,3,Against,For
50,1658940000000,27/07/2022 15:47,1658940000000,1,27/07/2022 16:47,94050,2,task-k2dt,NA,23335245,6847796,NA,complete,NA,62e15d63d4b447135495cb0f,computer,Desktop or Laptop,Mac OS 10.15.7,Safari 15.4,1440x900,1440x797,NA,ITT Ratings,3,For,7,NA,NA,NA,NA,NA,ACCEPT,NA,NA,NA,NA,batch7hes,batch7hes,25,48,1,Screen 1,continueButton,response_rating_scale_likert_active,1512,NA,NA,Strongly Agree,1,0,1,0,NA,NA,NA,NA,1,statements,Get life back to some sort of new normal with lifting restrictions on everyday life,1,17/05/2021 12:03,17/05/2021 12:23,1164,Most weeks,Most days,34,Male,-99,A levels,64,1,Against,For
51,1658940000000,27/07/2022 15:47,1658940000000,1,27/07/2022 16:47,94050,2,task-k2dt,NA,23335245,6847796,NA,complete,NA,62e15d63d4b447135495cb0f,computer,Desktop or Laptop,Mac OS 10.15.7,Safari 15.4,1440x900,1440x797,NA,ITT Ratings,3,For,7,NA,NA,NA,NA,NA,ACCEPT,NA,NA,NA,NA,batch7hes,batch7hes,39,49,1,Screen 1,continueButton,response_rating_scale_likert_active,2522,NA,NA,Strongly Agree,1,0,1,0,NA,NA,NA,NA,1,statements,To help protect against Underlying health conditions,1,17/05/2021 12:21,17/05/2021 12:30,549,Most months,Most months,27,Female,-99,A levels,66,3,Against,For
52,1658940000000,27/07/2022 15:47,1658940000000,1,27/07/2022 16:47,94050,2,task-k2dt,NA,23335245,6847796,NA,complete,NA,62e15d63d4b447135495cb0f,computer,Desktop or Laptop,Mac OS 10.15.7,Safari 15.4,1440x900,1440x797,NA,ITT Ratings,3,For,7,NA,NA,NA,NA,NA,ACCEPT,NA,NA,NA,NA,batch7hes,batch7hes,30,50,1,Screen 1,continueButton,response_rating_scale_likert_active,2875,NA,NA,Strongly Disagree,1,0,1,0,NA,NA,NA,NA,1,statements,There are natural ways to help boost the immune system and fight the virus instead of putting artificial substances into the body.,1,17/05/2021 12:11,17/05/2021 12:24,783,Most months,Most months,27,Female,-99,"Undergraduate degree (BSc, BA)",65,3,Against,Against
53,1658940000000,27/07/2022 15:47,1658940000000,1,27/07/2022 16:47,94050,2,task-k2dt,NA,23335245,6847796,NA,complete,NA,62e15d63d4b447135495cb0f,computer,Desktop or Laptop,Mac OS 10.15.7,Safari 15.4,1440x900,1440x797,NA,ITT Ratings,3,For,7,NA,NA,NA,NA,NA,ACCEPT,NA,NA,NA,NA,batch7hes,batch7hes,57,51,1,Screen 1,continueButton,response_rating_scale_likert_active,1714,NA,NA,Strongly Agree,1,0,1,0,NA,NA,NA,NA,1,statements,I want to help stop the spread of the virus,1,17/05/2021 12:30,17/05/2021 12:35,345,Most days,Most days,53,Female,-99,"GCSEs,Vocational Training / Apprenticeship",69,3,Against,For
54,1658940000000,27/07/2022 15:47,1658940000000,1,27/07/2022 16:47,94050,2,task-k2dt,NA,23335245,6847796,NA,complete,NA,62e15d63d4b447135495cb0f,computer,Desktop or Laptop,Mac OS 10.15.7,Safari 15.4,1440x900,1440x797,NA,ITT Ratings,3,For,7,NA,NA,NA,NA,NA,ACCEPT,NA,NA,NA,NA,batch7hes,batch7hes,22,52,1,Screen 1,continueButton,response_rating_scale_likert_active,1995,NA,NA,Strongly Disagree,1,0,1,0,NA,NA,NA,NA,1,statements,Concern over a reaction to the vaccine,1,17/05/2021 12:03,17/05/2021 12:23,1164,Most weeks,Most days,34,Male,-99,A levels,64,1,Against,Against
55,1658940000000,27/07/2022 15:47,1658940000000,1,27/07/2022 16:47,94050,2,task-k2dt,NA,23335245,6847796,NA,complete,NA,62e15d63d4b447135495cb0f,computer,Desktop or Laptop,Mac OS 10.15.7,Safari 15.4,1440x900,1440x797,NA,ITT Ratings,3,For,7,NA,NA,NA,NA,NA,ACCEPT,NA,NA,NA,NA,batch7hes,batch7hes,62,53,1,Screen 1,continueButton,response_rating_scale_likert_active,2168,NA,NA,Strongly Agree,1,0,1,0,NA,NA,NA,NA,1,statements,Because I believe the death rate,1,17/05/2021 12:18,17/05/2021 12:35,1078,Never,Never,34,Female,-99,No formal qualifications,70,2,Against,For
56,1658940000000,27/07/2022 15:47,1658940000000,1,27/07/2022 16:47,94050,2,task-k2dt,NA,23335245,6847796,NA,complete,NA,62e15d63d4b447135495cb0f,computer,Desktop or Laptop,Mac OS 10.15.7,Safari 15.4,1440x900,1440x797,NA,ITT Ratings,3,For,7,NA,NA,NA,NA,NA,ACCEPT,NA,NA,NA,NA,batch7hes,batch7hes,10,54,1,Screen 1,continueButton,response_rating_scale_likert_active,1887,NA,NA,Strongly Disagree,1,0,1,0,NA,NA,NA,NA,1,statements,Unsure of side effects,1,17/05/2021 12:13,17/05/2021 12:20,381,Most weeks,Most months,36,Male,-99,A levels,62,1,Against,Against
57,1658940000000,27/07/2022 15:47,1658940000000,1,27/07/2022 16:47,94050,2,task-k2dt,NA,23335245,6847796,NA,complete,NA,62e15d63d4b447135495cb0f,computer,Desktop or Laptop,Mac OS 10.15.7,Safari 15.4,1440x900,1440x797,NA,ITT Ratings,3,For,7,NA,NA,NA,NA,NA,ACCEPT,NA,NA,NA,NA,batch7hes,batch7hes,9,55,1,Screen 1,continueButton,response_rating_scale_likert_active,1631,NA,NA,Strongly Agree,1,0,1,0,NA,NA,NA,NA,1,statements,To reduce the amount of deaths.,1,17/05/2021 12:13,17/05/2021 12:18,332,Rarely,Rarely,31,Male,-99,"Undergraduate degree (BSc, BA)",61,3,Against,For
58,1658940000000,27/07/2022 15:47,1658940000000,1,27/07/2022 16:47,94050,2,task-k2dt,NA,23335245,6847796,NA,complete,NA,62e15d63d4b447135495cb0f,computer,Desktop or Laptop,Mac OS 10.15.7,Safari 15.4,1440x900,1440x797,NA,ITT Ratings,3,For,7,NA,NA,NA,NA,NA,ACCEPT,NA,NA,NA,NA,batch7hes,batch7hes,52,56,1,Screen 1,continueButton,response_rating_scale_likert_active,1357,NA,NA,Strongly Disagree,1,0,1,0,NA,NA,NA,NA,1,statements,I think it is dangerous,1,17/05/2021 12:30,17/05/2021 12:35,345,Most days,Most days,53,Female,-99,"GCSEs,Vocational Training / Apprenticeship",69,1,Against,Against
59,1658940000000,27/07/2022 15:47,1658940000000,1,27/07/2022 16:47,94050,2,task-k2dt,NA,23335245,6847796,NA,complete,NA,62e15d63d4b447135495cb0f,computer,Desktop or Laptop,Mac OS 10.15.7,Safari 15.4,1440x900,1440x797,NA,ITT Ratings,3,For,7,NA,NA,NA,NA,NA,ACCEPT,NA,NA,NA,NA,batch7hes,batch7hes,41,57,1,Screen 1,continueButton,response_rating_scale_likert_active,2960,NA,NA,Strongly Disagree,1,0,1,0,NA,NA,NA,NA,1,statements,It doesnt stop the spread just how much it impacts so young people wouldn't need it as much,1,17/05/2021 12:21,17/05/2021 12:33,726,Most months,A few times a year,21,Female,-99,A levels,67,2,Against,Against
60,1658940000000,27/07/2022 15:47,1658940000000,1,27/07/2022 16:47,94050,2,task-k2dt,NA,23335245,6847796,NA,complete,NA,62e15d63d4b447135495cb0f,computer,Desktop or Laptop,Mac OS 10.15.7,Safari 15.4,1440x900,1440x797,NA,ITT Ratings,3,For,7,NA,NA,NA,NA,NA,ACCEPT,NA,NA,NA,NA,batch7hes,batch7hes,53,58,1,Screen 1,continueButton,response_rating_scale_likert_active,1926,NA,NA,Strongly Disagree,1,0,1,0,NA,NA,NA,NA,1,statements,I think it is ineffective,1,17/05/2021 12:30,17/05/2021 12:35,345,Most days,Most days,53,Female,-99,"GCSEs,Vocational Training / Apprenticeship",69,2,Against,Against
61,1658940000000,27/07/2022 15:47,1658940000000,1,27/07/2022 16:47,94050,2,task-k2dt,NA,23335245,6847796,NA,complete,NA,62e15d63d4b447135495cb0f,computer,Desktop or Laptop,Mac OS 10.15.7,Safari 15.4,1440x900,1440x797,NA,ITT Ratings,3,For,7,NA,NA,NA,NA,NA,ACCEPT,NA,NA,NA,NA,batch7hes,batch7hes,15,59,1,Screen 1,continueButton,response_rating_scale_likert_active,3811,NA,NA,Agree,1,0,1,0,NA,NA,NA,NA,1,statements,ItÈs in the countries best interest,1,17/05/2021 12:13,17/05/2021 12:20,381,Most weeks,Most months,36,Male,-99,A levels,62,3,Against,For
62,1658940000000,27/07/2022 15:47,1658940000000,1,27/07/2022 16:47,94050,2,task-k2dt,NA,23335245,6847796,NA,complete,NA,62e15d63d4b447135495cb0f,computer,Desktop or Laptop,Mac OS 10.15.7,Safari 15.4,1440x900,1440x797,NA,ITT Ratings,3,For,7,NA,NA,NA,NA,NA,ACCEPT,NA,NA,NA,NA,batch7hes,batch7hes,63,60,1,Screen 1,continueButton,response_rating_scale_likert_active,1517,NA,NA,Agree,1,0,1,0,NA,NA,NA,NA,1,statements,Because I think life will return to normal but loads vaccinated and nothing changes,1,17/05/2021 12:18,17/05/2021 12:35,1078,Never,Never,34,Female,-99,No formal qualifications,70,3,Against,For
63,1658940000000,27/07/2022 15:47,1658940000000,1,27/07/2022 16:47,94050,2,task-k2dt,NA,23335245,6847796,NA,complete,NA,62e15d63d4b447135495cb0f,computer,Desktop or Laptop,Mac OS 10.15.7,Safari 15.4,1440x900,1440x797,NA,ITT Ratings,3,For,7,NA,NA,NA,NA,NA,ACCEPT,NA,NA,NA,NA,batch7hes,batch7hes,36,61,1,Screen 1,continueButton,response_rating_scale_likert_active,4042,NA,NA,Strongly Disagree,1,0,1,0,NA,NA,NA,NA,1,statements,Side effects or risks of taking the vaccine,1,17/05/2021 12:21,17/05/2021 12:30,549,Most months,Most months,27,Female,-99,A levels,66,3,Against,Against
64,1658940000000,27/07/2022 15:47,1658940000000,1,27/07/2022 16:47,94050,2,task-k2dt,NA,23335245,6847796,NA,complete,NA,62e15d63d4b447135495cb0f,computer,Desktop or Laptop,Mac OS 10.15.7,Safari 15.4,1440x900,1440x797,NA,ITT Ratings,3,For,7,NA,NA,NA,NA,NA,ACCEPT,NA,NA,NA,NA,batch7hes,batch7hes,5,62,1,Screen 1,continueButton,response_rating_scale_likert_active,1658,NA,NA,Strongly Disagree,1,0,1,0,NA,NA,NA,NA,1,statements,Don't trust the people who are in charge of creating a vaccine.,1,17/05/2021 12:13,17/05/2021 12:18,332,Rarely,Rarely,31,Male,-99,"Undergraduate degree (BSc, BA)",61,2,Against,Against
65,1658940000000,27/07/2022 15:47,1658940000000,1,27/07/2022 16:47,94050,2,task-k2dt,NA,23335245,6847796,NA,complete,NA,62e15d63d4b447135495cb0f,computer,Desktop or Laptop,Mac OS 10.15.7,Safari 15.4,1440x900,1440x797,NA,ITT Ratings,3,For,7,NA,NA,NA,NA,NA,ACCEPT,NA,NA,NA,NA,batch7hes,NA,NA,END TASK,NA,NA,NA,NA,174581,NA,NA,NA,NA,0,1,0,NA,NA,NA,NA,NA,NA,NA,NA,NA,NA,NA,NA,NA,NA,NA,NA,NA,NA,NA,NA,NA
1,1658940000000,27/07/2022 15:46,1658940000000,1,27/07/2022 16:46,94050,2,task-k2dt,NA,23335301,6847806,NA,complete,NA,62e15d7c958973e66c7d8534,computer,Desktop or Laptop,Windows 10,Chrome 103.0.0.0,2560x1080,1212x782,NA,ITT Ratings,3,For,7,NA,NA,NA,NA,NA,ACCEPT,NA,NA,NA,NA,batch7hes,NA,NA,BEGIN TASK,NA,NA,NA,NA,NA,NA,NA,NA,NA,0,1,0,NA,NA,NA,NA,NA,NA,NA,NA,NA,NA,NA,NA,NA,NA,NA,NA,NA,NA,NA,NA,NA
2,1658940000000,27/07/2022 15:46,1658940000000,1,27/07/2022 16:46,94050,2,task-k2dt,NA,23335301,6847806,NA,complete,NA,62e15d7c958973e66c7d8534,computer,Desktop or Laptop,Windows 10,Chrome 103.0.0.0,2560x1080,1212x782,NA,ITT Ratings,3,For,7,NA,NA,NA,NA,NA,ACCEPT,NA,NA,NA,NA,batch7hes,batch7hes,1,1,1,Screen 1,advancementZone,continue_button,33692.2,NA,NA,NA,NA,0,1,0,NA,NA,NA,NA,NA,instructions,NA,NA,NA,NA,NA,NA,NA,NA,NA,NA,NA,NA,NA,NA,NA
3,1658940000000,27/07/2022 15:46,1658940000000,1,27/07/2022 16:46,94050,2,task-k2dt,NA,23335301,6847806,NA,complete,NA,62e15d7c958973e66c7d8534,computer,Desktop or Laptop,Windows 10,Chrome 103.0.0.0,2560x1080,1212x782,NA,ITT Ratings,3,For,7,NA,NA,NA,NA,NA,ACCEPT,NA,NA,NA,NA,batch7hes,batch7hes,36,1,1,Screen 1,continueButton,response_rating_scale_likert_active,7763,NA,NA,Somewhat Agree,1,0,1,0,NA,NA,NA,NA,1,statements,Side effects or risks of taking the vaccine,1,17/05/2021 12:21,17/05/2021 12:30,549,Most months,Most months,27,Female,-99,A levels,66,3,Against,Against
4,1658940000000,27/07/2022 15:46,1658940000000,1,27/07/2022 16:46,94050,2,task-k2dt,NA,23335301,6847806,NA,complete,NA,62e15d7c958973e66c7d8534,computer,Desktop or Laptop,Windows 10,Chrome 103.0.0.0,2560x1080,1212x782,NA,ITT Ratings,3,For,7,NA,NA,NA,NA,NA,ACCEPT,NA,NA,NA,NA,batch7hes,batch7hes,44,2,1,Screen 1,continueButton,response_rating_scale_likert_active,6501.5,NA,NA,Somewhat Agree,1,0,1,0,NA,NA,NA,NA,1,statements,Protect others from getting the virus,1,17/05/2021 12:21,17/05/2021 12:33,726,Most months,A few times a year,21,Female,-99,A levels,67,2,Against,For
5,1658940000000,27/07/2022 15:47,1658940000000,1,27/07/2022 16:47,94050,2,task-k2dt,NA,23335301,6847806,NA,complete,NA,62e15d7c958973e66c7d8534,computer,Desktop or Laptop,Windows 10,Chrome 103.0.0.0,2560x1080,1212x782,NA,ITT Ratings,3,For,7,NA,NA,NA,NA,NA,ACCEPT,NA,NA,NA,NA,batch7hes,batch7hes,53,3,1,Screen 1,continueButton,response_rating_scale_likert_active,3503,NA,NA,Disagree,1,0,1,0,NA,NA,NA,NA,1,statements,I think it is ineffective,1,17/05/2021 12:30,17/05/2021 12:35,345,Most days,Most days,53,Female,-99,"GCSEs,Vocational Training / Apprenticeship",69,2,Against,Against
6,1658940000000,27/07/2022 15:47,1658940000000,1,27/07/2022 16:47,94050,2,task-k2dt,NA,23335301,6847806,NA,complete,NA,62e15d7c958973e66c7d8534,computer,Desktop or Laptop,Windows 10,Chrome 103.0.0.0,2560x1080,1212x782,NA,ITT Ratings,3,For,7,NA,NA,NA,NA,NA,ACCEPT,NA,NA,NA,NA,batch7hes,batch7hes,61,4,1,Screen 1,continueButton,response_rating_scale_likert_active,4150.3,NA,NA,Disagree,1,0,1,0,NA,NA,NA,NA,1,statements,Because I believe the fear,1,17/05/2021 12:18,17/05/2021 12:35,1078,Never,Never,34,Female,-99,No formal qualifications,70,1,Against,For
7,1658940000000,27/07/2022 15:47,1658940000000,1,27/07/2022 16:47,94050,2,task-k2dt,NA,23335301,6847806,NA,complete,NA,62e15d7c958973e66c7d8534,computer,Desktop or Laptop,Windows 10,Chrome 103.0.0.0,2560x1080,1212x782,NA,ITT Ratings,3,For,7,NA,NA,NA,NA,NA,ACCEPT,NA,NA,NA,NA,batch7hes,batch7hes,6,5,1,Screen 1,continueButton,response_rating_scale_likert_active,8000.5,NA,NA,Agree,1,0,1,0,NA,NA,NA,NA,1,statements,Telling us lies on how everything started out from the virus from day one.,1,17/05/2021 12:13,17/05/2021 12:18,332,Rarely,Rarely,31,Male,-99,"Undergraduate degree (BSc, BA)",61,3,Against,Against
8,1658940000000,27/07/2022 15:47,1658940000000,1,27/07/2022 16:47,94050,2,task-k2dt,NA,23335301,6847806,NA,complete,NA,62e15d7c958973e66c7d8534,computer,Desktop or Laptop,Windows 10,Chrome 103.0.0.0,2560x1080,1212x782,NA,ITT Ratings,3,For,7,NA,NA,NA,NA,NA,ACCEPT,NA,NA,NA,NA,batch7hes,batch7hes,50,6,1,Screen 1,continueButton,response_rating_scale_likert_active,2904.4,NA,NA,Strongly Disagree,1,0,1,0,NA,NA,NA,NA,1,statements,I am an elderly person,1,17/05/2021 12:22,17/05/2021 12:34,730,Once or twice a year,Most weeks,59,Male,-99,Vocational Training / Apprenticeship,68,2,Against,For
9,1658940000000,27/07/2022 15:47,1658940000000,1,27/07/2022 16:47,94050,2,task-k2dt,NA,23335301,6847806,NA,complete,NA,62e15d7c958973e66c7d8534,computer,Desktop or Laptop,Windows 10,Chrome 103.0.0.0,2560x1080,1212x782,NA,ITT Ratings,3,For,7,NA,NA,NA,NA,NA,ACCEPT,NA,NA,NA,NA,batch7hes,batch7hes,27,7,1,Screen 1,continueButton,response_rating_scale_likert_active,5855.5,NA,NA,Agree,1,0,1,0,NA,NA,NA,NA,1,statements,"Feel like there is no choice in the matter other than too have the vaccination to support friends, family etc",1,17/05/2021 12:03,17/05/2021 12:23,1164,Most weeks,Most days,34,Male,-99,A levels,64,3,Against,For
10,1658940000000,27/07/2022 15:47,1658940000000,1,27/07/2022 16:47,94050,2,task-k2dt,NA,23335301,6847806,NA,complete,NA,62e15d7c958973e66c7d8534,computer,Desktop or Laptop,Windows 10,Chrome 103.0.0.0,2560x1080,1212x782,NA,ITT Ratings,3,For,7,NA,NA,NA,NA,NA,ACCEPT,NA,NA,NA,NA,batch7hes,batch7hes,41,8,1,Screen 1,continueButton,response_rating_scale_likert_active,5632.7,NA,NA,Agree,1,0,1,0,NA,NA,NA,NA,1,statements,It doesnt stop the spread just how much it impacts so young people wouldn't need it as much,1,17/05/2021 12:21,17/05/2021 12:33,726,Most months,A few times a year,21,Female,-99,A levels,67,2,Against,Against
11,1658940000000,27/07/2022 15:47,1658940000000,1,27/07/2022 16:47,94050,2,task-k2dt,NA,23335301,6847806,NA,complete,NA,62e15d7c958973e66c7d8534,computer,Desktop or Laptop,Windows 10,Chrome 103.0.0.0,2560x1080,1212x782,NA,ITT Ratings,3,For,7,NA,NA,NA,NA,NA,ACCEPT,NA,NA,NA,NA,batch7hes,batch7hes,60,9,1,Screen 1,continueButton,response_rating_scale_likert_active,6255.2,NA,NA,Neither Agree nor Disagree,1,0,1,0,NA,NA,NA,NA,1,statements,Because of what's in it,1,17/05/2021 12:18,17/05/2021 12:35,1078,Never,Never,34,Female,-99,No formal qualifications,70,3,Against,Against
12,1658940000000,27/07/2022 15:47,1658940000000,1,27/07/2022 16:47,94050,2,task-k2dt,NA,23335301,6847806,NA,complete,NA,62e15d7c958973e66c7d8534,computer,Desktop or Laptop,Windows 10,Chrome 103.0.0.0,2560x1080,1212x782,NA,ITT Ratings,3,For,7,NA,NA,NA,NA,NA,ACCEPT,NA,NA,NA,NA,batch7hes,batch7hes,56,10,1,Screen 1,continueButton,response_rating_scale_likert_active,3401,NA,NA,Agree,1,0,1,0,NA,NA,NA,NA,1,statements,I want to protect someone who is vulnerable,1,17/05/2021 12:30,17/05/2021 12:35,345,Most days,Most days,53,Female,-99,"GCSEs,Vocational Training / Apprenticeship",69,2,Against,For
13,1658940000000,27/07/2022 15:47,1658940000000,1,27/07/2022 16:47,94050,2,task-k2dt,NA,23335301,6847806,NA,complete,NA,62e15d7c958973e66c7d8534,computer,Desktop or Laptop,Windows 10,Chrome 103.0.0.0,2560x1080,1212x782,NA,ITT Ratings,3,For,7,NA,NA,NA,NA,NA,ACCEPT,NA,NA,NA,NA,batch7hes,batch7hes,22,11,1,Screen 1,continueButton,response_rating_scale_likert_active,2448.8,NA,NA,Agree,1,0,1,0,NA,NA,NA,NA,1,statements,Concern over a reaction to the vaccine,1,17/05/2021 12:03,17/05/2021 12:23,1164,Most weeks,Most days,34,Male,-99,A levels,64,1,Against,Against
14,1658940000000,27/07/2022 15:47,1658940000000,1,27/07/2022 16:47,94050,2,task-k2dt,NA,23335301,6847806,NA,complete,NA,62e15d7c958973e66c7d8534,computer,Desktop or Laptop,Windows 10,Chrome 103.0.0.0,2560x1080,1212x782,NA,ITT Ratings,3,For,7,NA,NA,NA,NA,NA,ACCEPT,NA,NA,NA,NA,batch7hes,batch7hes,26,12,1,Screen 1,continueButton,response_rating_scale_likert_active,4441.1,NA,NA,Somewhat Agree,1,0,1,0,NA,NA,NA,NA,1,statements,Full confidence in the safety of the vaccination program,1,17/05/2021 12:03,17/05/2021 12:23,1164,Most weeks,Most days,34,Male,-99,A levels,64,2,Against,For
15,1658940000000,27/07/2022 15:47,1658940000000,1,27/07/2022 16:47,94050,2,task-k2dt,NA,23335301,6847806,NA,complete,NA,62e15d7c958973e66c7d8534,computer,Desktop or Laptop,Windows 10,Chrome 103.0.0.0,2560x1080,1212x782,NA,ITT Ratings,3,For,7,NA,NA,NA,NA,NA,ACCEPT,NA,NA,NA,NA,batch7hes,batch7hes,19,13,1,Screen 1,continueButton,response_rating_scale_likert_active,7177.6,NA,NA,Neither Agree nor Disagree,1,0,1,0,NA,NA,NA,NA,1,statements,There have been 7 people that have died from it as it caused them a rare blood clot disease.,1,17/05/2021 12:08,17/05/2021 12:22,862,Rarely,Most months,20,Female,-99,A levels,63,1,Against,For
16,1658940000000,27/07/2022 15:47,1658940000000,1,27/07/2022 16:47,94050,2,task-k2dt,NA,23335301,6847806,NA,complete,NA,62e15d7c958973e66c7d8534,computer,Desktop or Laptop,Windows 10,Chrome 103.0.0.0,2560x1080,1212x782,NA,ITT Ratings,3,For,7,NA,NA,NA,NA,NA,ACCEPT,NA,NA,NA,NA,batch7hes,batch7hes,10,14,1,Screen 1,continueButton,response_rating_scale_likert_active,2457.1,NA,NA,Somewhat Agree,1,0,1,0,NA,NA,NA,NA,1,statements,Unsure of side effects,1,17/05/2021 12:13,17/05/2021 12:20,381,Most weeks,Most months,36,Male,-99,A levels,62,1,Against,Against
17,1658940000000,27/07/2022 15:47,1658940000000,1,27/07/2022 16:47,94050,2,task-k2dt,NA,23335301,6847806,NA,complete,NA,62e15d7c958973e66c7d8534,computer,Desktop or Laptop,Windows 10,Chrome 103.0.0.0,2560x1080,1212x782,NA,ITT Ratings,3,For,7,NA,NA,NA,NA,NA,ACCEPT,NA,NA,NA,NA,batch7hes,batch7hes,40,15,1,Screen 1,continueButton,response_rating_scale_likert_active,3473.1,NA,NA,Strongly Agree,1,0,1,0,NA,NA,NA,NA,1,statements,Don't know the long term effects,1,17/05/2021 12:21,17/05/2021 12:33,726,Most months,A few times a year,21,Female,-99,A levels,67,1,Against,Against
18,1658940000000,27/07/2022 15:48,1658940000000,1,27/07/2022 16:48,94050,2,task-k2dt,NA,23335301,6847806,NA,complete,NA,62e15d7c958973e66c7d8534,computer,Desktop or Laptop,Windows 10,Chrome 103.0.0.0,2560x1080,1212x782,NA,ITT Ratings,3,For,7,NA,NA,NA,NA,NA,ACCEPT,NA,NA,NA,NA,batch7hes,batch7hes,3,16,1,Screen 1,continueButton,response_rating_scale_likert_active,7641.6,NA,NA,Somewhat Disagree,1,0,1,0,NA,NA,NA,NA,1,statements,We would like to check you are reading each argument carefully. Please select 'Somewhat Disagree' for this answer,1,NA,NA,NA,NA,NA,NA,NA,NA,NA,NA,check2,NA,NA
19,1658940000000,27/07/2022 15:48,1658940000000,1,27/07/2022 16:48,94050,2,task-k2dt,NA,23335301,6847806,NA,complete,NA,62e15d7c958973e66c7d8534,computer,Desktop or Laptop,Windows 10,Chrome 103.0.0.0,2560x1080,1212x782,NA,ITT Ratings,3,For,7,NA,NA,NA,NA,NA,ACCEPT,NA,NA,NA,NA,batch7hes,batch7hes,35,17,1,Screen 1,continueButton,response_rating_scale_likert_active,3544,NA,NA,Neither Agree nor Disagree,1,0,1,0,NA,NA,NA,NA,1,statements,Not enough time to develop the vaccine,1,17/05/2021 12:21,17/05/2021 12:30,549,Most months,Most months,27,Female,-99,A levels,66,2,Against,Against
20,1658940000000,27/07/2022 15:48,1658940000000,1,27/07/2022 16:48,94050,2,task-k2dt,NA,23335301,6847806,NA,complete,NA,62e15d7c958973e66c7d8534,computer,Desktop or Laptop,Windows 10,Chrome 103.0.0.0,2560x1080,1212x782,NA,ITT Ratings,3,For,7,NA,NA,NA,NA,NA,ACCEPT,NA,NA,NA,NA,batch7hes,batch7hes,2,18,1,Screen 1,continueButton,response_rating_scale_likert_active,5009.6,NA,NA,Somewhat Agree,1,0,1,0,NA,NA,NA,NA,1,statements,We would like to check you are reading each argument carefully. Please select 'Somewhat Agree' for this answer,1,NA,NA,NA,NA,NA,NA,NA,NA,NA,NA,check1,NA,NA
21,1658940000000,27/07/2022 15:48,1658940000000,1,27/07/2022 16:48,94050,2,task-k2dt,NA,23335301,6847806,NA,complete,NA,62e15d7c958973e66c7d8534,computer,Desktop or Laptop,Windows 10,Chrome 103.0.0.0,2560x1080,1212x782,NA,ITT Ratings,3,For,7,NA,NA,NA,NA,NA,ACCEPT,NA,NA,NA,NA,batch7hes,batch7hes,15,19,1,Screen 1,continueButton,response_rating_scale_likert_active,5765.1,NA,NA,Somewhat Agree,1,0,1,0,NA,NA,NA,NA,1,statements,ItÈs in the countries best interest,1,17/05/2021 12:13,17/05/2021 12:20,381,Most weeks,Most months,36,Male,-99,A levels,62,3,Against,For
22,1658940000000,27/07/2022 15:48,1658940000000,1,27/07/2022 16:48,94050,2,task-k2dt,NA,23335301,6847806,NA,complete,NA,62e15d7c958973e66c7d8534,computer,Desktop or Laptop,Windows 10,Chrome 103.0.0.0,2560x1080,1212x782,NA,ITT Ratings,3,For,7,NA,NA,NA,NA,NA,ACCEPT,NA,NA,NA,NA,batch7hes,batch7hes,45,20,1,Screen 1,continueButton,response_rating_scale_likert_active,3337.4,NA,NA,Neither Agree nor Disagree,1,0,1,0,NA,NA,NA,NA,1,statements,The best scientist have made it so it should be safe,1,17/05/2021 12:21,17/05/2021 12:33,726,Most months,A few times a year,21,Female,-99,A levels,67,3,Against,For
23,1658940000000,27/07/2022 15:48,1658940000000,1,27/07/2022 16:48,94050,2,task-k2dt,NA,23335301,6847806,NA,complete,NA,62e15d7c958973e66c7d8534,computer,Desktop or Laptop,Windows 10,Chrome 103.0.0.0,2560x1080,1212x782,NA,ITT Ratings,3,For,7,NA,NA,NA,NA,NA,ACCEPT,NA,NA,NA,NA,batch7hes,batch7hes,37,21,1,Screen 1,continueButton,response_rating_scale_likert_active,3560.5,NA,NA,Neither Agree nor Disagree,1,0,1,0,NA,NA,NA,NA,1,statements,Less likely to get it,1,17/05/2021 12:21,17/05/2021 12:30,549,Most months,Most months,27,Female,-99,A levels,66,1,Against,For
24,1658940000000,27/07/2022 15:48,1658940000000,1,27/07/2022 16:48,94050,2,task-k2dt,NA,23335301,6847806,NA,complete,NA,62e15d7c958973e66c7d8534,computer,Desktop or Laptop,Windows 10,Chrome 103.0.0.0,2560x1080,1212x782,NA,ITT Ratings,3,For,7,NA,NA,NA,NA,NA,ACCEPT,NA,NA,NA,NA,batch7hes,batch7hes,16,22,1,Screen 1,continueButton,response_rating_scale_likert_active,11105.4,NA,NA,Neither Agree nor Disagree,1,0,1,0,NA,NA,NA,NA,1,statements,"Even though the development of the vaccine was fast, they have used RNA technology that took about 30 years to work effectively.",1,17/05/2021 12:08,17/05/2021 12:22,862,Rarely,Most months,20,Female,-99,A levels,63,1,Against,Against
25,1658940000000,27/07/2022 15:48,1658940000000,1,27/07/2022 16:48,94050,2,task-k2dt,NA,23335301,6847806,NA,complete,NA,62e15d7c958973e66c7d8534,computer,Desktop or Laptop,Windows 10,Chrome 103.0.0.0,2560x1080,1212x782,NA,ITT Ratings,3,For,7,NA,NA,NA,NA,NA,ACCEPT,NA,NA,NA,NA,batch7hes,batch7hes,14,23,1,Screen 1,continueButton,response_rating_scale_likert_active,3184.1,NA,NA,Disagree,1,0,1,0,NA,NA,NA,NA,1,statements,I am protected against the disease,1,17/05/2021 12:13,17/05/2021 12:20,381,Most weeks,Most months,36,Male,-99,A levels,62,2,Against,For
26,1658940000000,27/07/2022 15:48,1658940000000,1,27/07/2022 16:48,94050,2,task-k2dt,NA,23335301,6847806,NA,complete,NA,62e15d7c958973e66c7d8534,computer,Desktop or Laptop,Windows 10,Chrome 103.0.0.0,2560x1080,1212x782,NA,ITT Ratings,3,For,7,NA,NA,NA,NA,NA,ACCEPT,NA,NA,NA,NA,batch7hes,batch7hes,11,24,1,Screen 1,continueButton,response_rating_scale_likert_active,3409.6,NA,NA,Neither Agree nor Disagree,1,0,1,0,NA,NA,NA,NA,1,statements,Vaccine was produced too quickly,1,17/05/2021 12:13,17/05/2021 12:20,381,Most weeks,Most months,36,Male,-99,A levels,62,2,Against,Against
27,1658940000000,27/07/2022 15:48,1658940000000,1,27/07/2022 16:48,94050,2,task-k2dt,NA,23335301,6847806,NA,complete,NA,62e15d7c958973e66c7d8534,computer,Desktop or Laptop,Windows 10,Chrome 103.0.0.0,2560x1080,1212x782,NA,ITT Ratings,3,For,7,NA,NA,NA,NA,NA,ACCEPT,NA,NA,NA,NA,batch7hes,batch7hes,52,25,1,Screen 1,continueButton,response_rating_scale_likert_active,3393.4,NA,NA,Somewhat Agree,1,0,1,0,NA,NA,NA,NA,1,statements,I think it is dangerous,1,17/05/2021 12:30,17/05/2021 12:35,345,Most days,Most days,53,Female,-99,"GCSEs,Vocational Training / Apprenticeship",69,1,Against,Against
28,1658940000000,27/07/2022 15:48,1658940000000,1,27/07/2022 16:48,94050,2,task-k2dt,NA,23335301,6847806,NA,complete,NA,62e15d7c958973e66c7d8534,computer,Desktop or Laptop,Windows 10,Chrome 103.0.0.0,2560x1080,1212x782,NA,ITT Ratings,3,For,7,NA,NA,NA,NA,NA,ACCEPT,NA,NA,NA,NA,batch7hes,batch7hes,29,26,1,Screen 1,continueButton,response_rating_scale_likert_active,6609.6,NA,NA,Agree,1,0,1,0,NA,NA,NA,NA,1,statements,It has not been developed long enough to see the reactions or effectiveness.,1,17/05/2021 12:11,17/05/2021 12:24,783,Most months,Most months,27,Female,-99,"Undergraduate degree (BSc, BA)",65,2,Against,Against
29,1658940000000,27/07/2022 15:48,1658940000000,1,27/07/2022 16:48,94050,2,task-k2dt,NA,23335301,6847806,NA,complete,NA,62e15d7c958973e66c7d8534,computer,Desktop or Laptop,Windows 10,Chrome 103.0.0.0,2560x1080,1212x782,NA,ITT Ratings,3,For,7,NA,NA,NA,NA,NA,ACCEPT,NA,NA,NA,NA,batch7hes,batch7hes,4,27,1,Screen 1,continueButton,response_rating_scale_likert_active,2809,NA,NA,Neither Agree nor Disagree,1,0,1,0,NA,NA,NA,NA,1,statements,Can't make a vaccine that quick.,1,17/05/2021 12:13,17/05/2021 12:18,332,Rarely,Rarely,31,Male,-99,"Undergraduate degree (BSc, BA)",61,1,Against,Against
30,1658940000000,27/07/2022 15:49,1658940000000,1,27/07/2022 16:49,94050,2,task-k2dt,NA,23335301,6847806,NA,complete,NA,62e15d7c958973e66c7d8534,computer,Desktop or Laptop,Windows 10,Chrome 103.0.0.0,2560x1080,1212x782,NA,ITT Ratings,3,For,7,NA,NA,NA,NA,NA,ACCEPT,NA,NA,NA,NA,batch7hes,batch7hes,17,28,1,Screen 1,continueButton,response_rating_scale_likert_active,6289.4,NA,NA,Somewhat Agree,1,0,1,0,NA,NA,NA,NA,1,statements,Most vaccines have side effects such as headaches and muscle aches so it is the same with eh COVID vaccines.,1,17/05/2021 12:08,17/05/2021 12:22,862,Rarely,Most months,20,Female,-99,A levels,63,2,Against,Against
31,1658940000000,27/07/2022 15:49,1658940000000,1,27/07/2022 16:49,94050,2,task-k2dt,NA,23335301,6847806,NA,complete,NA,62e15d7c958973e66c7d8534,computer,Desktop or Laptop,Windows 10,Chrome 103.0.0.0,2560x1080,1212x782,NA,ITT Ratings,3,For,7,NA,NA,NA,NA,NA,ACCEPT,NA,NA,NA,NA,batch7hes,batch7hes,51,29,1,Screen 1,continueButton,response_rating_scale_likert_active,4440.6,NA,NA,Neither Agree nor Disagree,1,0,1,0,NA,NA,NA,NA,1,statements,It is my choice to take it,1,17/05/2021 12:22,17/05/2021 12:34,730,Once or twice a year,Most weeks,59,Male,-99,Vocational Training / Apprenticeship,68,3,Against,For
32,1658940000000,27/07/2022 15:49,1658940000000,1,27/07/2022 16:49,94050,2,task-k2dt,NA,23335301,6847806,NA,complete,NA,62e15d7c958973e66c7d8534,computer,Desktop or Laptop,Windows 10,Chrome 103.0.0.0,2560x1080,1212x782,NA,ITT Ratings,3,For,7,NA,NA,NA,NA,NA,ACCEPT,NA,NA,NA,NA,batch7hes,batch7hes,38,30,1,Screen 1,continueButton,response_rating_scale_likert_active,3072.6,NA,NA,Somewhat Agree,1,0,1,0,NA,NA,NA,NA,1,statements,Help prevent the spread,1,17/05/2021 12:21,17/05/2021 12:30,549,Most months,Most months,27,Female,-99,A levels,66,2,Against,For
33,1658940000000,27/07/2022 15:49,1658940000000,1,27/07/2022 16:49,94050,2,task-k2dt,NA,23335301,6847806,NA,complete,NA,62e15d7c958973e66c7d8534,computer,Desktop or Laptop,Windows 10,Chrome 103.0.0.0,2560x1080,1212x782,NA,ITT Ratings,3,For,7,NA,NA,NA,NA,NA,ACCEPT,NA,NA,NA,NA,batch7hes,batch7hes,23,31,1,Screen 1,continueButton,response_rating_scale_likert_active,3384.4,NA,NA,Somewhat Agree,1,0,1,0,NA,NA,NA,NA,1,statements,Worried about chance of serious side affects,1,17/05/2021 12:03,17/05/2021 12:23,1164,Most weeks,Most days,34,Male,-99,A levels,64,2,Against,Against
34,1658940000000,27/07/2022 15:49,1658940000000,1,27/07/2022 16:49,94050,2,task-k2dt,NA,23335301,6847806,NA,complete,NA,62e15d7c958973e66c7d8534,computer,Desktop or Laptop,Windows 10,Chrome 103.0.0.0,2560x1080,1212x782,NA,ITT Ratings,3,For,7,NA,NA,NA,NA,NA,ACCEPT,NA,NA,NA,NA,batch7hes,batch7hes,7,32,1,Screen 1,continueButton,response_rating_scale_likert_active,4505.2,NA,NA,Somewhat Disagree,1,0,1,0,NA,NA,NA,NA,1,statements,To be safe from the virus.,1,17/05/2021 12:13,17/05/2021 12:18,332,Rarely,Rarely,31,Male,-99,"Undergraduate degree (BSc, BA)",61,1,Against,For
35,1658940000000,27/07/2022 15:49,1658940000000,1,27/07/2022 16:49,94050,2,task-k2dt,NA,23335301,6847806,NA,complete,NA,62e15d7c958973e66c7d8534,computer,Desktop or Laptop,Windows 10,Chrome 103.0.0.0,2560x1080,1212x782,NA,ITT Ratings,3,For,7,NA,NA,NA,NA,NA,ACCEPT,NA,NA,NA,NA,batch7hes,batch7hes,55,33,1,Screen 1,continueButton,response_rating_scale_likert_active,2832.8,NA,NA,Neither Agree nor Disagree,1,0,1,0,NA,NA,NA,NA,1,statements,I want to be immunised against the virus,1,17/05/2021 12:30,17/05/2021 12:35,345,Most days,Most days,53,Female,-99,"GCSEs,Vocational Training / Apprenticeship",69,1,Against,For
36,1658940000000,27/07/2022 15:49,1658940000000,1,27/07/2022 16:49,94050,2,task-k2dt,NA,23335301,6847806,NA,complete,NA,62e15d7c958973e66c7d8534,computer,Desktop or Laptop,Windows 10,Chrome 103.0.0.0,2560x1080,1212x782,NA,ITT Ratings,3,For,7,NA,NA,NA,NA,NA,ACCEPT,NA,NA,NA,NA,batch7hes,batch7hes,8,34,1,Screen 1,continueButton,response_rating_scale_likert_active,3880.4,NA,NA,Agree,1,0,1,0,NA,NA,NA,NA,1,statements,To be able to go out and see elderly relatives.,1,17/05/2021 12:13,17/05/2021 12:18,332,Rarely,Rarely,31,Male,-99,"Undergraduate degree (BSc, BA)",61,2,Against,For
37,1658940000000,27/07/2022 15:49,1658940000000,1,27/07/2022 16:49,94050,2,task-k2dt,NA,23335301,6847806,NA,complete,NA,62e15d7c958973e66c7d8534,computer,Desktop or Laptop,Windows 10,Chrome 103.0.0.0,2560x1080,1212x782,NA,ITT Ratings,3,For,7,NA,NA,NA,NA,NA,ACCEPT,NA,NA,NA,NA,batch7hes,batch7hes,63,35,1,Screen 1,continueButton,response_rating_scale_likert_active,11705.4,NA,NA,Agree,1,0,1,0,NA,NA,NA,NA,1,statements,Because I think life will return to normal but loads vaccinated and nothing changes,1,17/05/2021 12:18,17/05/2021 12:35,1078,Never,Never,34,Female,-99,No formal qualifications,70,3,Against,For
38,1658940000000,27/07/2022 15:49,1658940000000,1,27/07/2022 16:49,94050,2,task-k2dt,NA,23335301,6847806,NA,complete,NA,62e15d7c958973e66c7d8534,computer,Desktop or Laptop,Windows 10,Chrome 103.0.0.0,2560x1080,1212x782,NA,ITT Ratings,3,For,7,NA,NA,NA,NA,NA,ACCEPT,NA,NA,NA,NA,batch7hes,batch7hes,30,36,1,Screen 1,continueButton,response_rating_scale_likert_active,8464.7,NA,NA,Somewhat Agree,1,0,1,0,NA,NA,NA,NA,1,statements,There are natural ways to help boost the immune system and fight the virus instead of putting artificial substances into the body.,1,17/05/2021 12:11,17/05/2021 12:24,783,Most months,Most months,27,Female,-99,"Undergraduate degree (BSc, BA)",65,3,Against,Against
39,1658940000000,27/07/2022 15:49,1658940000000,1,27/07/2022 16:49,94050,2,task-k2dt,NA,23335301,6847806,NA,complete,NA,62e15d7c958973e66c7d8534,computer,Desktop or Laptop,Windows 10,Chrome 103.0.0.0,2560x1080,1212x782,NA,ITT Ratings,3,For,7,NA,NA,NA,NA,NA,ACCEPT,NA,NA,NA,NA,batch7hes,batch7hes,28,37,1,Screen 1,continueButton,response_rating_scale_likert_active,5089,NA,NA,Agree,1,0,1,0,NA,NA,NA,NA,1,statements,We do not know the side effects of it in a couple of years time,1,17/05/2021 12:11,17/05/2021 12:24,783,Most months,Most months,27,Female,-99,"Undergraduate degree (BSc, BA)",65,1,Against,Against
