Event.Index,UTC.Timestamp,UTC.Date,Local.Timestamp,Local.Timezone,Local.Date,Experiment.ID,Experiment.Version,Tree.Node.Key,Repeat.Key,Schedule.ID,Participant.Private.ID,Participant.Starting.Group,Participant.Status,Participant.Completion.Code,Participant.External.Session.ID,Participant.Device.Type,Participant.Device,Participant.OS,Participant.Browser,Participant.Monitor.Size,Participant.Viewport.Size,Checkpoint,Task.Name,Task.Version,branch.69an,randomiser.8vg2,quota.bqtt,quota.rycs,quota.wtfi,quota.usve,quota.zgic,quota.f3yz,quota.r9vy,quota.tfqq,quota.3dga,quota.dtj6,Spreadsheet,Spreadsheet.Name,Spreadsheet.Row,Trial.Number,Screen.Number,Screen.Name,Zone.Name,Zone.Type,Reaction.Time,Reaction.Onset,Response.Type,Response,Attempt,Correct,Incorrect,Dishonest,X.Coordinate,Y.Coordinate,Timed.Out,randomise_blocks,randomise_trials,display,Arguments,ShowProgressBar,StartDate,EndDate,Duration,discuss_1,read_1,age,gender,gender_4_TEXT,edu,ID,arg_ID,Position,Arg_Position
1,1658935707880,27/07/2022 15:28:27,1658935707795,1,27/07/2022 16:28:27,94050,2,task-an6x,NA,23334654,6847612,NA,complete,NA,62e1597b17a7a6b5800471ca,computer,Desktop or Laptop,Linux x86_64,Chrome 98.0.4758.102,1366x768,1356x629,NA,ITT Ratings,3,For,1,NA,NA,NA,NA,NA,NA,NA,NA,NA,ACCEPT,batch1hes,NA,NA,BEGIN TASK,NA,NA,NA,NA,NA,NA,NA,NA,NA,0,1,0,NA,NA,NA,NA,NA,NA,NA,NA,NA,NA,NA,NA,NA,NA,NA,NA,NA,NA,NA,NA,NA
2,1658935712235,27/07/2022 15:28:32,1658935712200,1,27/07/2022 16:28:32,94050,2,task-an6x,NA,23334654,6847612,NA,complete,NA,62e1597b17a7a6b5800471ca,computer,Desktop or Laptop,Linux x86_64,Chrome 98.0.4758.102,1366x768,1356x629,NA,ITT Ratings,3,For,1,NA,NA,NA,NA,NA,NA,NA,NA,NA,ACCEPT,batch1hes,batch1hes,1,1,1,Screen 1,advancementZone,continue_button,4276.5,NA,NA,NA,NA,0,1,0,NA,NA,NA,NA,NA,instructions,NA,NA,NA,NA,NA,NA,NA,NA,NA,NA,NA,NA,NA,NA,NA
3,1658935717574,27/07/2022 15:28:37,1658935717556,1,27/07/2022 16:28:37,94050,2,task-an6x,NA,23334654,6847612,NA,complete,NA,62e1597b17a7a6b5800471ca,computer,Desktop or Laptop,Linux x86_64,Chrome 98.0.4758.102,1366x768,1356x629,NA,ITT Ratings,3,For,1,NA,NA,NA,NA,NA,NA,NA,NA,NA,ACCEPT,batch1hes,batch1hes,30,1,1,Screen 1,continueButton,response_rating_scale_likert_active,5301.4000000003725,NA,NA,Strongly Disagree,1,0,1,0,NA,NA,NA,NA,1,statements,I don't even know anyone who has had Covid never mind anyone who has been hospitalised or died from it.,1,17/05/2021 10:35,17/05/2021 11:12,2227,A few times a year,A few times a year,32,Female,-99,A levels,5,3,Against,Against
4,1658935721241,27/07/2022 15:28:41,1658935721222,1,27/07/2022 16:28:41,94050,2,task-an6x,NA,23334654,6847612,NA,complete,NA,62e1597b17a7a6b5800471ca,computer,Desktop or Laptop,Linux x86_64,Chrome 98.0.4758.102,1366x768,1356x629,NA,ITT Ratings,3,For,1,NA,NA,NA,NA,NA,NA,NA,NA,NA,ACCEPT,batch1hes,batch1hes,28,2,1,Screen 1,continueButton,response_rating_scale_likert_active,3611.60000000149,NA,NA,Strongly Disagree,1,0,1,0,NA,NA,NA,NA,1,statements,The risk of dying from Covid is only 0.03% unless you have an underlying health problem.,1,17/05/2021 10:35,17/05/2021 11:12,2227,A few times a year,A few times a year,32,Female,-99,A levels,5,1,Against,Against
5,1658935728198,27/07/2022 15:28:48,1658935728186,1,27/07/2022 16:28:48,94050,2,task-an6x,NA,23334654,6847612,NA,complete,NA,62e1597b17a7a6b5800471ca,computer,Desktop or Laptop,Linux x86_64,Chrome 98.0.4758.102,1366x768,1356x629,NA,ITT Ratings,3,For,1,NA,NA,NA,NA,NA,NA,NA,NA,NA,ACCEPT,batch1hes,batch1hes,47,3,1,Screen 1,continueButton,response_rating_scale_likert_active,6921,NA,NA,Somewhat Disagree,1,0,1,0,NA,NA,NA,NA,1,statements,"I would like to see the figures for people who have died within 28 days of having a vaccine, not just the number of deaths after having a positive test",1,17/05/2021 10:47,17/05/2021 11:14,1618,Most days,Most days,54,Male,-99,Vocational Training / Apprenticeship,8,2,Against,Against
6,1658935730422,27/07/2022 15:28:50,1658935730413,1,27/07/2022 16:28:50,94050,2,task-an6x,NA,23334654,6847612,NA,complete,NA,62e1597b17a7a6b5800471ca,computer,Desktop or Laptop,Linux x86_64,Chrome 98.0.4758.102,1366x768,1356x629,NA,ITT Ratings,3,For,1,NA,NA,NA,NA,NA,NA,NA,NA,NA,ACCEPT,batch1hes,batch1hes,33,4,1,Screen 1,continueButton,response_rating_scale_likert_active,2186.9000000003725,NA,NA,Strongly Disagree,1,0,1,0,NA,NA,NA,NA,1,statements,I want to be able to fly for holidays this summer.,1,17/05/2021 10:35,17/05/2021 11:12,2227,A few times a year,A few times a year,32,Female,-99,A levels,5,3,Against,For
7,1658935734448,27/07/2022 15:28:54,1658935734423,1,27/07/2022 16:28:54,94050,2,task-an6x,NA,23334654,6847612,NA,complete,NA,62e1597b17a7a6b5800471ca,computer,Desktop or Laptop,Linux x86_64,Chrome 98.0.4758.102,1366x768,1356x629,NA,ITT Ratings,3,For,1,NA,NA,NA,NA,NA,NA,NA,NA,NA,ACCEPT,batch1hes,batch1hes,19,5,1,Screen 1,continueButton,response_rating_scale_likert_active,3965.800000000745,NA,NA,Strongly Agree,1,0,1,0,NA,NA,NA,NA,1,statements,Its the only way to stop the spread of the virus,1,17/05/2021 10:56,17/05/2021 11:12,973,Most weeks,Most weeks,49,Female,-99,GCSEs,3,1,Against,For
8,1658935739148,27/07/2022 15:28:59,1658935739139,1,27/07/2022 16:28:59,94050,2,task-an6x,NA,23334654,6847612,NA,complete,NA,62e1597b17a7a6b5800471ca,computer,Desktop or Laptop,Linux x86_64,Chrome 98.0.4758.102,1366x768,1356x629,NA,ITT Ratings,3,For,1,NA,NA,NA,NA,NA,NA,NA,NA,NA,ACCEPT,batch1hes,batch1hes,10,6,1,Screen 1,continueButton,response_rating_scale_likert_active,4667.5999999996275,NA,NA,Disagree,1,0,1,0,NA,NA,NA,NA,1,statements,I'm worried about the side effects from the vaccine especially if I have underlying health conditions that can be affected through the vaccine.,1,17/05/2021 10:56,17/05/2021 11:11,875,Most days,Most weeks,24,Female,-99,"Undergraduate degree (BSc, BA)",2,1,Against,Against
9,1658935742563,27/07/2022 15:29:02,1658935742549,1,27/07/2022 16:29:02,94050,2,task-an6x,NA,23334654,6847612,NA,complete,NA,62e1597b17a7a6b5800471ca,computer,Desktop or Laptop,Linux x86_64,Chrome 98.0.4758.102,1366x768,1356x629,NA,ITT Ratings,3,For,1,NA,NA,NA,NA,NA,NA,NA,NA,NA,ACCEPT,batch1hes,batch1hes,27,7,1,Screen 1,continueButton,response_rating_scale_likert_active,3372.4000000003725,NA,NA,Strongly Agree,1,0,1,0,NA,NA,NA,NA,1,statements,We must have the vaccine in order to return to normality.,1,17/05/2021 11:04,17/05/2021 11:12,483,Most days,Most weeks,31,Female,-99,GCSEs,4,3,Against,For
10,1658935748616,27/07/2022 15:29:08,1658935748601,1,27/07/2022 16:29:08,94050,2,task-an6x,NA,23334654,6847612,NA,complete,NA,62e1597b17a7a6b5800471ca,computer,Desktop or Laptop,Linux x86_64,Chrome 98.0.4758.102,1366x768,1356x629,NA,ITT Ratings,3,For,1,NA,NA,NA,NA,NA,NA,NA,NA,NA,ACCEPT,batch1hes,batch1hes,7,8,1,Screen 1,continueButton,response_rating_scale_likert_active,6014.5,NA,NA,Somewhat Agree,1,0,1,0,NA,NA,NA,NA,1,statements,i was fine are a few days.,1,17/05/2021 10:58,17/05/2021 11:09,624,Most days,Most months,32,Female,-99,A levels,1,1,Against,For
11,1658935751063,27/07/2022 15:29:11,1658935751047,1,27/07/2022 16:29:11,94050,2,task-an6x,NA,23334654,6847612,NA,complete,NA,62e1597b17a7a6b5800471ca,computer,Desktop or Laptop,Linux x86_64,Chrome 98.0.4758.102,1366x768,1356x629,NA,ITT Ratings,3,For,1,NA,NA,NA,NA,NA,NA,NA,NA,NA,ACCEPT,batch1hes,batch1hes,22,9,1,Screen 1,continueButton,response_rating_scale_likert_active,2406.800000000745,NA,NA,Strongly Disagree,1,0,1,0,NA,NA,NA,NA,1,statements,The vaccine is not safe to receive.,1,17/05/2021 11:04,17/05/2021 11:12,483,Most days,Most weeks,31,Female,-99,GCSEs,4,1,Against,Against
12,1658935754318,27/07/2022 15:29:14,1658935754302,1,27/07/2022 16:29:14,94050,2,task-an6x,NA,23334654,6847612,NA,complete,NA,62e1597b17a7a6b5800471ca,computer,Desktop or Laptop,Linux x86_64,Chrome 98.0.4758.102,1366x768,1356x629,NA,ITT Ratings,3,For,1,NA,NA,NA,NA,NA,NA,NA,NA,NA,ACCEPT,batch1hes,batch1hes,3,10,1,Screen 1,continueButton,response_rating_scale_likert_active,3219.300000000745,NA,NA,Somewhat Agree,1,0,1,0,NA,NA,NA,NA,1,statements,We would like to check you are reading each argument carefully. Please select 'Somewhat Disagree' for this answer,1,NA,NA,NA,NA,NA,NA,NA,NA,NA,NA,check2,NA,NA
13,1658935758435,27/07/2022 15:29:18,1658935758420,1,27/07/2022 16:29:18,94050,2,task-an6x,NA,23334654,6847612,NA,complete,NA,62e1597b17a7a6b5800471ca,computer,Desktop or Laptop,Linux x86_64,Chrome 98.0.4758.102,1366x768,1356x629,NA,ITT Ratings,3,For,1,NA,NA,NA,NA,NA,NA,NA,NA,NA,ACCEPT,batch1hes,batch1hes,18,11,1,Screen 1,continueButton,response_rating_scale_likert_active,4073.39999999851,NA,NA,Somewhat Agree,1,0,1,0,NA,NA,NA,NA,1,statements,Im unsure of the long term affects,1,17/05/2021 10:56,17/05/2021 11:12,973,Most weeks,Most weeks,49,Female,-99,GCSEs,3,3,Against,Against
14,1658935760692,27/07/2022 15:29:20,1658935760672,1,27/07/2022 16:29:20,94050,2,task-an6x,NA,23334654,6847612,NA,complete,NA,62e1597b17a7a6b5800471ca,computer,Desktop or Laptop,Linux x86_64,Chrome 98.0.4758.102,1366x768,1356x629,NA,ITT Ratings,3,For,1,NA,NA,NA,NA,NA,NA,NA,NA,NA,ACCEPT,batch1hes,batch1hes,9,12,1,Screen 1,continueButton,response_rating_scale_likert_active,2205.800000000745,NA,NA,Strongly Agree,1,0,1,0,NA,NA,NA,NA,1,statements,it will help you protect yourself.,1,17/05/2021 10:58,17/05/2021 11:09,624,Most days,Most months,32,Female,-99,A levels,1,3,Against,For
15,1658935765491,27/07/2022 15:29:25,1658935765476,1,27/07/2022 16:29:25,94050,2,task-an6x,NA,23334654,6847612,NA,complete,NA,62e1597b17a7a6b5800471ca,computer,Desktop or Laptop,Linux x86_64,Chrome 98.0.4758.102,1366x768,1356x629,NA,ITT Ratings,3,For,1,NA,NA,NA,NA,NA,NA,NA,NA,NA,ACCEPT,batch1hes,batch1hes,13,13,1,Screen 1,continueButton,response_rating_scale_likert_active,4766.9000000003725,NA,NA,Strongly Agree,1,0,1,0,NA,NA,NA,NA,1,statements,Protects you against the virus so that you have immunity against it,1,17/05/2021 10:56,17/05/2021 11:11,875,Most days,Most weeks,24,Female,-99,"Undergraduate degree (BSc, BA)",2,1,Against,For
16,1658935767240,27/07/2022 15:29:27,1658935767222,1,27/07/2022 16:29:27,94050,2,task-an6x,NA,23334654,6847612,NA,complete,NA,62e1597b17a7a6b5800471ca,computer,Desktop or Laptop,Linux x86_64,Chrome 98.0.4758.102,1366x768,1356x629,NA,ITT Ratings,3,For,1,NA,NA,NA,NA,NA,NA,NA,NA,NA,ACCEPT,batch1hes,batch1hes,63,14,1,Screen 1,continueButton,response_rating_scale_likert_active,1709.0999999996277,NA,NA,Strongly Agree,1,0,1,0,NA,NA,NA,NA,1,statements,Im doing my bit to help,1,17/05/2021 11:06,17/05/2021 11:14,491,Once or twice a year,Most months,34,Male,-99,GCSEs,10,3,Against,For
17,1658935770229,27/07/2022 15:29:30,1658935770215,1,27/07/2022 16:29:30,94050,2,task-an6x,NA,23334654,6847612,NA,complete,NA,62e1597b17a7a6b5800471ca,computer,Desktop or Laptop,Linux x86_64,Chrome 98.0.4758.102,1366x768,1356x629,NA,ITT Ratings,3,For,1,NA,NA,NA,NA,NA,NA,NA,NA,NA,ACCEPT,batch1hes,batch1hes,49,15,1,Screen 1,continueButton,response_rating_scale_likert_active,2953.4000000003725,NA,NA,Strongly Agree,1,0,1,0,NA,NA,NA,NA,1,statements,To protect me from becoming seriously ill if I caught Covid,1,17/05/2021 10:47,17/05/2021 11:14,1618,Most days,Most days,54,Male,-99,Vocational Training / Apprenticeship,8,1,Against,For
18,1658935773425,27/07/2022 15:29:33,1658935773414,1,27/07/2022 16:29:33,94050,2,task-an6x,NA,23334654,6847612,NA,complete,NA,62e1597b17a7a6b5800471ca,computer,Desktop or Laptop,Linux x86_64,Chrome 98.0.4758.102,1366x768,1356x629,NA,ITT Ratings,3,For,1,NA,NA,NA,NA,NA,NA,NA,NA,NA,ACCEPT,batch1hes,batch1hes,41,16,1,Screen 1,continueButton,response_rating_scale_likert_active,3160,NA,NA,Strongly Disagree,1,0,1,0,NA,NA,NA,NA,1,statements,I believe one of the vaccine companies is been taken to court in the USA because of people getting cancer from one it's other products.,1,17/05/2021 10:47,17/05/2021 11:13,1550,Most months,Most months,49,Male,-99,Vocational Training / Apprenticeship,7,2,Against,Against
19,1658935779562,27/07/2022 15:29:39,1658935779540,1,27/07/2022 16:29:39,94050,2,task-an6x,NA,23334654,6847612,NA,complete,NA,62e1597b17a7a6b5800471ca,computer,Desktop or Laptop,Linux x86_64,Chrome 98.0.4758.102,1366x768,1356x629,NA,ITT Ratings,3,For,1,NA,NA,NA,NA,NA,NA,NA,NA,NA,ACCEPT,batch1hes,batch1hes,54,17,1,Screen 1,continueButton,response_rating_scale_likert_active,6091.5,NA,NA,Disagree,1,0,1,0,NA,NA,NA,NA,1,statements,I get tested all the time and can afford to self-isolate,1,17/05/2021 11:08,17/05/2021 11:14,344,Rarely,Most months,27,Male,-99,"Undergraduate degree (BSc, BA)",9,3,Against,Against
20,1658935781613,27/07/2022 15:29:41,1658935781601,1,27/07/2022 16:29:41,94050,2,task-an6x,NA,23334654,6847612,NA,complete,NA,62e1597b17a7a6b5800471ca,computer,Desktop or Laptop,Linux x86_64,Chrome 98.0.4758.102,1366x768,1356x629,NA,ITT Ratings,3,For,1,NA,NA,NA,NA,NA,NA,NA,NA,NA,ACCEPT,batch1hes,batch1hes,6,18,1,Screen 1,continueButton,response_rating_scale_likert_active,2021.0999999996277,NA,NA,Strongly Disagree,1,0,1,0,NA,NA,NA,NA,1,statements,it's still in its trial stages.,1,17/05/2021 10:58,17/05/2021 11:09,624,Most days,Most months,32,Female,-99,A levels,1,3,Against,Against
21,1658935787158,27/07/2022 15:29:47,1658935787144,1,27/07/2022 16:29:47,94050,2,task-an6x,NA,23334654,6847612,NA,complete,NA,62e1597b17a7a6b5800471ca,computer,Desktop or Laptop,Linux x86_64,Chrome 98.0.4758.102,1366x768,1356x629,NA,ITT Ratings,3,For,1,NA,NA,NA,NA,NA,NA,NA,NA,NA,ACCEPT,batch1hes,batch1hes,29,19,1,Screen 1,continueButton,response_rating_scale_likert_active,5502.9000000003725,NA,NA,Somewhat Agree,1,0,1,0,NA,NA,NA,NA,1,statements,I am unsure about any long-term side effects that might arise from the vaccine in years to come due to how quickly the testing phase was carried out.,1,17/05/2021 10:35,17/05/2021 11:12,2227,A few times a year,A few times a year,32,Female,-99,A levels,5,2,Against,Against
22,1658935790183,27/07/2022 15:29:50,1658935790163,1,27/07/2022 16:29:50,94050,2,task-an6x,NA,23334654,6847612,NA,complete,NA,62e1597b17a7a6b5800471ca,computer,Desktop or Laptop,Linux x86_64,Chrome 98.0.4758.102,1366x768,1356x629,NA,ITT Ratings,3,For,1,NA,NA,NA,NA,NA,NA,NA,NA,NA,ACCEPT,batch1hes,batch1hes,16,20,1,Screen 1,continueButton,response_rating_scale_likert_active,2984.5999999996275,NA,NA,Disagree,1,0,1,0,NA,NA,NA,NA,1,statements,It hasnt been tested for long enough,1,17/05/2021 10:56,17/05/2021 11:12,973,Most weeks,Most weeks,49,Female,-99,GCSEs,3,1,Against,Against
23,1658935792138,27/07/2022 15:29:52,1658935792117,1,27/07/2022 16:29:52,94050,2,task-an6x,NA,23334654,6847612,NA,complete,NA,62e1597b17a7a6b5800471ca,computer,Desktop or Laptop,Linux x86_64,Chrome 98.0.4758.102,1366x768,1356x629,NA,ITT Ratings,3,For,1,NA,NA,NA,NA,NA,NA,NA,NA,NA,ACCEPT,batch1hes,batch1hes,45,21,1,Screen 1,continueButton,response_rating_scale_likert_active,1917.10000000149,NA,NA,Strongly Agree,1,0,1,0,NA,NA,NA,NA,1,statements,It will stop me from getting covid.,1,17/05/2021 10:47,17/05/2021 11:13,1550,Most months,Most months,49,Male,-99,Vocational Training / Apprenticeship,7,3,Against,For
24,1658935797543,27/07/2022 15:29:57,1658935797522,1,27/07/2022 16:29:57,94050,2,task-an6x,NA,23334654,6847612,NA,complete,NA,62e1597b17a7a6b5800471ca,computer,Desktop or Laptop,Linux x86_64,Chrome 98.0.4758.102,1366x768,1356x629,NA,ITT Ratings,3,For,1,NA,NA,NA,NA,NA,NA,NA,NA,NA,ACCEPT,batch1hes,batch1hes,25,22,1,Screen 1,continueButton,response_rating_scale_likert_active,5370.5999999996275,NA,NA,Strongly Agree,1,0,1,0,NA,NA,NA,NA,1,statements,The vaccine is perfectly safe and better versions have already been produced.,1,17/05/2021 11:04,17/05/2021 11:12,483,Most days,Most weeks,31,Female,-99,GCSEs,4,1,Against,For
25,1658935801281,27/07/2022 15:30:01,1658935801260,1,27/07/2022 16:30:01,94050,2,task-an6x,NA,23334654,6847612,NA,complete,NA,62e1597b17a7a6b5800471ca,computer,Desktop or Laptop,Linux x86_64,Chrome 98.0.4758.102,1366x768,1356x629,NA,ITT Ratings,3,For,1,NA,NA,NA,NA,NA,NA,NA,NA,NA,ACCEPT,batch1hes,batch1hes,52,23,1,Screen 1,continueButton,response_rating_scale_likert_active,3699.5,NA,NA,Strongly Disagree,1,0,1,0,NA,NA,NA,NA,1,statements,"If enough people get a vaccine, whether I do or not is inconsequential",1,17/05/2021 11:08,17/05/2021 11:14,344,Rarely,Most months,27,Male,-99,"Undergraduate degree (BSc, BA)",9,1,Against,Against
26,1658935803447,27/07/2022 15:30:03,1658935803425,1,27/07/2022 16:30:03,94050,2,task-an6x,NA,23334654,6847612,NA,complete,NA,62e1597b17a7a6b5800471ca,computer,Desktop or Laptop,Linux x86_64,Chrome 98.0.4758.102,1366x768,1356x629,NA,ITT Ratings,3,For,1,NA,NA,NA,NA,NA,NA,NA,NA,NA,ACCEPT,batch1hes,batch1hes,32,24,1,Screen 1,continueButton,response_rating_scale_likert_active,2125.9000000003725,NA,NA,Strongly Agree,1,0,1,0,NA,NA,NA,NA,1,statements,Everyone else is getting vaccinated.,1,17/05/2021 10:35,17/05/2021 11:12,2227,A few times a year,A few times a year,32,Female,-99,A levels,5,2,Against,For
27,1658935805575,27/07/2022 15:30:05,1658935805559,1,27/07/2022 16:30:05,94050,2,task-an6x,NA,23334654,6847612,NA,complete,NA,62e1597b17a7a6b5800471ca,computer,Desktop or Laptop,Linux x86_64,Chrome 98.0.4758.102,1366x768,1356x629,NA,ITT Ratings,3,For,1,NA,NA,NA,NA,NA,NA,NA,NA,NA,ACCEPT,batch1hes,batch1hes,39,25,1,Screen 1,continueButton,response_rating_scale_likert_active,2095.199999999255,NA,NA,Strongly Agree,1,0,1,0,NA,NA,NA,NA,1,statements,To be able to go on holiday,1,17/05/2021 10:58,17/05/2021 11:12,875,Most weeks,Most days,32,Female,-99,A levels,6,3,Against,For
28,1658935806772,27/07/2022 15:30:06,1658935806753,1,27/07/2022 16:30:06,94050,2,task-an6x,NA,23334654,6847612,NA,complete,NA,62e1597b17a7a6b5800471ca,computer,Desktop or Laptop,Linux x86_64,Chrome 98.0.4758.102,1366x768,1356x629,NA,ITT Ratings,3,For,1,NA,NA,NA,NA,NA,NA,NA,NA,NA,ACCEPT,batch1hes,batch1hes,21,26,1,Screen 1,continueButton,response_rating_scale_likert_active,1153.5,NA,NA,Strongly Agree,1,0,1,0,NA,NA,NA,NA,1,statements,It protects everyone,1,17/05/2021 10:56,17/05/2021 11:12,973,Most weeks,Most weeks,49,Female,-99,GCSEs,3,3,Against,For
29,1658935810510,27/07/2022 15:30:10,1658935810492,1,27/07/2022 16:30:10,94050,2,task-an6x,NA,23334654,6847612,NA,complete,NA,62e1597b17a7a6b5800471ca,computer,Desktop or Laptop,Linux x86_64,Chrome 98.0.4758.102,1366x768,1356x629,NA,ITT Ratings,3,For,1,NA,NA,NA,NA,NA,NA,NA,NA,NA,ACCEPT,batch1hes,batch1hes,15,27,1,Screen 1,continueButton,response_rating_scale_likert_active,3702.099999999627,NA,NA,Strongly Agree,1,0,1,0,NA,NA,NA,NA,1,statements,Protects others around you from catching the virus?,1,17/05/2021 10:56,17/05/2021 11:11,875,Most days,Most weeks,24,Female,-99,"Undergraduate degree (BSc, BA)",2,3,Against,For
30,1658935816204,27/07/2022 15:30:16,1658935816183,1,27/07/2022 16:30:16,94050,2,task-an6x,NA,23334654,6847612,NA,complete,NA,62e1597b17a7a6b5800471ca,computer,Desktop or Laptop,Linux x86_64,Chrome 98.0.4758.102,1366x768,1356x629,NA,ITT Ratings,3,For,1,NA,NA,NA,NA,NA,NA,NA,NA,NA,ACCEPT,batch1hes,batch1hes,40,28,1,Screen 1,continueButton,response_rating_scale_likert_active,5638.4000000003725,NA,NA,Strongly Disagree,1,0,1,0,NA,NA,NA,NA,1,statements,I don't think have taken enough time to test the vaccine properly.,1,17/05/2021 10:47,17/05/2021 11:13,1550,Most months,Most months,49,Male,-99,Vocational Training / Apprenticeship,7,1,Against,Against
31,1658935819250,27/07/2022 15:30:19,1658935819232,1,27/07/2022 16:30:19,94050,2,task-an6x,NA,23334654,6847612,NA,complete,NA,62e1597b17a7a6b5800471ca,computer,Desktop or Laptop,Linux x86_64,Chrome 98.0.4758.102,1366x768,1356x629,NA,ITT Ratings,3,For,1,NA,NA,NA,NA,NA,NA,NA,NA,NA,ACCEPT,batch1hes,batch1hes,26,29,1,Screen 1,continueButton,response_rating_scale_likert_active,3010.2000000011176,NA,NA,Strongly Agree,1,0,1,0,NA,NA,NA,NA,1,statements,It is important to receive the vaccine to protect your health and the health of others.,1,17/05/2021 11:04,17/05/2021 11:12,483,Most days,Most weeks,31,Female,-99,GCSEs,4,2,Against,For
32,1658935823439,27/07/2022 15:30:23,1658935823424,1,27/07/2022 16:30:23,94050,2,task-an6x,NA,23334654,6847612,NA,complete,NA,62e1597b17a7a6b5800471ca,computer,Desktop or Laptop,Linux x86_64,Chrome 98.0.4758.102,1366x768,1356x629,NA,ITT Ratings,3,For,1,NA,NA,NA,NA,NA,NA,NA,NA,NA,ACCEPT,batch1hes,batch1hes,38,30,1,Screen 1,continueButton,response_rating_scale_likert_active,4154,NA,NA,Strongly Agree,1,0,1,0,NA,NA,NA,NA,1,statements,Everyone has to have one so life can go back to normal,1,17/05/2021 10:58,17/05/2021 11:12,875,Most weeks,Most days,32,Female,-99,A levels,6,2,Against,For
33,1658935825439,27/07/2022 15:30:25,1658935825431,1,27/07/2022 16:30:25,94050,2,task-an6x,NA,23334654,6847612,NA,complete,NA,62e1597b17a7a6b5800471ca,computer,Desktop or Laptop,Linux x86_64,Chrome 98.0.4758.102,1366x768,1356x629,NA,ITT Ratings,3,For,1,NA,NA,NA,NA,NA,NA,NA,NA,NA,ACCEPT,batch1hes,batch1hes,61,31,1,Screen 1,continueButton,response_rating_scale_likert_active,1964.5999999996277,NA,NA,Strongly Agree,1,0,1,0,NA,NA,NA,NA,1,statements,The government said it safe,1,17/05/2021 11:06,17/05/2021 11:14,491,Once or twice a year,Most months,34,Male,-99,GCSEs,10,1,Against,For
34,1658935827389,27/07/2022 15:30:27,1658935827373,1,27/07/2022 16:30:27,94050,2,task-an6x,NA,23334654,6847612,NA,complete,NA,62e1597b17a7a6b5800471ca,computer,Desktop or Laptop,Linux x86_64,Chrome 98.0.4758.102,1366x768,1356x629,NA,ITT Ratings,3,For,1,NA,NA,NA,NA,NA,NA,NA,NA,NA,ACCEPT,batch1hes,batch1hes,59,32,1,Screen 1,continueButton,response_rating_scale_likert_active,1905.0999999996277,NA,NA,Strongly Disagree,1,0,1,0,NA,NA,NA,NA,1,statements,I've never had a vaccine and never will,1,17/05/2021 11:06,17/05/2021 11:14,491,Once or twice a year,Most months,34,Male,-99,GCSEs,10,2,Against,Against
35,1658935830906,27/07/2022 15:30:30,1658935830887,1,27/07/2022 16:30:30,94050,2,task-an6x,NA,23334654,6847612,NA,complete,NA,62e1597b17a7a6b5800471ca,computer,Desktop or Laptop,Linux x86_64,Chrome 98.0.4758.102,1366x768,1356x629,NA,ITT Ratings,3,For,1,NA,NA,NA,NA,NA,NA,NA,NA,NA,ACCEPT,batch1hes,batch1hes,53,33,1,Screen 1,continueButton,response_rating_scale_likert_active,3476.800000000745,NA,NA,Strongly Disagree,1,0,1,0,NA,NA,NA,NA,1,statements,I am living in a country where the outbreak has been managed well/practically non-existent,1,17/05/2021 11:08,17/05/2021 11:14,344,Rarely,Most months,27,Male,-99,"Undergraduate degree (BSc, BA)",9,2,Against,Against
36,1658935834211,27/07/2022 15:30:34,1658935834187,1,27/07/2022 16:30:34,94050,2,task-an6x,NA,23334654,6847612,NA,complete,NA,62e1597b17a7a6b5800471ca,computer,Desktop or Laptop,Linux x86_64,Chrome 98.0.4758.102,1366x768,1356x629,NA,ITT Ratings,3,For,1,NA,NA,NA,NA,NA,NA,NA,NA,NA,ACCEPT,batch1hes,batch1hes,14,34,1,Screen 1,continueButton,response_rating_scale_likert_active,3261.300000000745,NA,NA,Strongly Agree,1,0,1,0,NA,NA,NA,NA,1,statements,Prevents you from catching the virus or getting severe symptoms.,1,17/05/2021 10:56,17/05/2021 11:11,875,Most days,Most weeks,24,Female,-99,"Undergraduate degree (BSc, BA)",2,2,Against,For
37,1658935835936,27/07/2022 15:30:35,1658935835917,1,27/07/2022 16:30:35,94050,2,task-an6x,NA,23334654,6847612,NA,complete,NA,62e1597b17a7a6b5800471ca,computer,Desktop or Laptop,Linux x86_64,Chrome 98.0.4758.102,1366x768,1356x629,NA,ITT Ratings,3,For,1,NA,NA,NA,NA,NA,NA,NA,NA,NA,ACCEPT,batch1hes,batch1hes,56,35,1,Screen 1,continueButton,response_rating_scale_likert_active,1694.699999999255,NA,NA,Strongly Agree,1,0,1,0,NA,NA,NA,NA,1,statements,better for travelling abroad,1,17/05/2021 11:08,17/05/2021 11:14,344,Rarely,Most months,27,Male,-99,"Undergraduate degree (BSc, BA)",9,2,Against,For
38,1658935838230,27/07/2022 15:30:38,1658935838195,1,27/07/2022 16:30:38,94050,2,task-an6x,NA,23334654,6847612,NA,complete,NA,62e1597b17a7a6b5800471ca,computer,Desktop or Laptop,Linux x86_64,Chrome 98.0.4758.102,1366x768,1356x629,NA,ITT Ratings,3,For,1,NA,NA,NA,NA,NA,NA,NA,NA,NA,ACCEPT,batch1hes,batch1hes,44,36,1,Screen 1,continueButton,response_rating_scale_likert_active,2232.2999999988824,NA,NA,Strongly Disagree,1,0,1,0,NA,NA,NA,NA,1,statements,Only a few people have died from it.,1,17/05/2021 10:47,17/05/2021 11:13,1550,Most months,Most months,49,Male,-99,Vocational Training / Apprenticeship,7,2,Against,For
39,1658935840514,27/07/2022 15:30:40,1658935840503,1,27/07/2022 16:30:40,94050,2,task-an6x,NA,23334654,6847612,NA,complete,NA,62e1597b17a7a6b5800471ca,computer,Desktop or Laptop,Linux x86_64,Chrome 98.0.4758.102,1366x768,1356x629,NA,ITT Ratings,3,For,1,NA,NA,NA,NA,NA,NA,NA,NA,NA,ACCEPT,batch1hes,batch1hes,62,37,1,Screen 1,continueButton,response_rating_scale_likert_active,2267.9000000003725,NA,NA,Strongly Agree,1,0,1,0,NA,NA,NA,NA,1,statements,The news said its effective,1,17/05/2021 11:06,17/05/2021 11:14,491,Once or twice a year,Most months,34,Male,-99,GCSEs,10,2,Against,For
40,1658935845349,27/07/2022 15:30:45,1658935845325,1,27/07/2022 16:30:45,94050,2,task-an6x,NA,23334654,6847612,NA,complete,NA,62e1597b17a7a6b5800471ca,computer,Desktop or Laptop,Linux x86_64,Chrome 98.0.4758.102,1366x768,1356x629,NA,ITT Ratings,3,For,1,NA,NA,NA,NA,NA,NA,NA,NA,NA,ACCEPT,batch1hes,batch1hes,5,38,1,Screen 1,continueButton,response_rating_scale_likert_active,4780,NA,NA,Strongly Disagree,1,0,1,0,NA,NA,NA,NA,1,statements,if you were to have covid you would have already.,1,17/05/2021 10:58,17/05/2021 11:09,624,Most days,Most months,32,Female,-99,A levels,1,2,Against,Against
41,1658935847629,27/07/2022 15:30:47,1658935847613,1,27/07/2022 16:30:47,94050,2,task-an6x,NA,23334654,6847612,NA,complete,NA,62e1597b17a7a6b5800471ca,computer,Desktop or Laptop,Linux x86_64,Chrome 98.0.4758.102,1366x768,1356x629,NA,ITT Ratings,3,For,1,NA,NA,NA,NA,NA,NA,NA,NA,NA,ACCEPT,batch1hes,batch1hes,23,39,1,Screen 1,continueButton,response_rating_scale_likert_active,2243.7999999988824,NA,NA,Disagree,1,0,1,0,NA,NA,NA,NA,1,statements,Its not been developed for long enough.,1,17/05/2021 11:04,17/05/2021 11:12,483,Most days,Most weeks,31,Female,-99,GCSEs,4,2,Against,Against
42,1658935849178,27/07/2022 15:30:49,1658935849151,1,27/07/2022 16:30:49,94050,2,task-an6x,NA,23334654,6847612,NA,complete,NA,62e1597b17a7a6b5800471ca,computer,Desktop or Laptop,Linux x86_64,Chrome 98.0.4758.102,1366x768,1356x629,NA,ITT Ratings,3,For,1,NA,NA,NA,NA,NA,NA,NA,NA,NA,ACCEPT,batch1hes,batch1hes,55,40,1,Screen 1,continueButton,response_rating_scale_likert_active,1498.7000000011176,NA,NA,Strongly Agree,1,0,1,0,NA,NA,NA,NA,1,statements,better for everyone else,1,17/05/2021 11:08,17/05/2021 11:14,344,Rarely,Most months,27,Male,-99,"Undergraduate degree (BSc, BA)",9,1,Against,For
43,1658935851191,27/07/2022 15:30:51,1658935851170,1,27/07/2022 16:30:51,94050,2,task-an6x,NA,23334654,6847612,NA,complete,NA,62e1597b17a7a6b5800471ca,computer,Desktop or Laptop,Linux x86_64,Chrome 98.0.4758.102,1366x768,1356x629,NA,ITT Ratings,3,For,1,NA,NA,NA,NA,NA,NA,NA,NA,NA,ACCEPT,batch1hes,batch1hes,43,41,1,Screen 1,continueButton,response_rating_scale_likert_active,1972.7999999988824,NA,NA,Strongly Agree,1,0,1,0,NA,NA,NA,NA,1,statements,It's safe the government said so.,1,17/05/2021 10:47,17/05/2021 11:13,1550,Most months,Most months,49,Male,-99,Vocational Training / Apprenticeship,7,1,Against,For
44,1658935855241,27/07/2022 15:30:55,1658935855230,1,27/07/2022 16:30:55,94050,2,task-an6x,NA,23334654,6847612,NA,complete,NA,62e1597b17a7a6b5800471ca,computer,Desktop or Laptop,Linux x86_64,Chrome 98.0.4758.102,1366x768,1356x629,NA,ITT Ratings,3,For,1,NA,NA,NA,NA,NA,NA,NA,NA,NA,ACCEPT,batch1hes,batch1hes,11,42,1,Screen 1,continueButton,response_rating_scale_likert_active,4011.900000000373,NA,NA,Disagree,1,0,1,0,NA,NA,NA,NA,1,statements,Doesn't seem trustworthy as the process to make the vaccine has been rushed in order to keep up with demands from the world to release a vaccine out soon.,1,17/05/2021 10:56,17/05/2021 11:11,875,Most days,Most weeks,24,Female,-99,"Undergraduate degree (BSc, BA)",2,2,Against,Against
45,1658935857911,27/07/2022 15:30:57,1658935857901,1,27/07/2022 16:30:57,94050,2,task-an6x,NA,23334654,6847612,NA,complete,NA,62e1597b17a7a6b5800471ca,computer,Desktop or Laptop,Linux x86_64,Chrome 98.0.4758.102,1366x768,1356x629,NA,ITT Ratings,3,For,1,NA,NA,NA,NA,NA,NA,NA,NA,NA,ACCEPT,batch1hes,batch1hes,20,43,1,Screen 1,continueButton,response_rating_scale_likert_active,2634.800000000745,NA,NA,Agree,1,0,1,0,NA,NA,NA,NA,1,statements,It has been thoroughly tested,1,17/05/2021 10:56,17/05/2021 11:12,973,Most weeks,Most weeks,49,Female,-99,GCSEs,3,2,Against,For
46,1658935860795,27/07/2022 15:31:00,1658935860779,1,27/07/2022 16:31:00,94050,2,task-an6x,NA,23334654,6847612,NA,complete,NA,62e1597b17a7a6b5800471ca,computer,Desktop or Laptop,Linux x86_64,Chrome 98.0.4758.102,1366x768,1356x629,NA,ITT Ratings,3,For,1,NA,NA,NA,NA,NA,NA,NA,NA,NA,ACCEPT,batch1hes,batch1hes,12,44,1,Screen 1,continueButton,response_rating_scale_likert_active,2841.5,NA,NA,Strongly Disagree,1,0,1,0,NA,NA,NA,NA,1,statements,"Theories about how the vaccine has been produced, the ingredients of it, seems suspicious and doesn't seem to be effective either.",1,17/05/2021 10:56,17/05/2021 11:11,875,Most days,Most weeks,24,Female,-99,"Undergraduate degree (BSc, BA)",2,3,Against,Against
47,1658935862522,27/07/2022 15:31:02,1658935862504,1,27/07/2022 16:31:02,94050,2,task-an6x,NA,23334654,6847612,NA,complete,NA,62e1597b17a7a6b5800471ca,computer,Desktop or Laptop,Linux x86_64,Chrome 98.0.4758.102,1366x768,1356x629,NA,ITT Ratings,3,For,1,NA,NA,NA,NA,NA,NA,NA,NA,NA,ACCEPT,batch1hes,batch1hes,37,45,1,Screen 1,continueButton,response_rating_scale_likert_active,1690.699999999255,NA,NA,Strongly Agree,1,0,1,0,NA,NA,NA,NA,1,statements,I want to get my freedoms back,1,17/05/2021 10:58,17/05/2021 11:12,875,Most weeks,Most days,32,Female,-99,A levels,6,1,Against,For
48,1658935866223,27/07/2022 15:31:06,1658935866209,1,27/07/2022 16:31:06,94050,2,task-an6x,NA,23334654,6847612,NA,complete,NA,62e1597b17a7a6b5800471ca,computer,Desktop or Laptop,Linux x86_64,Chrome 98.0.4758.102,1366x768,1356x629,NA,ITT Ratings,3,For,1,NA,NA,NA,NA,NA,NA,NA,NA,NA,ACCEPT,batch1hes,batch1hes,36,46,1,Screen 1,continueButton,response_rating_scale_likert_active,3665.800000000745,NA,NA,Strongly Disagree,1,0,1,0,NA,NA,NA,NA,1,statements,It is a new technology that was considered unethical before thats why it was never passed,1,17/05/2021 10:58,17/05/2021 11:12,875,Most weeks,Most days,32,Female,-99,A levels,6,3,Against,Against
49,1658935870037,27/07/2022 15:31:10,1658935870015,1,27/07/2022 16:31:10,94050,2,task-an6x,NA,23334654,6847612,NA,complete,NA,62e1597b17a7a6b5800471ca,computer,Desktop or Laptop,Linux x86_64,Chrome 98.0.4758.102,1366x768,1356x629,NA,ITT Ratings,3,For,1,NA,NA,NA,NA,NA,NA,NA,NA,NA,ACCEPT,batch1hes,batch1hes,34,47,1,Screen 1,continueButton,response_rating_scale_likert_active,3744.099999999627,NA,NA,Strongly Disagree,1,0,1,0,NA,NA,NA,NA,1,statements,The rate of death from covid-19 is very low and a vaccine isn't needed,1,17/05/2021 10:58,17/05/2021 11:12,875,Most weeks,Most days,32,Female,-99,A levels,6,1,Against,Against
50,1658935872364,27/07/2022 15:31:12,1658935872353,1,27/07/2022 16:31:12,94050,2,task-an6x,NA,23334654,6847612,NA,complete,NA,62e1597b17a7a6b5800471ca,computer,Desktop or Laptop,Linux x86_64,Chrome 98.0.4758.102,1366x768,1356x629,NA,ITT Ratings,3,For,1,NA,NA,NA,NA,NA,NA,NA,NA,NA,ACCEPT,batch1hes,batch1hes,31,48,1,Screen 1,continueButton,response_rating_scale_likert_active,2299.9000000003725,NA,NA,Strongly Agree,1,0,1,0,NA,NA,NA,NA,1,statements,The more people who get vaccinated the sooner the restrictions will be lifted.,1,17/05/2021 10:35,17/05/2021 11:12,2227,A few times a year,A few times a year,32,Female,-99,A levels,5,1,Against,For
51,1658935874608,27/07/2022 15:31:14,1658935874591,1,27/07/2022 16:31:14,94050,2,task-an6x,NA,23334654,6847612,NA,complete,NA,62e1597b17a7a6b5800471ca,computer,Desktop or Laptop,Linux x86_64,Chrome 98.0.4758.102,1366x768,1356x629,NA,ITT Ratings,3,For,1,NA,NA,NA,NA,NA,NA,NA,NA,NA,ACCEPT,batch1hes,batch1hes,57,49,1,Screen 1,continueButton,response_rating_scale_likert_active,2194.5,NA,NA,Strongly Agree,1,0,1,0,NA,NA,NA,NA,1,statements,the long term benefits outweigh the temporary side-effects,1,17/05/2021 11:08,17/05/2021 11:14,344,Rarely,Most months,27,Male,-99,"Undergraduate degree (BSc, BA)",9,3,Against,For
52,1658935877665,27/07/2022 15:31:17,1658935877646,1,27/07/2022 16:31:17,94050,2,task-an6x,NA,23334654,6847612,NA,complete,NA,62e1597b17a7a6b5800471ca,computer,Desktop or Laptop,Linux x86_64,Chrome 98.0.4758.102,1366x768,1356x629,NA,ITT Ratings,3,For,1,NA,NA,NA,NA,NA,NA,NA,NA,NA,ACCEPT,batch1hes,batch1hes,17,50,1,Screen 1,continueButton,response_rating_scale_likert_active,3011.4000000003725,NA,NA,Somewhat Disagree,1,0,1,0,NA,NA,NA,NA,1,statements,Im not mixing with other people,1,17/05/2021 10:56,17/05/2021 11:12,973,Most weeks,Most weeks,49,Female,-99,GCSEs,3,2,Against,Against
53,1658935881234,27/07/2022 15:31:21,1658935881216,1,27/07/2022 16:31:21,94050,2,task-an6x,NA,23334654,6847612,NA,complete,NA,62e1597b17a7a6b5800471ca,computer,Desktop or Laptop,Linux x86_64,Chrome 98.0.4758.102,1366x768,1356x629,NA,ITT Ratings,3,For,1,NA,NA,NA,NA,NA,NA,NA,NA,NA,ACCEPT,batch1hes,batch1hes,50,51,1,Screen 1,continueButton,response_rating_scale_likert_active,3529.800000000745,NA,NA,Strongly Disagree,1,0,1,0,NA,NA,NA,NA,1,statements,Because I am old and therefore at a higher risk of dying if I caught Covid,1,17/05/2021 10:47,17/05/2021 11:14,1618,Most days,Most days,54,Male,-99,Vocational Training / Apprenticeship,8,2,Against,For
54,1658935885015,27/07/2022 15:31:25,1658935884995,1,27/07/2022 16:31:24,94050,2,task-an6x,NA,23334654,6847612,NA,complete,NA,62e1597b17a7a6b5800471ca,computer,Desktop or Laptop,Linux x86_64,Chrome 98.0.4758.102,1366x768,1356x629,NA,ITT Ratings,3,For,1,NA,NA,NA,NA,NA,NA,NA,NA,NA,ACCEPT,batch1hes,batch1hes,60,52,1,Screen 1,continueButton,response_rating_scale_likert_active,3741.2000000011176,NA,NA,Strongly Agree,1,0,1,0,NA,NA,NA,NA,1,statements,The vaccine was man made,1,17/05/2021 11:06,17/05/2021 11:14,491,Once or twice a year,Most months,34,Male,-99,GCSEs,10,3,Against,Against
55,1658935887470,27/07/2022 15:31:27,1658935887451,1,27/07/2022 16:31:27,94050,2,task-an6x,NA,23334654,6847612,NA,complete,NA,62e1597b17a7a6b5800471ca,computer,Desktop or Laptop,Linux x86_64,Chrome 98.0.4758.102,1366x768,1356x629,NA,ITT Ratings,3,For,1,NA,NA,NA,NA,NA,NA,NA,NA,NA,ACCEPT,batch1hes,batch1hes,48,53,1,Screen 1,continueButton,response_rating_scale_likert_active,2415.7000000011176,NA,NA,Strongly Disagree,1,0,1,0,NA,NA,NA,NA,1,statements,I am undergoing treatment for cancer,1,17/05/2021 10:47,17/05/2021 11:14,1618,Most days,Most days,54,Male,-99,Vocational Training / Apprenticeship,8,3,Against,Against
56,1658935890868,27/07/2022 15:31:30,1658935890853,1,27/07/2022 16:31:30,94050,2,task-an6x,NA,23334654,6847612,NA,complete,NA,62e1597b17a7a6b5800471ca,computer,Desktop or Laptop,Linux x86_64,Chrome 98.0.4758.102,1366x768,1356x629,NA,ITT Ratings,3,For,1,NA,NA,NA,NA,NA,NA,NA,NA,NA,ACCEPT,batch1hes,batch1hes,35,54,1,Screen 1,continueButton,response_rating_scale_likert_active,3351.4000000003725,NA,NA,Disagree,1,0,1,0,NA,NA,NA,NA,1,statements,The vaccine hasn't been tested for long enough to ensure its safety and effectiveness,1,17/05/2021 10:58,17/05/2021 11:12,875,Most weeks,Most days,32,Female,-99,A levels,6,2,Against,Against
57,1658935893304,27/07/2022 15:31:33,1658935893263,1,27/07/2022 16:31:33,94050,2,task-an6x,NA,23334654,6847612,NA,complete,NA,62e1597b17a7a6b5800471ca,computer,Desktop or Laptop,Linux x86_64,Chrome 98.0.4758.102,1366x768,1356x629,NA,ITT Ratings,3,For,1,NA,NA,NA,NA,NA,NA,NA,NA,NA,ACCEPT,batch1hes,batch1hes,58,55,1,Screen 1,continueButton,response_rating_scale_likert_active,2369,NA,NA,Strongly Agree,1,0,1,0,NA,NA,NA,NA,1,statements,I don't know what's in it,1,17/05/2021 11:06,17/05/2021 11:14,491,Once or twice a year,Most months,34,Male,-99,GCSEs,10,1,Against,Against
58,1658935897021,27/07/2022 15:31:37,1658935896992,1,27/07/2022 16:31:36,94050,2,task-an6x,NA,23334654,6847612,NA,complete,NA,62e1597b17a7a6b5800471ca,computer,Desktop or Laptop,Linux x86_64,Chrome 98.0.4758.102,1366x768,1356x629,NA,ITT Ratings,3,For,1,NA,NA,NA,NA,NA,NA,NA,NA,NA,ACCEPT,batch1hes,batch1hes,46,56,1,Screen 1,continueButton,response_rating_scale_likert_active,3694.099999999627,NA,NA,Strongly Disagree,1,0,1,0,NA,NA,NA,NA,1,statements,I would rather wait to see if there are any negative effect in people who have had the vaccine before I make up my mind,1,17/05/2021 10:47,17/05/2021 11:14,1618,Most days,Most days,54,Male,-99,Vocational Training / Apprenticeship,8,1,Against,Against
59,1658935899659,27/07/2022 15:31:39,1658935899646,1,27/07/2022 16:31:39,94050,2,task-an6x,NA,23334654,6847612,NA,complete,NA,62e1597b17a7a6b5800471ca,computer,Desktop or Laptop,Linux x86_64,Chrome 98.0.4758.102,1366x768,1356x629,NA,ITT Ratings,3,For,1,NA,NA,NA,NA,NA,NA,NA,NA,NA,ACCEPT,batch1hes,batch1hes,8,57,1,Screen 1,continueButton,response_rating_scale_likert_active,2616.4000000003725,NA,NA,Strongly Agree,1,0,1,0,NA,NA,NA,NA,1,statements,there are a load of people receiving the vaccine it's safe.,1,17/05/2021 10:58,17/05/2021 11:09,624,Most days,Most months,32,Female,-99,A levels,1,2,Against,For
60,1658935903291,27/07/2022 15:31:43,1658935903271,1,27/07/2022 16:31:43,94050,2,task-an6x,NA,23334654,6847612,NA,complete,NA,62e1597b17a7a6b5800471ca,computer,Desktop or Laptop,Linux x86_64,Chrome 98.0.4758.102,1366x768,1356x629,NA,ITT Ratings,3,For,1,NA,NA,NA,NA,NA,NA,NA,NA,NA,ACCEPT,batch1hes,batch1hes,51,58,1,Screen 1,continueButton,response_rating_scale_likert_active,3585.2999999988824,NA,NA,Neither Agree nor Disagree,1,0,1,0,NA,NA,NA,NA,1,statements,Because in the end everyone will be forced to have the vaccine if they want to go on holiday or go to certain events,1,17/05/2021 10:47,17/05/2021 11:14,1618,Most days,Most days,54,Male,-99,Vocational Training / Apprenticeship,8,3,Against,For
61,1658935905211,27/07/2022 15:31:45,1658935905196,1,27/07/2022 16:31:45,94050,2,task-an6x,NA,23334654,6847612,NA,complete,NA,62e1597b17a7a6b5800471ca,computer,Desktop or Laptop,Linux x86_64,Chrome 98.0.4758.102,1366x768,1356x629,NA,ITT Ratings,3,For,1,NA,NA,NA,NA,NA,NA,NA,NA,NA,ACCEPT,batch1hes,batch1hes,4,59,1,Screen 1,continueButton,response_rating_scale_likert_active,1886.800000000745,NA,NA,Strongly Agree,1,0,1,0,NA,NA,NA,NA,1,statements,"the vaccine has side effects.

",1,17/05/2021 10:58,17/05/2021 11:09,624,Most days,Most months,32,Female,-99,A levels,1,1,Against,Against
62,1658935910131,27/07/2022 15:31:50,1658935910114,1,27/07/2022 16:31:50,94050,2,task-an6x,NA,23334654,6847612,NA,complete,NA,62e1597b17a7a6b5800471ca,computer,Desktop or Laptop,Linux x86_64,Chrome 98.0.4758.102,1366x768,1356x629,NA,ITT Ratings,3,For,1,NA,NA,NA,NA,NA,NA,NA,NA,NA,ACCEPT,batch1hes,batch1hes,42,60,1,Screen 1,continueButton,response_rating_scale_likert_active,4880.300000000745,NA,NA,Neither Agree nor Disagree,1,0,1,0,NA,NA,NA,NA,1,statements,I might be the one who gets the blood clots.,1,17/05/2021 10:47,17/05/2021 11:13,1550,Most months,Most months,49,Male,-99,Vocational Training / Apprenticeship,7,3,Against,Against
63,1658935912989,27/07/2022 15:31:52,1658935912974,1,27/07/2022 16:31:52,94050,2,task-an6x,NA,23334654,6847612,NA,complete,NA,62e1597b17a7a6b5800471ca,computer,Desktop or Laptop,Linux x86_64,Chrome 98.0.4758.102,1366x768,1356x629,NA,ITT Ratings,3,For,1,NA,NA,NA,NA,NA,NA,NA,NA,NA,ACCEPT,batch1hes,batch1hes,2,61,1,Screen 1,continueButton,response_rating_scale_likert_active,2830.300000000745,NA,NA,Somewhat Agree,1,0,1,0,NA,NA,NA,NA,1,statements,We would like to check you are reading each argument carefully. Please select 'Somewhat Agree' for this answer,1,NA,NA,NA,NA,NA,NA,NA,NA,NA,NA,check1,NA,NA
64,1658935916033,27/07/2022 15:31:56,1658935916014,1,27/07/2022 16:31:56,94050,2,task-an6x,NA,23334654,6847612,NA,complete,NA,62e1597b17a7a6b5800471ca,computer,Desktop or Laptop,Linux x86_64,Chrome 98.0.4758.102,1366x768,1356x629,NA,ITT Ratings,3,For,1,NA,NA,NA,NA,NA,NA,NA,NA,NA,ACCEPT,batch1hes,batch1hes,24,62,1,Screen 1,continueButton,response_rating_scale_likert_active,3013.5,NA,NA,Disagree,1,0,1,0,NA,NA,NA,NA,1,statements,It will have serious consequences on peoples health.,1,17/05/2021 11:04,17/05/2021 11:12,483,Most days,Most weeks,31,Female,-99,GCSEs,4,3,Against,Against
65,1658935916094,27/07/2022 15:31:56,1658935916026,1,27/07/2022 16:31:56,94050,2,task-an6x,NA,23334654,6847612,NA,complete,NA,62e1597b17a7a6b5800471ca,computer,Desktop or Laptop,Linux x86_64,Chrome 98.0.4758.102,1366x768,1356x629,NA,ITT Ratings,3,For,1,NA,NA,NA,NA,NA,NA,NA,NA,NA,ACCEPT,batch1hes,NA,NA,END TASK,NA,NA,NA,NA,208232,NA,NA,NA,NA,0,1,0,NA,NA,NA,NA,NA,NA,NA,NA,NA,NA,NA,NA,NA,NA,NA,NA,NA,NA,NA,NA,NA
1,1658935942903,27/07/2022 15:32:22,1658935942772,1,27/07/2022 16:32:22,94050,2,task-an6x,NA,23334818,6847658,NA,complete,NA,62e15a5c99919ca6081995aa,computer,Desktop or Laptop,Windows 10,Chrome 103.0.0.0,1280x720,1280x577,NA,ITT Ratings,3,For,1,NA,NA,NA,NA,NA,NA,NA,NA,NA,ACCEPT,batch1hes,NA,NA,BEGIN TASK,NA,NA,NA,NA,NA,NA,NA,NA,NA,0,1,0,NA,NA,NA,NA,NA,NA,NA,NA,NA,NA,NA,NA,NA,NA,NA,NA,NA,NA,NA,NA,NA
2,1658935952173,27/07/2022 15:32:32,1658935952109,1,27/07/2022 16:32:32,94050,2,task-an6x,NA,23334818,6847658,NA,complete,NA,62e15a5c99919ca6081995aa,computer,Desktop or Laptop,Windows 10,Chrome 103.0.0.0,1280x720,1280x577,NA,ITT Ratings,3,For,1,NA,NA,NA,NA,NA,NA,NA,NA,NA,ACCEPT,batch1hes,batch1hes,1,1,1,Screen 1,advancementZone,continue_button,9183.600000023842,NA,NA,NA,NA,0,1,0,NA,NA,NA,NA,NA,instructions,NA,NA,NA,NA,NA,NA,NA,NA,NA,NA,NA,NA,NA,NA,NA
3,1658935960395,27/07/2022 15:32:40,1658935960305,1,27/07/2022 16:32:40,94050,2,task-an6x,NA,23334818,6847658,NA,complete,NA,62e15a5c99919ca6081995aa,computer,Desktop or Laptop,Windows 10,Chrome 103.0.0.0,1280x720,1280x577,NA,ITT Ratings,3,For,1,NA,NA,NA,NA,NA,NA,NA,NA,NA,ACCEPT,batch1hes,batch1hes,39,1,1,Screen 1,continueButton,response_rating_scale_likert_active,8171.600000023842,NA,NA,Strongly Agree,1,0,1,0,NA,NA,NA,NA,1,statements,To be able to go on holiday,1,17/05/2021 10:58,17/05/2021 11:12,875,Most weeks,Most days,32,Female,-99,A levels,6,3,Against,For
4,1658935964892,27/07/2022 15:32:44,1658935964825,1,27/07/2022 16:32:44,94050,2,task-an6x,NA,23334818,6847658,NA,complete,NA,62e15a5c99919ca6081995aa,computer,Desktop or Laptop,Windows 10,Chrome 103.0.0.0,1280x720,1280x577,NA,ITT Ratings,3,For,1,NA,NA,NA,NA,NA,NA,NA,NA,NA,ACCEPT,batch1hes,batch1hes,34,2,1,Screen 1,continueButton,response_rating_scale_likert_active,4444.5,NA,NA,Strongly Disagree,1,0,1,0,NA,NA,NA,NA,1,statements,The rate of death from covid-19 is very low and a vaccine isn't needed,1,17/05/2021 10:58,17/05/2021 11:12,875,Most weeks,Most days,32,Female,-99,A levels,6,1,Against,Against
5,1658935970664,27/07/2022 15:32:50,1658935970591,1,27/07/2022 16:32:50,94050,2,task-an6x,NA,23334818,6847658,NA,complete,NA,62e15a5c99919ca6081995aa,computer,Desktop or Laptop,Windows 10,Chrome 103.0.0.0,1280x720,1280x577,NA,ITT Ratings,3,For,1,NA,NA,NA,NA,NA,NA,NA,NA,NA,ACCEPT,batch1hes,batch1hes,35,3,1,Screen 1,continueButton,response_rating_scale_likert_active,5742.599999904633,NA,NA,Disagree,1,0,1,0,NA,NA,NA,NA,1,statements,The vaccine hasn't been tested for long enough to ensure its safety and effectiveness,1,17/05/2021 10:58,17/05/2021 11:12,875,Most weeks,Most days,32,Female,-99,A levels,6,2,Against,Against
6,1658935973624,27/07/2022 15:32:53,1658935973555,1,27/07/2022 16:32:53,94050,2,task-an6x,NA,23334818,6847658,NA,complete,NA,62e15a5c99919ca6081995aa,computer,Desktop or Laptop,Windows 10,Chrome 103.0.0.0,1280x720,1280x577,NA,ITT Ratings,3,For,1,NA,NA,NA,NA,NA,NA,NA,NA,NA,ACCEPT,batch1hes,batch1hes,44,4,1,Screen 1,continueButton,response_rating_scale_likert_active,2886.399999976158,NA,NA,Strongly Disagree,1,0,1,0,NA,NA,NA,NA,1,statements,Only a few people have died from it.,1,17/05/2021 10:47,17/05/2021 11:13,1550,Most months,Most months,49,Male,-99,Vocational Training / Apprenticeship,7,2,Against,For
7,1658935979930,27/07/2022 15:32:59,1658935979861,1,27/07/2022 16:32:59,94050,2,task-an6x,NA,23334818,6847658,NA,complete,NA,62e15a5c99919ca6081995aa,computer,Desktop or Laptop,Windows 10,Chrome 103.0.0.0,1280x720,1280x577,NA,ITT Ratings,3,For,1,NA,NA,NA,NA,NA,NA,NA,NA,NA,ACCEPT,batch1hes,batch1hes,13,5,1,Screen 1,continueButton,response_rating_scale_likert_active,6237.200000047684,NA,NA,Agree,1,0,1,0,NA,NA,NA,NA,1,statements,Protects you against the virus so that you have immunity against it,1,17/05/2021 10:56,17/05/2021 11:11,875,Most days,Most weeks,24,Female,-99,"Undergraduate degree (BSc, BA)",2,1,Against,For
8,1658935983332,27/07/2022 15:33:03,1658935983227,1,27/07/2022 16:33:03,94050,2,task-an6x,NA,23334818,6847658,NA,complete,NA,62e15a5c99919ca6081995aa,computer,Desktop or Laptop,Windows 10,Chrome 103.0.0.0,1280x720,1280x577,NA,ITT Ratings,3,For,1,NA,NA,NA,NA,NA,NA,NA,NA,NA,ACCEPT,batch1hes,batch1hes,59,6,1,Screen 1,continueButton,response_rating_scale_likert_active,3294.5,NA,NA,Strongly Disagree,1,0,1,0,NA,NA,NA,NA,1,statements,I've never had a vaccine and never will,1,17/05/2021 11:06,17/05/2021 11:14,491,Once or twice a year,Most months,34,Male,-99,GCSEs,10,2,Against,Against
9,1658935987000,27/07/2022 15:33:07,1658935986922,1,27/07/2022 16:33:06,94050,2,task-an6x,NA,23334818,6847658,NA,complete,NA,62e15a5c99919ca6081995aa,computer,Desktop or Laptop,Windows 10,Chrome 103.0.0.0,1280x720,1280x577,NA,ITT Ratings,3,For,1,NA,NA,NA,NA,NA,NA,NA,NA,NA,ACCEPT,batch1hes,batch1hes,27,7,1,Screen 1,continueButton,response_rating_scale_likert_active,3623.100000023842,NA,NA,Strongly Agree,1,0,1,0,NA,NA,NA,NA,1,statements,We must have the vaccine in order to return to normality.,1,17/05/2021 11:04,17/05/2021 11:12,483,Most days,Most weeks,31,Female,-99,GCSEs,4,3,Against,For
10,1658935989064,27/07/2022 15:33:09,1658935989003,1,27/07/2022 16:33:09,94050,2,task-an6x,NA,23334818,6847658,NA,complete,NA,62e15a5c99919ca6081995aa,computer,Desktop or Laptop,Windows 10,Chrome 103.0.0.0,1280x720,1280x577,NA,ITT Ratings,3,For,1,NA,NA,NA,NA,NA,NA,NA,NA,NA,ACCEPT,batch1hes,batch1hes,37,8,1,Screen 1,continueButton,response_rating_scale_likert_active,2022.600000023842,NA,NA,Strongly Agree,1,0,1,0,NA,NA,NA,NA,1,statements,I want to get my freedoms back,1,17/05/2021 10:58,17/05/2021 11:12,875,Most weeks,Most days,32,Female,-99,A levels,6,1,Against,For
11,1658935992203,27/07/2022 15:33:12,1658935992141,1,27/07/2022 16:33:12,94050,2,task-an6x,NA,23334818,6847658,NA,complete,NA,62e15a5c99919ca6081995aa,computer,Desktop or Laptop,Windows 10,Chrome 103.0.0.0,1280x720,1280x577,NA,ITT Ratings,3,For,1,NA,NA,NA,NA,NA,NA,NA,NA,NA,ACCEPT,batch1hes,batch1hes,26,9,1,Screen 1,continueButton,response_rating_scale_likert_active,3087.1999999284744,NA,NA,Strongly Agree,1,0,1,0,NA,NA,NA,NA,1,statements,It is important to receive the vaccine to protect your health and the health of others.,1,17/05/2021 11:04,17/05/2021 11:12,483,Most days,Most weeks,31,Female,-99,GCSEs,4,2,Against,For
12,1658935996734,27/07/2022 15:33:16,1658935996671,1,27/07/2022 16:33:16,94050,2,task-an6x,NA,23334818,6847658,NA,complete,NA,62e15a5c99919ca6081995aa,computer,Desktop or Laptop,Windows 10,Chrome 103.0.0.0,1280x720,1280x577,NA,ITT Ratings,3,For,1,NA,NA,NA,NA,NA,NA,NA,NA,NA,ACCEPT,batch1hes,batch1hes,57,10,1,Screen 1,continueButton,response_rating_scale_likert_active,4467.5,NA,NA,Strongly Agree,1,0,1,0,NA,NA,NA,NA,1,statements,the long term benefits outweigh the temporary side-effects,1,17/05/2021 11:08,17/05/2021 11:14,344,Rarely,Most months,27,Male,-99,"Undergraduate degree (BSc, BA)",9,3,Against,For
13,1658936004982,27/07/2022 15:33:24,1658936004912,1,27/07/2022 16:33:24,94050,2,task-an6x,NA,23334818,6847658,NA,complete,NA,62e15a5c99919ca6081995aa,computer,Desktop or Laptop,Windows 10,Chrome 103.0.0.0,1280x720,1280x577,NA,ITT Ratings,3,For,1,NA,NA,NA,NA,NA,NA,NA,NA,NA,ACCEPT,batch1hes,batch1hes,28,11,1,Screen 1,continueButton,response_rating_scale_likert_active,8183.899999976158,NA,NA,Neither Agree nor Disagree,1,0,1,0,NA,NA,NA,NA,1,statements,The risk of dying from Covid is only 0.03% unless you have an underlying health problem.,1,17/05/2021 10:35,17/05/2021 11:12,2227,A few times a year,A few times a year,32,Female,-99,A levels,5,1,Against,Against
14,1658936008626,27/07/2022 15:33:28,1658936008556,1,27/07/2022 16:33:28,94050,2,task-an6x,NA,23334818,6847658,NA,complete,NA,62e15a5c99919ca6081995aa,computer,Desktop or Laptop,Windows 10,Chrome 103.0.0.0,1280x720,1280x577,NA,ITT Ratings,3,For,1,NA,NA,NA,NA,NA,NA,NA,NA,NA,ACCEPT,batch1hes,batch1hes,19,12,1,Screen 1,continueButton,response_rating_scale_likert_active,3570.7999999523163,NA,NA,Strongly Agree,1,0,1,0,NA,NA,NA,NA,1,statements,Its the only way to stop the spread of the virus,1,17/05/2021 10:56,17/05/2021 11:12,973,Most weeks,Most weeks,49,Female,-99,GCSEs,3,1,Against,For
15,1658936011135,27/07/2022 15:33:31,1658936011059,1,27/07/2022 16:33:31,94050,2,task-an6x,NA,23334818,6847658,NA,complete,NA,62e15a5c99919ca6081995aa,computer,Desktop or Laptop,Windows 10,Chrome 103.0.0.0,1280x720,1280x577,NA,ITT Ratings,3,For,1,NA,NA,NA,NA,NA,NA,NA,NA,NA,ACCEPT,batch1hes,batch1hes,62,13,1,Screen 1,continueButton,response_rating_scale_likert_active,2437.7000000476837,NA,NA,Strongly Agree,1,0,1,0,NA,NA,NA,NA,1,statements,The news said its effective,1,17/05/2021 11:06,17/05/2021 11:14,491,Once or twice a year,Most months,34,Male,-99,GCSEs,10,2,Against,For
16,1658936013748,27/07/2022 15:33:33,1658936013675,1,27/07/2022 16:33:33,94050,2,task-an6x,NA,23334818,6847658,NA,complete,NA,62e15a5c99919ca6081995aa,computer,Desktop or Laptop,Windows 10,Chrome 103.0.0.0,1280x720,1280x577,NA,ITT Ratings,3,For,1,NA,NA,NA,NA,NA,NA,NA,NA,NA,ACCEPT,batch1hes,batch1hes,60,14,1,Screen 1,continueButton,response_rating_scale_likert_active,2553.399999976158,NA,NA,Strongly Agree,1,0,1,0,NA,NA,NA,NA,1,statements,The vaccine was man made,1,17/05/2021 11:06,17/05/2021 11:14,491,Once or twice a year,Most months,34,Male,-99,GCSEs,10,3,Against,Against
17,1658936020685,27/07/2022 15:33:40,1658936020610,1,27/07/2022 16:33:40,94050,2,task-an6x,NA,23334818,6847658,NA,complete,NA,62e15a5c99919ca6081995aa,computer,Desktop or Laptop,Windows 10,Chrome 103.0.0.0,1280x720,1280x577,NA,ITT Ratings,3,For,1,NA,NA,NA,NA,NA,NA,NA,NA,NA,ACCEPT,batch1hes,batch1hes,52,15,1,Screen 1,continueButton,response_rating_scale_likert_active,6883.400000095367,NA,NA,Disagree,1,0,1,0,NA,NA,NA,NA,1,statements,"If enough people get a vaccine, whether I do or not is inconsequential",1,17/05/2021 11:08,17/05/2021 11:14,344,Rarely,Most months,27,Male,-99,"Undergraduate degree (BSc, BA)",9,1,Against,Against
18,1658936027749,27/07/2022 15:33:47,1658936027671,1,27/07/2022 16:33:47,94050,2,task-an6x,NA,23334818,6847658,NA,complete,NA,62e15a5c99919ca6081995aa,computer,Desktop or Laptop,Windows 10,Chrome 103.0.0.0,1280x720,1280x577,NA,ITT Ratings,3,For,1,NA,NA,NA,NA,NA,NA,NA,NA,NA,ACCEPT,batch1hes,batch1hes,18,16,1,Screen 1,continueButton,response_rating_scale_likert_active,7003,NA,NA,Somewhat Agree,1,0,1,0,NA,NA,NA,NA,1,statements,Im unsure of the long term affects,1,17/05/2021 10:56,17/05/2021 11:12,973,Most weeks,Most weeks,49,Female,-99,GCSEs,3,3,Against,Against
19,1658936032616,27/07/2022 15:33:52,1658936032540,1,27/07/2022 16:33:52,94050,2,task-an6x,NA,23334818,6847658,NA,complete,NA,62e15a5c99919ca6081995aa,computer,Desktop or Laptop,Windows 10,Chrome 103.0.0.0,1280x720,1280x577,NA,ITT Ratings,3,For,1,NA,NA,NA,NA,NA,NA,NA,NA,NA,ACCEPT,batch1hes,batch1hes,22,17,1,Screen 1,continueButton,response_rating_scale_likert_active,4812.199999928474,NA,NA,Strongly Disagree,1,0,1,0,NA,NA,NA,NA,1,statements,The vaccine is not safe to receive.,1,17/05/2021 11:04,17/05/2021 11:12,483,Most days,Most weeks,31,Female,-99,GCSEs,4,1,Against,Against
20,1658936036309,27/07/2022 15:33:56,1658936036220,1,27/07/2022 16:33:56,94050,2,task-an6x,NA,23334818,6847658,NA,complete,NA,62e15a5c99919ca6081995aa,computer,Desktop or Laptop,Windows 10,Chrome 103.0.0.0,1280x720,1280x577,NA,ITT Ratings,3,For,1,NA,NA,NA,NA,NA,NA,NA,NA,NA,ACCEPT,batch1hes,batch1hes,7,18,1,Screen 1,continueButton,response_rating_scale_likert_active,3627.8000000715256,NA,NA,Strongly Agree,1,0,1,0,NA,NA,NA,NA,1,statements,i was fine are a few days.,1,17/05/2021 10:58,17/05/2021 11:09,624,Most days,Most months,32,Female,-99,A levels,1,1,Against,For
21,1658936039779,27/07/2022 15:33:59,1658936039708,1,27/07/2022 16:33:59,94050,2,task-an6x,NA,23334818,6847658,NA,complete,NA,62e15a5c99919ca6081995aa,computer,Desktop or Laptop,Windows 10,Chrome 103.0.0.0,1280x720,1280x577,NA,ITT Ratings,3,For,1,NA,NA,NA,NA,NA,NA,NA,NA,NA,ACCEPT,batch1hes,batch1hes,17,19,1,Screen 1,continueButton,response_rating_scale_likert_active,3431.6999999284744,NA,NA,Disagree,1,0,1,0,NA,NA,NA,NA,1,statements,Im not mixing with other people,1,17/05/2021 10:56,17/05/2021 11:12,973,Most weeks,Most weeks,49,Female,-99,GCSEs,3,2,Against,Against
22,1658936044377,27/07/2022 15:34:04,1658936044304,1,27/07/2022 16:34:04,94050,2,task-an6x,NA,23334818,6847658,NA,complete,NA,62e15a5c99919ca6081995aa,computer,Desktop or Laptop,Windows 10,Chrome 103.0.0.0,1280x720,1280x577,NA,ITT Ratings,3,For,1,NA,NA,NA,NA,NA,NA,NA,NA,NA,ACCEPT,batch1hes,batch1hes,33,20,1,Screen 1,continueButton,response_rating_scale_likert_active,4536.799999952316,NA,NA,Neither Agree nor Disagree,1,0,1,0,NA,NA,NA,NA,1,statements,I want to be able to fly for holidays this summer.,1,17/05/2021 10:35,17/05/2021 11:12,2227,A few times a year,A few times a year,32,Female,-99,A levels,5,3,Against,For
23,1658936047132,27/07/2022 15:34:07,1658936047067,1,27/07/2022 16:34:07,94050,2,task-an6x,NA,23334818,6847658,NA,complete,NA,62e15a5c99919ca6081995aa,computer,Desktop or Laptop,Windows 10,Chrome 103.0.0.0,1280x720,1280x577,NA,ITT Ratings,3,For,1,NA,NA,NA,NA,NA,NA,NA,NA,NA,ACCEPT,batch1hes,batch1hes,9,21,1,Screen 1,continueButton,response_rating_scale_likert_active,2706.2999999523163,NA,NA,Strongly Agree,1,0,1,0,NA,NA,NA,NA,1,statements,it will help you protect yourself.,1,17/05/2021 10:58,17/05/2021 11:09,624,Most days,Most months,32,Female,-99,A levels,1,3,Against,For
24,1658936048848,27/07/2022 15:34:08,1658936048780,1,27/07/2022 16:34:08,94050,2,task-an6x,NA,23334818,6847658,NA,complete,NA,62e15a5c99919ca6081995aa,computer,Desktop or Laptop,Windows 10,Chrome 103.0.0.0,1280x720,1280x577,NA,ITT Ratings,3,For,1,NA,NA,NA,NA,NA,NA,NA,NA,NA,ACCEPT,batch1hes,batch1hes,56,22,1,Screen 1,continueButton,response_rating_scale_likert_active,1657.600000023842,NA,NA,Strongly Agree,1,0,1,0,NA,NA,NA,NA,1,statements,better for travelling abroad,1,17/05/2021 11:08,17/05/2021 11:14,344,Rarely,Most months,27,Male,-99,"Undergraduate degree (BSc, BA)",9,2,Against,For
25,1658936056031,27/07/2022 15:34:16,1658936055959,1,27/07/2022 16:34:15,94050,2,task-an6x,NA,23334818,6847658,NA,complete,NA,62e15a5c99919ca6081995aa,computer,Desktop or Laptop,Windows 10,Chrome 103.0.0.0,1280x720,1280x577,NA,ITT Ratings,3,For,1,NA,NA,NA,NA,NA,NA,NA,NA,NA,ACCEPT,batch1hes,batch1hes,53,23,1,Screen 1,continueButton,response_rating_scale_likert_active,7153.899999976158,NA,NA,Disagree,1,0,1,0,NA,NA,NA,NA,1,statements,I am living in a country where the outbreak has been managed well/practically non-existent,1,17/05/2021 11:08,17/05/2021 11:14,344,Rarely,Most months,27,Male,-99,"Undergraduate degree (BSc, BA)",9,2,Against,Against
26,1658936061664,27/07/2022 15:34:21,1658936061566,1,27/07/2022 16:34:21,94050,2,task-an6x,NA,23334818,6847658,NA,complete,NA,62e15a5c99919ca6081995aa,computer,Desktop or Laptop,Windows 10,Chrome 103.0.0.0,1280x720,1280x577,NA,ITT Ratings,3,For,1,NA,NA,NA,NA,NA,NA,NA,NA,NA,ACCEPT,batch1hes,batch1hes,25,24,1,Screen 1,continueButton,response_rating_scale_likert_active,5549.400000095367,NA,NA,Agree,1,0,1,0,NA,NA,NA,NA,1,statements,The vaccine is perfectly safe and better versions have already been produced.,1,17/05/2021 11:04,17/05/2021 11:12,483,Most days,Most weeks,31,Female,-99,GCSEs,4,1,Against,For
27,1658936067240,27/07/2022 15:34:27,1658936067173,1,27/07/2022 16:34:27,94050,2,task-an6x,NA,23334818,6847658,NA,complete,NA,62e15a5c99919ca6081995aa,computer,Desktop or Laptop,Windows 10,Chrome 103.0.0.0,1280x720,1280x577,NA,ITT Ratings,3,For,1,NA,NA,NA,NA,NA,NA,NA,NA,NA,ACCEPT,batch1hes,batch1hes,42,25,1,Screen 1,continueButton,response_rating_scale_likert_active,5553.899999976158,NA,NA,Somewhat Disagree,1,0,1,0,NA,NA,NA,NA,1,statements,I might be the one who gets the blood clots.,1,17/05/2021 10:47,17/05/2021 11:13,1550,Most months,Most months,49,Male,-99,Vocational Training / Apprenticeship,7,3,Against,Against
28,1658936072601,27/07/2022 15:34:32,1658936072527,1,27/07/2022 16:34:32,94050,2,task-an6x,NA,23334818,6847658,NA,complete,NA,62e15a5c99919ca6081995aa,computer,Desktop or Laptop,Windows 10,Chrome 103.0.0.0,1280x720,1280x577,NA,ITT Ratings,3,For,1,NA,NA,NA,NA,NA,NA,NA,NA,NA,ACCEPT,batch1hes,batch1hes,4,26,1,Screen 1,continueButton,response_rating_scale_likert_active,5289.899999976158,NA,NA,Disagree,1,0,1,0,NA,NA,NA,NA,1,statements,"the vaccine has side effects.

",1,17/05/2021 10:58,17/05/2021 11:09,624,Most days,Most months,32,Female,-99,A levels,1,1,Against,Against
29,1658936084991,27/07/2022 15:34:44,1658936084888,1,27/07/2022 16:34:44,94050,2,task-an6x,NA,23334818,6847658,NA,complete,NA,62e15a5c99919ca6081995aa,computer,Desktop or Laptop,Windows 10,Chrome 103.0.0.0,1280x720,1280x577,NA,ITT Ratings,3,For,1,NA,NA,NA,NA,NA,NA,NA,NA,NA,ACCEPT,batch1hes,batch1hes,47,27,1,Screen 1,continueButton,response_rating_scale_likert_active,12270.200000047684,NA,NA,Neither Agree nor Disagree,1,0,1,0,NA,NA,NA,NA,1,statements,"I would like to see the figures for people who have died within 28 days of having a vaccine, not just the number of deaths after having a positive test",1,17/05/2021 10:47,17/05/2021 11:14,1618,Most days,Most days,54,Male,-99,Vocational Training / Apprenticeship,8,2,Against,Against
30,1658936088273,27/07/2022 15:34:48,1658936088199,1,27/07/2022 16:34:48,94050,2,task-an6x,NA,23334818,6847658,NA,complete,NA,62e15a5c99919ca6081995aa,computer,Desktop or Laptop,Windows 10,Chrome 103.0.0.0,1280x720,1280x577,NA,ITT Ratings,3,For,1,NA,NA,NA,NA,NA,NA,NA,NA,NA,ACCEPT,batch1hes,batch1hes,55,28,1,Screen 1,continueButton,response_rating_scale_likert_active,3256.600000023842,NA,NA,Strongly Agree,1,0,1,0,NA,NA,NA,NA,1,statements,better for everyone else,1,17/05/2021 11:08,17/05/2021 11:14,344,Rarely,Most months,27,Male,-99,"Undergraduate degree (BSc, BA)",9,1,Against,For
31,1658936094727,27/07/2022 15:34:54,1658936094652,1,27/07/2022 16:34:54,94050,2,task-an6x,NA,23334818,6847658,NA,complete,NA,62e15a5c99919ca6081995aa,computer,Desktop or Laptop,Windows 10,Chrome 103.0.0.0,1280x720,1280x577,NA,ITT Ratings,3,For,1,NA,NA,NA,NA,NA,NA,NA,NA,NA,ACCEPT,batch1hes,batch1hes,2,29,1,Screen 1,continueButton,response_rating_scale_likert_active,6394.299999952316,NA,NA,Somewhat Agree,1,0,1,0,NA,NA,NA,NA,1,statements,We would like to check you are reading each argument carefully. Please select 'Somewhat Agree' for this answer,1,NA,NA,NA,NA,NA,NA,NA,NA,NA,NA,check1,NA,NA
32,1658936102111,27/07/2022 15:35:02,1658936102028,1,27/07/2022 16:35:02,94050,2,task-an6x,NA,23334818,6847658,NA,complete,NA,62e15a5c99919ca6081995aa,computer,Desktop or Laptop,Windows 10,Chrome 103.0.0.0,1280x720,1280x577,NA,ITT Ratings,3,For,1,NA,NA,NA,NA,NA,NA,NA,NA,NA,ACCEPT,batch1hes,batch1hes,23,30,1,Screen 1,continueButton,response_rating_scale_likert_active,7321.700000047684,NA,NA,Somewhat Disagree,1,0,1,0,NA,NA,NA,NA,1,statements,Its not been developed for long enough.,1,17/05/2021 11:04,17/05/2021 11:12,483,Most days,Most weeks,31,Female,-99,GCSEs,4,2,Against,Against
33,1658936105793,27/07/2022 15:35:05,1658936105697,1,27/07/2022 16:35:05,94050,2,task-an6x,NA,23334818,6847658,NA,complete,NA,62e15a5c99919ca6081995aa,computer,Desktop or Laptop,Windows 10,Chrome 103.0.0.0,1280x720,1280x577,NA,ITT Ratings,3,For,1,NA,NA,NA,NA,NA,NA,NA,NA,NA,ACCEPT,batch1hes,batch1hes,48,31,1,Screen 1,continueButton,response_rating_scale_likert_active,3621.399999976158,NA,NA,Strongly Disagree,1,0,1,0,NA,NA,NA,NA,1,statements,I am undergoing treatment for cancer,1,17/05/2021 10:47,17/05/2021 11:14,1618,Most days,Most days,54,Male,-99,Vocational Training / Apprenticeship,8,3,Against,Against
34,1658936107963,27/07/2022 15:35:07,1658936107877,1,27/07/2022 16:35:07,94050,2,task-an6x,NA,23334818,6847658,NA,complete,NA,62e15a5c99919ca6081995aa,computer,Desktop or Laptop,Windows 10,Chrome 103.0.0.0,1280x720,1280x577,NA,ITT Ratings,3,For,1,NA,NA,NA,NA,NA,NA,NA,NA,NA,ACCEPT,batch1hes,batch1hes,21,32,1,Screen 1,continueButton,response_rating_scale_likert_active,2124.600000023842,NA,NA,Strongly Agree,1,0,1,0,NA,NA,NA,NA,1,statements,It protects everyone,1,17/05/2021 10:56,17/05/2021 11:12,973,Most weeks,Most weeks,49,Female,-99,GCSEs,3,3,Against,For
35,1658936113406,27/07/2022 15:35:13,1658936113315,1,27/07/2022 16:35:13,94050,2,task-an6x,NA,23334818,6847658,NA,complete,NA,62e15a5c99919ca6081995aa,computer,Desktop or Laptop,Windows 10,Chrome 103.0.0.0,1280x720,1280x577,NA,ITT Ratings,3,For,1,NA,NA,NA,NA,NA,NA,NA,NA,NA,ACCEPT,batch1hes,batch1hes,5,33,1,Screen 1,continueButton,response_rating_scale_likert_active,5383.600000023842,NA,NA,Strongly Disagree,1,0,1,0,NA,NA,NA,NA,1,statements,if you were to have covid you would have already.,1,17/05/2021 10:58,17/05/2021 11:09,624,Most days,Most months,32,Female,-99,A levels,1,2,Against,Against
36,1658936119797,27/07/2022 15:35:19,1658936119716,1,27/07/2022 16:35:19,94050,2,task-an6x,NA,23334818,6847658,NA,complete,NA,62e15a5c99919ca6081995aa,computer,Desktop or Laptop,Windows 10,Chrome 103.0.0.0,1280x720,1280x577,NA,ITT Ratings,3,For,1,NA,NA,NA,NA,NA,NA,NA,NA,NA,ACCEPT,batch1hes,batch1hes,58,34,1,Screen 1,continueButton,response_rating_scale_likert_active,6342.799999952316,NA,NA,Somewhat Agree,1,0,1,0,NA,NA,NA,NA,1,statements,I don't know what's in it,1,17/05/2021 11:06,17/05/2021 11:14,491,Once or twice a year,Most months,34,Male,-99,GCSEs,10,1,Against,Against
37,1658936127073,27/07/2022 15:35:27,1658936126991,1,27/07/2022 16:35:26,94050,2,task-an6x,NA,23334818,6847658,NA,complete,NA,62e15a5c99919ca6081995aa,computer,Desktop or Laptop,Windows 10,Chrome 103.0.0.0,1280x720,1280x577,NA,ITT Ratings,3,For,1,NA,NA,NA,NA,NA,NA,NA,NA,NA,ACCEPT,batch1hes,batch1hes,54,35,1,Screen 1,continueButton,response_rating_scale_likert_active,7221.700000047684,NA,NA,Somewhat Agree,1,0,1,0,NA,NA,NA,NA,1,statements,I get tested all the time and can afford to self-isolate,1,17/05/2021 11:08,17/05/2021 11:14,344,Rarely,Most months,27,Male,-99,"Undergraduate degree (BSc, BA)",9,3,Against,Against
38,1658936130217,27/07/2022 15:35:30,1658936130141,1,27/07/2022 16:35:30,94050,2,task-an6x,NA,23334818,6847658,NA,complete,NA,62e15a5c99919ca6081995aa,computer,Desktop or Laptop,Windows 10,Chrome 103.0.0.0,1280x720,1280x577,NA,ITT Ratings,3,For,1,NA,NA,NA,NA,NA,NA,NA,NA,NA,ACCEPT,batch1hes,batch1hes,63,36,1,Screen 1,continueButton,response_rating_scale_likert_active,3086.399999976158,NA,NA,Strongly Agree,1,0,1,0,NA,NA,NA,NA,1,statements,Im doing my bit to help,1,17/05/2021 11:06,17/05/2021 11:14,491,Once or twice a year,Most months,34,Male,-99,GCSEs,10,3,Against,For
39,1658936134291,27/07/2022 15:35:34,1658936134223,1,27/07/2022 16:35:34,94050,2,task-an6x,NA,23334818,6847658,NA,complete,NA,62e15a5c99919ca6081995aa,computer,Desktop or Laptop,Windows 10,Chrome 103.0.0.0,1280x720,1280x577,NA,ITT Ratings,3,For,1,NA,NA,NA,NA,NA,NA,NA,NA,NA,ACCEPT,batch1hes,batch1hes,45,37,1,Screen 1,continueButton,response_rating_scale_likert_active,4020,NA,NA,Disagree,1,0,1,0,NA,NA,NA,NA,1,statements,It will stop me from getting covid.,1,17/05/2021 10:47,17/05/2021 11:13,1550,Most months,Most months,49,Male,-99,Vocational Training / Apprenticeship,7,3,Against,For
40,1658936137473,27/07/2022 15:35:37,1658936137402,1,27/07/2022 16:35:37,94050,2,task-an6x,NA,23334818,6847658,NA,complete,NA,62e15a5c99919ca6081995aa,computer,Desktop or Laptop,Windows 10,Chrome 103.0.0.0,1280x720,1280x577,NA,ITT Ratings,3,For,1,NA,NA,NA,NA,NA,NA,NA,NA,NA,ACCEPT,batch1hes,batch1hes,16,38,1,Screen 1,continueButton,response_rating_scale_likert_active,3126.7999999523163,NA,NA,Somewhat Disagree,1,0,1,0,NA,NA,NA,NA,1,statements,It hasnt been tested for long enough,1,17/05/2021 10:56,17/05/2021 11:12,973,Most weeks,Most weeks,49,Female,-99,GCSEs,3,1,Against,Against
41,1658936140756,27/07/2022 15:35:40,1658936140676,1,27/07/2022 16:35:40,94050,2,task-an6x,NA,23334818,6847658,NA,complete,NA,62e15a5c99919ca6081995aa,computer,Desktop or Laptop,Windows 10,Chrome 103.0.0.0,1280x720,1280x577,NA,ITT Ratings,3,For,1,NA,NA,NA,NA,NA,NA,NA,NA,NA,ACCEPT,batch1hes,batch1hes,32,39,1,Screen 1,continueButton,response_rating_scale_likert_active,3216.400000095367,NA,NA,Agree,1,0,1,0,NA,NA,NA,NA,1,statements,Everyone else is getting vaccinated.,1,17/05/2021 10:35,17/05/2021 11:12,2227,A few times a year,A few times a year,32,Female,-99,A levels,5,2,Against,For
42,1658936146790,27/07/2022 15:35:46,1658936146671,1,27/07/2022 16:35:46,94050,2,task-an6x,NA,23334818,6847658,NA,complete,NA,62e15a5c99919ca6081995aa,computer,Desktop or Laptop,Windows 10,Chrome 103.0.0.0,1280x720,1280x577,NA,ITT Ratings,3,For,1,NA,NA,NA,NA,NA,NA,NA,NA,NA,ACCEPT,batch1hes,batch1hes,51,40,1,Screen 1,continueButton,response_rating_scale_likert_active,5939.600000023842,NA,NA,Agree,1,0,1,0,NA,NA,NA,NA,1,statements,Because in the end everyone will be forced to have the vaccine if they want to go on holiday or go to certain events,1,17/05/2021 10:47,17/05/2021 11:14,1618,Most days,Most days,54,Male,-99,Vocational Training / Apprenticeship,8,3,Against,For
43,1658936152446,27/07/2022 15:35:52,1658936152355,1,27/07/2022 16:35:52,94050,2,task-an6x,NA,23334818,6847658,NA,complete,NA,62e15a5c99919ca6081995aa,computer,Desktop or Laptop,Windows 10,Chrome 103.0.0.0,1280x720,1280x577,NA,ITT Ratings,3,For,1,NA,NA,NA,NA,NA,NA,NA,NA,NA,ACCEPT,batch1hes,batch1hes,14,41,1,Screen 1,continueButton,response_rating_scale_likert_active,5628.800000071526,NA,NA,Disagree,1,0,1,0,NA,NA,NA,NA,1,statements,Prevents you from catching the virus or getting severe symptoms.,1,17/05/2021 10:56,17/05/2021 11:11,875,Most days,Most weeks,24,Female,-99,"Undergraduate degree (BSc, BA)",2,2,Against,For
44,1658936159146,27/07/2022 15:35:59,1658936159070,1,27/07/2022 16:35:59,94050,2,task-an6x,NA,23334818,6847658,NA,complete,NA,62e15a5c99919ca6081995aa,computer,Desktop or Laptop,Windows 10,Chrome 103.0.0.0,1280x720,1280x577,NA,ITT Ratings,3,For,1,NA,NA,NA,NA,NA,NA,NA,NA,NA,ACCEPT,batch1hes,batch1hes,50,42,1,Screen 1,continueButton,response_rating_scale_likert_active,6654.300000071526,NA,NA,Somewhat Agree,1,0,1,0,NA,NA,NA,NA,1,statements,Because I am old and therefore at a higher risk of dying if I caught Covid,1,17/05/2021 10:47,17/05/2021 11:14,1618,Most days,Most days,54,Male,-99,Vocational Training / Apprenticeship,8,2,Against,For
45,1658936165374,27/07/2022 15:36:05,1658936165293,1,27/07/2022 16:36:05,94050,2,task-an6x,NA,23334818,6847658,NA,complete,NA,62e15a5c99919ca6081995aa,computer,Desktop or Laptop,Windows 10,Chrome 103.0.0.0,1280x720,1280x577,NA,ITT Ratings,3,For,1,NA,NA,NA,NA,NA,NA,NA,NA,NA,ACCEPT,batch1hes,batch1hes,15,43,1,Screen 1,continueButton,response_rating_scale_likert_active,6167,NA,NA,Somewhat Agree,1,0,1,0,NA,NA,NA,NA,1,statements,Protects others around you from catching the virus?,1,17/05/2021 10:56,17/05/2021 11:11,875,Most days,Most weeks,24,Female,-99,"Undergraduate degree (BSc, BA)",2,3,Against,For
46,1658936169170,27/07/2022 15:36:09,1658936169095,1,27/07/2022 16:36:09,94050,2,task-an6x,NA,23334818,6847658,NA,complete,NA,62e15a5c99919ca6081995aa,computer,Desktop or Laptop,Windows 10,Chrome 103.0.0.0,1280x720,1280x577,NA,ITT Ratings,3,For,1,NA,NA,NA,NA,NA,NA,NA,NA,NA,ACCEPT,batch1hes,batch1hes,49,44,1,Screen 1,continueButton,response_rating_scale_likert_active,3741.600000023842,NA,NA,Strongly Agree,1,0,1,0,NA,NA,NA,NA,1,statements,To protect me from becoming seriously ill if I caught Covid,1,17/05/2021 10:47,17/05/2021 11:14,1618,Most days,Most days,54,Male,-99,Vocational Training / Apprenticeship,8,1,Against,For
47,1658936172109,27/07/2022 15:36:12,1658936172035,1,27/07/2022 16:36:12,94050,2,task-an6x,NA,23334818,6847658,NA,complete,NA,62e15a5c99919ca6081995aa,computer,Desktop or Laptop,Windows 10,Chrome 103.0.0.0,1280x720,1280x577,NA,ITT Ratings,3,For,1,NA,NA,NA,NA,NA,NA,NA,NA,NA,ACCEPT,batch1hes,batch1hes,61,45,1,Screen 1,continueButton,response_rating_scale_likert_active,2882.899999976158,NA,NA,Agree,1,0,1,0,NA,NA,NA,NA,1,statements,The government said it safe,1,17/05/2021 11:06,17/05/2021 11:14,491,Once or twice a year,Most months,34,Male,-99,GCSEs,10,1,Against,For
48,1658936178800,27/07/2022 15:36:18,1658936178727,1,27/07/2022 16:36:18,94050,2,task-an6x,NA,23334818,6847658,NA,complete,NA,62e15a5c99919ca6081995aa,computer,Desktop or Laptop,Windows 10,Chrome 103.0.0.0,1280x720,1280x577,NA,ITT Ratings,3,For,1,NA,NA,NA,NA,NA,NA,NA,NA,NA,ACCEPT,batch1hes,batch1hes,31,46,1,Screen 1,continueButton,response_rating_scale_likert_active,6634,NA,NA,Somewhat Agree,1,0,1,0,NA,NA,NA,NA,1,statements,The more people who get vaccinated the sooner the restrictions will be lifted.,1,17/05/2021 10:35,17/05/2021 11:12,2227,A few times a year,A few times a year,32,Female,-99,A levels,5,1,Against,For
49,1658936182264,27/07/2022 15:36:22,1658936182184,1,27/07/2022 16:36:22,94050,2,task-an6x,NA,23334818,6847658,NA,complete,NA,62e15a5c99919ca6081995aa,computer,Desktop or Laptop,Windows 10,Chrome 103.0.0.0,1280x720,1280x577,NA,ITT Ratings,3,For,1,NA,NA,NA,NA,NA,NA,NA,NA,NA,ACCEPT,batch1hes,batch1hes,43,47,1,Screen 1,continueButton,response_rating_scale_likert_active,3356.899999976158,NA,NA,Agree,1,0,1,0,NA,NA,NA,NA,1,statements,It's safe the government said so.,1,17/05/2021 10:47,17/05/2021 11:13,1550,Most months,Most months,49,Male,-99,Vocational Training / Apprenticeship,7,1,Against,For
50,1658936187155,27/07/2022 15:36:27,1658936187079,1,27/07/2022 16:36:27,94050,2,task-an6x,NA,23334818,6847658,NA,complete,NA,62e15a5c99919ca6081995aa,computer,Desktop or Laptop,Windows 10,Chrome 103.0.0.0,1280x720,1280x577,NA,ITT Ratings,3,For,1,NA,NA,NA,NA,NA,NA,NA,NA,NA,ACCEPT,batch1hes,batch1hes,46,48,1,Screen 1,continueButton,response_rating_scale_likert_active,4818.899999976158,NA,NA,Strongly Disagree,1,0,1,0,NA,NA,NA,NA,1,statements,I would rather wait to see if there are any negative effect in people who have had the vaccine before I make up my mind,1,17/05/2021 10:47,17/05/2021 11:14,1618,Most days,Most days,54,Male,-99,Vocational Training / Apprenticeship,8,1,Against,Against
51,1658936194909,27/07/2022 15:36:34,1658936194832,1,27/07/2022 16:36:34,94050,2,task-an6x,NA,23334818,6847658,NA,complete,NA,62e15a5c99919ca6081995aa,computer,Desktop or Laptop,Windows 10,Chrome 103.0.0.0,1280x720,1280x577,NA,ITT Ratings,3,For,1,NA,NA,NA,NA,NA,NA,NA,NA,NA,ACCEPT,batch1hes,batch1hes,41,49,1,Screen 1,continueButton,response_rating_scale_likert_active,7695.399999976158,NA,NA,Neither Agree nor Disagree,1,0,1,0,NA,NA,NA,NA,1,statements,I believe one of the vaccine companies is been taken to court in the USA because of people getting cancer from one it's other products.,1,17/05/2021 10:47,17/05/2021 11:13,1550,Most months,Most months,49,Male,-99,Vocational Training / Apprenticeship,7,2,Against,Against
52,1658936201616,27/07/2022 15:36:41,1658936201528,1,27/07/2022 16:36:41,94050,2,task-an6x,NA,23334818,6847658,NA,complete,NA,62e15a5c99919ca6081995aa,computer,Desktop or Laptop,Windows 10,Chrome 103.0.0.0,1280x720,1280x577,NA,ITT Ratings,3,For,1,NA,NA,NA,NA,NA,NA,NA,NA,NA,ACCEPT,batch1hes,batch1hes,11,50,1,Screen 1,continueButton,response_rating_scale_likert_active,6643,NA,NA,Somewhat Disagree,1,0,1,0,NA,NA,NA,NA,1,statements,Doesn't seem trustworthy as the process to make the vaccine has been rushed in order to keep up with demands from the world to release a vaccine out soon.,1,17/05/2021 10:56,17/05/2021 11:11,875,Most days,Most weeks,24,Female,-99,"Undergraduate degree (BSc, BA)",2,2,Against,Against
53,1658936208696,27/07/2022 15:36:48,1658936208613,1,27/07/2022 16:36:48,94050,2,task-an6x,NA,23334818,6847658,NA,complete,NA,62e15a5c99919ca6081995aa,computer,Desktop or Laptop,Windows 10,Chrome 103.0.0.0,1280x720,1280x577,NA,ITT Ratings,3,For,1,NA,NA,NA,NA,NA,NA,NA,NA,NA,ACCEPT,batch1hes,batch1hes,12,51,1,Screen 1,continueButton,response_rating_scale_likert_active,7026.700000047684,NA,NA,Disagree,1,0,1,0,NA,NA,NA,NA,1,statements,"Theories about how the vaccine has been produced, the ingredients of it, seems suspicious and doesn't seem to be effective either.",1,17/05/2021 10:56,17/05/2021 11:11,875,Most days,Most weeks,24,Female,-99,"Undergraduate degree (BSc, BA)",2,3,Against,Against
54,1658936225559,27/07/2022 15:37:05,1658936225479,1,27/07/2022 16:37:05,94050,2,task-an6x,NA,23334818,6847658,NA,complete,NA,62e15a5c99919ca6081995aa,computer,Desktop or Laptop,Windows 10,Chrome 103.0.0.0,1280x720,1280x577,NA,ITT Ratings,3,For,1,NA,NA,NA,NA,NA,NA,NA,NA,NA,ACCEPT,batch1hes,batch1hes,29,52,1,Screen 1,continueButton,response_rating_scale_likert_active,16810.399999976158,NA,NA,Somewhat Agree,1,0,1,0,NA,NA,NA,NA,1,statements,I am unsure about any long-term side effects that might arise from the vaccine in years to come due to how quickly the testing phase was carried out.,1,17/05/2021 10:35,17/05/2021 11:12,2227,A few times a year,A few times a year,32,Female,-99,A levels,5,2,Against,Against
55,1658936232782,27/07/2022 15:37:12,1658936232696,1,27/07/2022 16:37:12,94050,2,task-an6x,NA,23334818,6847658,NA,complete,NA,62e15a5c99919ca6081995aa,computer,Desktop or Laptop,Windows 10,Chrome 103.0.0.0,1280x720,1280x577,NA,ITT Ratings,3,For,1,NA,NA,NA,NA,NA,NA,NA,NA,NA,ACCEPT,batch1hes,batch1hes,3,53,1,Screen 1,continueButton,response_rating_scale_likert_active,7158.099999904633,NA,NA,Somewhat Disagree,1,0,1,0,NA,NA,NA,NA,1,statements,We would like to check you are reading each argument carefully. Please select 'Somewhat Disagree' for this answer,1,NA,NA,NA,NA,NA,NA,NA,NA,NA,NA,check2,NA,NA
56,1658936236846,27/07/2022 15:37:16,1658936236759,1,27/07/2022 16:37:16,94050,2,task-an6x,NA,23334818,6847658,NA,complete,NA,62e15a5c99919ca6081995aa,computer,Desktop or Laptop,Windows 10,Chrome 103.0.0.0,1280x720,1280x577,NA,ITT Ratings,3,For,1,NA,NA,NA,NA,NA,NA,NA,NA,NA,ACCEPT,batch1hes,batch1hes,20,54,1,Screen 1,continueButton,response_rating_scale_likert_active,4008.299999952316,NA,NA,Agree,1,0,1,0,NA,NA,NA,NA,1,statements,It has been thoroughly tested,1,17/05/2021 10:56,17/05/2021 11:12,973,Most weeks,Most weeks,49,Female,-99,GCSEs,3,2,Against,For
57,1658936243082,27/07/2022 15:37:23,1658936242982,1,27/07/2022 16:37:22,94050,2,task-an6x,NA,23334818,6847658,NA,complete,NA,62e15a5c99919ca6081995aa,computer,Desktop or Laptop,Windows 10,Chrome 103.0.0.0,1280x720,1280x577,NA,ITT Ratings,3,For,1,NA,NA,NA,NA,NA,NA,NA,NA,NA,ACCEPT,batch1hes,batch1hes,24,55,1,Screen 1,continueButton,response_rating_scale_likert_active,6168.5,NA,NA,Disagree,1,0,1,0,NA,NA,NA,NA,1,statements,It will have serious consequences on peoples health.,1,17/05/2021 11:04,17/05/2021 11:12,483,Most days,Most weeks,31,Female,-99,GCSEs,4,3,Against,Against
58,1658936248828,27/07/2022 15:37:28,1658936248742,1,27/07/2022 16:37:28,94050,2,task-an6x,NA,23334818,6847658,NA,complete,NA,62e15a5c99919ca6081995aa,computer,Desktop or Laptop,Windows 10,Chrome 103.0.0.0,1280x720,1280x577,NA,ITT Ratings,3,For,1,NA,NA,NA,NA,NA,NA,NA,NA,NA,ACCEPT,batch1hes,batch1hes,8,56,1,Screen 1,continueButton,response_rating_scale_likert_active,5702.5,NA,NA,Strongly Agree,1,0,1,0,NA,NA,NA,NA,1,statements,there are a load of people receiving the vaccine it's safe.,1,17/05/2021 10:58,17/05/2021 11:09,624,Most days,Most months,32,Female,-99,A levels,1,2,Against,For
59,1658936255119,27/07/2022 15:37:35,1658936255040,1,27/07/2022 16:37:35,94050,2,task-an6x,NA,23334818,6847658,NA,complete,NA,62e15a5c99919ca6081995aa,computer,Desktop or Laptop,Windows 10,Chrome 103.0.0.0,1280x720,1280x577,NA,ITT Ratings,3,For,1,NA,NA,NA,NA,NA,NA,NA,NA,NA,ACCEPT,batch1hes,batch1hes,40,57,1,Screen 1,continueButton,response_rating_scale_likert_active,6242.400000095367,NA,NA,Disagree,1,0,1,0,NA,NA,NA,NA,1,statements,I don't think have taken enough time to test the vaccine properly.,1,17/05/2021 10:47,17/05/2021 11:13,1550,Most months,Most months,49,Male,-99,Vocational Training / Apprenticeship,7,1,Against,Against
60,1658936259279,27/07/2022 15:37:39,1658936259189,1,27/07/2022 16:37:39,94050,2,task-an6x,NA,23334818,6847658,NA,complete,NA,62e15a5c99919ca6081995aa,computer,Desktop or Laptop,Windows 10,Chrome 103.0.0.0,1280x720,1280x577,NA,ITT Ratings,3,For,1,NA,NA,NA,NA,NA,NA,NA,NA,NA,ACCEPT,batch1hes,batch1hes,10,58,1,Screen 1,continueButton,response_rating_scale_likert_active,4093,NA,NA,Disagree,1,0,1,0,NA,NA,NA,NA,1,statements,I'm worried about the side effects from the vaccine especially if I have underlying health conditions that can be affected through the vaccine.,1,17/05/2021 10:56,17/05/2021 11:11,875,Most days,Most weeks,24,Female,-99,"Undergraduate degree (BSc, BA)",2,1,Against,Against
61,1658936265169,27/07/2022 15:37:45,1658936265089,1,27/07/2022 16:37:45,94050,2,task-an6x,NA,23334818,6847658,NA,complete,NA,62e15a5c99919ca6081995aa,computer,Desktop or Laptop,Windows 10,Chrome 103.0.0.0,1280x720,1280x577,NA,ITT Ratings,3,For,1,NA,NA,NA,NA,NA,NA,NA,NA,NA,ACCEPT,batch1hes,batch1hes,38,59,1,Screen 1,continueButton,response_rating_scale_likert_active,5839.399999976158,NA,NA,Strongly Agree,1,0,1,0,NA,NA,NA,NA,1,statements,Everyone has to have one so life can go back to normal,1,17/05/2021 10:58,17/05/2021 11:12,875,Most weeks,Most days,32,Female,-99,A levels,6,2,Against,For
62,1658936273856,27/07/2022 15:37:53,1658936273774,1,27/07/2022 16:37:53,94050,2,task-an6x,NA,23334818,6847658,NA,complete,NA,62e15a5c99919ca6081995aa,computer,Desktop or Laptop,Windows 10,Chrome 103.0.0.0,1280x720,1280x577,NA,ITT Ratings,3,For,1,NA,NA,NA,NA,NA,NA,NA,NA,NA,ACCEPT,batch1hes,batch1hes,36,60,1,Screen 1,continueButton,response_rating_scale_likert_active,8626.800000071526,NA,NA,Neither Agree nor Disagree,1,0,1,0,NA,NA,NA,NA,1,statements,It is a new technology that was considered unethical before thats why it was never passed,1,17/05/2021 10:58,17/05/2021 11:12,875,Most weeks,Most days,32,Female,-99,A levels,6,3,Against,Against
63,1658936278157,27/07/2022 15:37:58,1658936278077,1,27/07/2022 16:37:58,94050,2,task-an6x,NA,23334818,6847658,NA,complete,NA,62e15a5c99919ca6081995aa,computer,Desktop or Laptop,Windows 10,Chrome 103.0.0.0,1280x720,1280x577,NA,ITT Ratings,3,For,1,NA,NA,NA,NA,NA,NA,NA,NA,NA,ACCEPT,batch1hes,batch1hes,6,61,1,Screen 1,continueButton,response_rating_scale_likert_active,4259.700000047684,NA,NA,Somewhat Agree,1,0,1,0,NA,NA,NA,NA,1,statements,it's still in its trial stages.,1,17/05/2021 10:58,17/05/2021 11:09,624,Most days,Most months,32,Female,-99,A levels,1,3,Against,Against
64,1658936336619,27/07/2022 15:38:56,1658936336535,1,27/07/2022 16:38:56,94050,2,task-an6x,NA,23334818,6847658,NA,complete,NA,62e15a5c99919ca6081995aa,computer,Desktop or Laptop,Windows 10,Chrome 103.0.0.0,1280x720,1280x577,NA,ITT Ratings,3,For,1,NA,NA,NA,NA,NA,NA,NA,NA,NA,ACCEPT,batch1hes,batch1hes,30,62,1,Screen 1,continueButton,response_rating_scale_likert_active,58414.70000004768,NA,NA,Strongly Disagree,1,0,1,0,NA,NA,NA,NA,1,statements,I don't even know anyone who has had Covid never mind anyone who has been hospitalised or died from it.,1,17/05/2021 10:35,17/05/2021 11:12,2227,A few times a year,A few times a year,32,Female,-99,A levels,5,3,Against,Against
65,1658936336688,27/07/2022 15:38:56,1658936336571,1,27/07/2022 16:38:56,94050,2,task-an6x,NA,23334818,6847658,NA,complete,NA,62e15a5c99919ca6081995aa,computer,Desktop or Laptop,Windows 10,Chrome 103.0.0.0,1280x720,1280x577,NA,ITT Ratings,3,For,1,NA,NA,NA,NA,NA,NA,NA,NA,NA,ACCEPT,batch1hes,NA,NA,END TASK,NA,NA,NA,NA,393800,NA,NA,NA,NA,0,1,0,NA,NA,NA,NA,NA,NA,NA,NA,NA,NA,NA,NA,NA,NA,NA,NA,NA,NA,NA,NA,NA
1,1658936062324,27/07/2022 15:34:22,1658936062207,1,27/07/2022 16:34:22,94050,2,task-an6x,NA,23334864,6847674,NA,complete,NA,62e15ac02cd7017866b927a8,computer,Desktop or Laptop,Mac OS 10.15.6,Safari 15.6,834x1194,1194x727,NA,ITT Ratings,3,For,1,NA,NA,NA,NA,NA,NA,NA,NA,NA,ACCEPT,batch1hes,NA,NA,BEGIN TASK,NA,NA,NA,NA,NA,NA,NA,NA,NA,0,1,0,NA,NA,NA,NA,NA,NA,NA,NA,NA,NA,NA,NA,NA,NA,NA,NA,NA,NA,NA,NA,NA
2,1658936069242,27/07/2022 15:34:29,1658936069186,1,27/07/2022 16:34:29,94050,2,task-an6x,NA,23334864,6847674,NA,complete,NA,62e15ac02cd7017866b927a8,computer,Desktop or Laptop,Mac OS 10.15.6,Safari 15.6,834x1194,1194x727,NA,ITT Ratings,3,For,1,NA,NA,NA,NA,NA,NA,NA,NA,NA,ACCEPT,batch1hes,batch1hes,1,1,1,Screen 1,advancementZone,continue_button,6938,NA,NA,NA,NA,0,1,0,NA,NA,NA,NA,NA,instructions,NA,NA,NA,NA,NA,NA,NA,NA,NA,NA,NA,NA,NA,NA,NA
3,1658936075165,27/07/2022 15:34:35,1658936075105,1,27/07/2022 16:34:35,94050,2,task-an6x,NA,23334864,6847674,NA,complete,NA,62e15ac02cd7017866b927a8,computer,Desktop or Laptop,Mac OS 10.15.6,Safari 15.6,834x1194,1194x727,NA,ITT Ratings,3,For,1,NA,NA,NA,NA,NA,NA,NA,NA,NA,ACCEPT,batch1hes,batch1hes,62,1,1,Screen 1,continueButton,response_rating_scale_likert_active,5890,NA,NA,Somewhat Agree,1,0,1,0,NA,NA,NA,NA,1,statements,The news said its effective,1,17/05/2021 11:06,17/05/2021 11:14,491,Once or twice a year,Most months,34,Male,-99,GCSEs,10,2,Against,For
4,1658936082743,27/07/2022 15:34:42,1658936082631,1,27/07/2022 16:34:42,94050,2,task-an6x,NA,23334864,6847674,NA,complete,NA,62e15ac02cd7017866b927a8,computer,Desktop or Laptop,Mac OS 10.15.6,Safari 15.6,834x1194,1194x727,NA,ITT Ratings,3,For,1,NA,NA,NA,NA,NA,NA,NA,NA,NA,ACCEPT,batch1hes,batch1hes,29,2,1,Screen 1,continueButton,response_rating_scale_likert_active,7500,NA,NA,Neither Agree nor Disagree,1,0,1,0,NA,NA,NA,NA,1,statements,I am unsure about any long-term side effects that might arise from the vaccine in years to come due to how quickly the testing phase was carried out.,1,17/05/2021 10:35,17/05/2021 11:12,2227,A few times a year,A few times a year,32,Female,-99,A levels,5,2,Against,Against
5,1658936086189,27/07/2022 15:34:46,1658936086131,1,27/07/2022 16:34:46,94050,2,task-an6x,NA,23334864,6847674,NA,complete,NA,62e15ac02cd7017866b927a8,computer,Desktop or Laptop,Mac OS 10.15.6,Safari 15.6,834x1194,1194x727,NA,ITT Ratings,3,For,1,NA,NA,NA,NA,NA,NA,NA,NA,NA,ACCEPT,batch1hes,batch1hes,2,3,1,Screen 1,continueButton,response_rating_scale_likert_active,3473,NA,NA,Somewhat Agree,1,0,1,0,NA,NA,NA,NA,1,statements,We would like to check you are reading each argument carefully. Please select 'Somewhat Agree' for this answer,1,NA,NA,NA,NA,NA,NA,NA,NA,NA,NA,check1,NA,NA
6,1658936092446,27/07/2022 15:34:52,1658936092109,1,27/07/2022 16:34:52,94050,2,task-an6x,NA,23334864,6847674,NA,complete,NA,62e15ac02cd7017866b927a8,computer,Desktop or Laptop,Mac OS 10.15.6,Safari 15.6,834x1194,1194x727,NA,ITT Ratings,3,For,1,NA,NA,NA,NA,NA,NA,NA,NA,NA,ACCEPT,batch1hes,batch1hes,14,4,1,Screen 1,continueButton,response_rating_scale_likert_active,5957,NA,NA,Strongly Agree,1,0,1,0,NA,NA,NA,NA,1,statements,Prevents you from catching the virus or getting severe symptoms.,1,17/05/2021 10:56,17/05/2021 11:11,875,Most days,Most weeks,24,Female,-99,"Undergraduate degree (BSc, BA)",2,2,Against,For
7,1658936094055,27/07/2022 15:34:54,1658936093974,1,27/07/2022 16:34:53,94050,2,task-an6x,NA,23334864,6847674,NA,complete,NA,62e15ac02cd7017866b927a8,computer,Desktop or Laptop,Mac OS 10.15.6,Safari 15.6,834x1194,1194x727,NA,ITT Ratings,3,For,1,NA,NA,NA,NA,NA,NA,NA,NA,NA,ACCEPT,batch1hes,batch1hes,21,5,1,Screen 1,continueButton,response_rating_scale_likert_active,1849,NA,NA,Strongly Agree,1,0,1,0,NA,NA,NA,NA,1,statements,It protects everyone,1,17/05/2021 10:56,17/05/2021 11:12,973,Most weeks,Most weeks,49,Female,-99,GCSEs,3,3,Against,For
8,1658936100729,27/07/2022 15:35:00,1658936100663,1,27/07/2022 16:35:00,94050,2,task-an6x,NA,23334864,6847674,NA,complete,NA,62e15ac02cd7017866b927a8,computer,Desktop or Laptop,Mac OS 10.15.6,Safari 15.6,834x1194,1194x727,NA,ITT Ratings,3,For,1,NA,NA,NA,NA,NA,NA,NA,NA,NA,ACCEPT,batch1hes,batch1hes,23,6,1,Screen 1,continueButton,response_rating_scale_likert_active,6674,NA,NA,Neither Agree nor Disagree,1,0,1,0,NA,NA,NA,NA,1,statements,Its not been developed for long enough.,1,17/05/2021 11:04,17/05/2021 11:12,483,Most days,Most weeks,31,Female,-99,GCSEs,4,2,Against,Against
9,1658936104430,27/07/2022 15:35:04,1658936104365,1,27/07/2022 16:35:04,94050,2,task-an6x,NA,23334864,6847674,NA,complete,NA,62e15ac02cd7017866b927a8,computer,Desktop or Laptop,Mac OS 10.15.6,Safari 15.6,834x1194,1194x727,NA,ITT Ratings,3,For,1,NA,NA,NA,NA,NA,NA,NA,NA,NA,ACCEPT,batch1hes,batch1hes,60,7,1,Screen 1,continueButton,response_rating_scale_likert_active,3683,NA,NA,Strongly Disagree,1,0,1,0,NA,NA,NA,NA,1,statements,The vaccine was man made,1,17/05/2021 11:06,17/05/2021 11:14,491,Once or twice a year,Most months,34,Male,-99,GCSEs,10,3,Against,Against
10,1658936111153,27/07/2022 15:35:11,1658936111092,1,27/07/2022 16:35:11,94050,2,task-an6x,NA,23334864,6847674,NA,complete,NA,62e15ac02cd7017866b927a8,computer,Desktop or Laptop,Mac OS 10.15.6,Safari 15.6,834x1194,1194x727,NA,ITT Ratings,3,For,1,NA,NA,NA,NA,NA,NA,NA,NA,NA,ACCEPT,batch1hes,batch1hes,33,8,1,Screen 1,continueButton,response_rating_scale_likert_active,6704,NA,NA,Neither Agree nor Disagree,1,0,1,0,NA,NA,NA,NA,1,statements,I want to be able to fly for holidays this summer.,1,17/05/2021 10:35,17/05/2021 11:12,2227,A few times a year,A few times a year,32,Female,-99,A levels,5,3,Against,For
11,1658936114237,27/07/2022 15:35:14,1658936114168,1,27/07/2022 16:35:14,94050,2,task-an6x,NA,23334864,6847674,NA,complete,NA,62e15ac02cd7017866b927a8,computer,Desktop or Laptop,Mac OS 10.15.6,Safari 15.6,834x1194,1194x727,NA,ITT Ratings,3,For,1,NA,NA,NA,NA,NA,NA,NA,NA,NA,ACCEPT,batch1hes,batch1hes,58,9,1,Screen 1,continueButton,response_rating_scale_likert_active,3054,NA,NA,Disagree,1,0,1,0,NA,NA,NA,NA,1,statements,I don't know what's in it,1,17/05/2021 11:06,17/05/2021 11:14,491,Once or twice a year,Most months,34,Male,-99,GCSEs,10,1,Against,Against
12,1658936118784,27/07/2022 15:35:18,1658936118694,1,27/07/2022 16:35:18,94050,2,task-an6x,NA,23334864,6847674,NA,complete,NA,62e15ac02cd7017866b927a8,computer,Desktop or Laptop,Mac OS 10.15.6,Safari 15.6,834x1194,1194x727,NA,ITT Ratings,3,For,1,NA,NA,NA,NA,NA,NA,NA,NA,NA,ACCEPT,batch1hes,batch1hes,57,10,1,Screen 1,continueButton,response_rating_scale_likert_active,4503,NA,NA,Strongly Agree,1,0,1,0,NA,NA,NA,NA,1,statements,the long term benefits outweigh the temporary side-effects,1,17/05/2021 11:08,17/05/2021 11:14,344,Rarely,Most months,27,Male,-99,"Undergraduate degree (BSc, BA)",9,3,Against,For
13,1658936124254,27/07/2022 15:35:24,1658936124207,1,27/07/2022 16:35:24,94050,2,task-an6x,NA,23334864,6847674,NA,complete,NA,62e15ac02cd7017866b927a8,computer,Desktop or Laptop,Mac OS 10.15.6,Safari 15.6,834x1194,1194x727,NA,ITT Ratings,3,For,1,NA,NA,NA,NA,NA,NA,NA,NA,NA,ACCEPT,batch1hes,batch1hes,38,11,1,Screen 1,continueButton,response_rating_scale_likert_active,5493.000000000007,NA,NA,Somewhat Agree,1,0,1,0,NA,NA,NA,NA,1,statements,Everyone has to have one so life can go back to normal,1,17/05/2021 10:58,17/05/2021 11:12,875,Most weeks,Most days,32,Female,-99,A levels,6,2,Against,For
14,1658936133144,27/07/2022 15:35:33,1658936133075,1,27/07/2022 16:35:33,94050,2,task-an6x,NA,23334864,6847674,NA,complete,NA,62e15ac02cd7017866b927a8,computer,Desktop or Laptop,Mac OS 10.15.6,Safari 15.6,834x1194,1194x727,NA,ITT Ratings,3,For,1,NA,NA,NA,NA,NA,NA,NA,NA,NA,ACCEPT,batch1hes,batch1hes,11,12,1,Screen 1,continueButton,response_rating_scale_likert_active,8844,NA,NA,Somewhat Disagree,1,0,1,0,NA,NA,NA,NA,1,statements,Doesn't seem trustworthy as the process to make the vaccine has been rushed in order to keep up with demands from the world to release a vaccine out soon.,1,17/05/2021 10:56,17/05/2021 11:11,875,Most days,Most weeks,24,Female,-99,"Undergraduate degree (BSc, BA)",2,2,Against,Against
15,1658936140350,27/07/2022 15:35:40,1658936140274,1,27/07/2022 16:35:40,94050,2,task-an6x,NA,23334864,6847674,NA,complete,NA,62e15ac02cd7017866b927a8,computer,Desktop or Laptop,Mac OS 10.15.6,Safari 15.6,834x1194,1194x727,NA,ITT Ratings,3,For,1,NA,NA,NA,NA,NA,NA,NA,NA,NA,ACCEPT,batch1hes,batch1hes,17,13,1,Screen 1,continueButton,response_rating_scale_likert_active,7176,NA,NA,Strongly Disagree,1,0,1,0,NA,NA,NA,NA,1,statements,Im not mixing with other people,1,17/05/2021 10:56,17/05/2021 11:12,973,Most weeks,Most weeks,49,Female,-99,GCSEs,3,2,Against,Against
16,1658936143604,27/07/2022 15:35:43,1658936143539,1,27/07/2022 16:35:43,94050,2,task-an6x,NA,23334864,6847674,NA,complete,NA,62e15ac02cd7017866b927a8,computer,Desktop or Laptop,Mac OS 10.15.6,Safari 15.6,834x1194,1194x727,NA,ITT Ratings,3,For,1,NA,NA,NA,NA,NA,NA,NA,NA,NA,ACCEPT,batch1hes,batch1hes,31,14,1,Screen 1,continueButton,response_rating_scale_likert_active,3244,NA,NA,Agree,1,0,1,0,NA,NA,NA,NA,1,statements,The more people who get vaccinated the sooner the restrictions will be lifted.,1,17/05/2021 10:35,17/05/2021 11:12,2227,A few times a year,A few times a year,32,Female,-99,A levels,5,1,Against,For
17,1658936150140,27/07/2022 15:35:50,1658936150066,1,27/07/2022 16:35:50,94050,2,task-an6x,NA,23334864,6847674,NA,complete,NA,62e15ac02cd7017866b927a8,computer,Desktop or Laptop,Mac OS 10.15.6,Safari 15.6,834x1194,1194x727,NA,ITT Ratings,3,For,1,NA,NA,NA,NA,NA,NA,NA,NA,NA,ACCEPT,batch1hes,batch1hes,44,15,1,Screen 1,continueButton,response_rating_scale_likert_active,6507.999999999985,NA,NA,Somewhat Disagree,1,0,1,0,NA,NA,NA,NA,1,statements,Only a few people have died from it.,1,17/05/2021 10:47,17/05/2021 11:13,1550,Most months,Most months,49,Male,-99,Vocational Training / Apprenticeship,7,2,Against,For
18,1658936154494,27/07/2022 15:35:54,1658936154441,1,27/07/2022 16:35:54,94050,2,task-an6x,NA,23334864,6847674,NA,complete,NA,62e15ac02cd7017866b927a8,computer,Desktop or Laptop,Mac OS 10.15.6,Safari 15.6,834x1194,1194x727,NA,ITT Ratings,3,For,1,NA,NA,NA,NA,NA,NA,NA,NA,NA,ACCEPT,batch1hes,batch1hes,46,16,1,Screen 1,continueButton,response_rating_scale_likert_active,4357,NA,NA,Disagree,1,0,1,0,NA,NA,NA,NA,1,statements,I would rather wait to see if there are any negative effect in people who have had the vaccine before I make up my mind,1,17/05/2021 10:47,17/05/2021 11:14,1618,Most days,Most days,54,Male,-99,Vocational Training / Apprenticeship,8,1,Against,Against
19,1658936156864,27/07/2022 15:35:56,1658936156803,1,27/07/2022 16:35:56,94050,2,task-an6x,NA,23334864,6847674,NA,complete,NA,62e15ac02cd7017866b927a8,computer,Desktop or Laptop,Mac OS 10.15.6,Safari 15.6,834x1194,1194x727,NA,ITT Ratings,3,For,1,NA,NA,NA,NA,NA,NA,NA,NA,NA,ACCEPT,batch1hes,batch1hes,39,17,1,Screen 1,continueButton,response_rating_scale_likert_active,2346,NA,NA,Neither Agree nor Disagree,1,0,1,0,NA,NA,NA,NA,1,statements,To be able to go on holiday,1,17/05/2021 10:58,17/05/2021 11:12,875,Most weeks,Most days,32,Female,-99,A levels,6,3,Against,For
20,1658936159133,27/07/2022 15:35:59,1658936159076,1,27/07/2022 16:35:59,94050,2,task-an6x,NA,23334864,6847674,NA,complete,NA,62e15ac02cd7017866b927a8,computer,Desktop or Laptop,Mac OS 10.15.6,Safari 15.6,834x1194,1194x727,NA,ITT Ratings,3,For,1,NA,NA,NA,NA,NA,NA,NA,NA,NA,ACCEPT,batch1hes,batch1hes,32,18,1,Screen 1,continueButton,response_rating_scale_likert_active,2254.0000000000146,NA,NA,Neither Agree nor Disagree,1,0,1,0,NA,NA,NA,NA,1,statements,Everyone else is getting vaccinated.,1,17/05/2021 10:35,17/05/2021 11:12,2227,A few times a year,A few times a year,32,Female,-99,A levels,5,2,Against,For
21,1658936162495,27/07/2022 15:36:02,1658936162429,1,27/07/2022 16:36:02,94050,2,task-an6x,NA,23334864,6847674,NA,complete,NA,62e15ac02cd7017866b927a8,computer,Desktop or Laptop,Mac OS 10.15.6,Safari 15.6,834x1194,1194x727,NA,ITT Ratings,3,For,1,NA,NA,NA,NA,NA,NA,NA,NA,NA,ACCEPT,batch1hes,batch1hes,4,19,1,Screen 1,continueButton,response_rating_scale_likert_active,3337,NA,NA,Somewhat Disagree,1,0,1,0,NA,NA,NA,NA,1,statements,"the vaccine has side effects.

",1,17/05/2021 10:58,17/05/2021 11:09,624,Most days,Most months,32,Female,-99,A levels,1,1,Against,Against
22,1658936164556,27/07/2022 15:36:04,1658936164499,1,27/07/2022 16:36:04,94050,2,task-an6x,NA,23334864,6847674,NA,complete,NA,62e15ac02cd7017866b927a8,computer,Desktop or Laptop,Mac OS 10.15.6,Safari 15.6,834x1194,1194x727,NA,ITT Ratings,3,For,1,NA,NA,NA,NA,NA,NA,NA,NA,NA,ACCEPT,batch1hes,batch1hes,9,20,1,Screen 1,continueButton,response_rating_scale_likert_active,2053,NA,NA,Agree,1,0,1,0,NA,NA,NA,NA,1,statements,it will help you protect yourself.,1,17/05/2021 10:58,17/05/2021 11:09,624,Most days,Most months,32,Female,-99,A levels,1,3,Against,For
23,1658936170063,27/07/2022 15:36:10,1658936170010,1,27/07/2022 16:36:10,94050,2,task-an6x,NA,23334864,6847674,NA,complete,NA,62e15ac02cd7017866b927a8,computer,Desktop or Laptop,Mac OS 10.15.6,Safari 15.6,834x1194,1194x727,NA,ITT Ratings,3,For,1,NA,NA,NA,NA,NA,NA,NA,NA,NA,ACCEPT,batch1hes,batch1hes,5,21,1,Screen 1,continueButton,response_rating_scale_likert_active,5496,NA,NA,Disagree,1,0,1,0,NA,NA,NA,NA,1,statements,if you were to have covid you would have already.,1,17/05/2021 10:58,17/05/2021 11:09,624,Most days,Most months,32,Female,-99,A levels,1,2,Against,Against
24,1658936172671,27/07/2022 15:36:12,1658936172624,1,27/07/2022 16:36:12,94050,2,task-an6x,NA,23334864,6847674,NA,complete,NA,62e15ac02cd7017866b927a8,computer,Desktop or Laptop,Mac OS 10.15.6,Safari 15.6,834x1194,1194x727,NA,ITT Ratings,3,For,1,NA,NA,NA,NA,NA,NA,NA,NA,NA,ACCEPT,batch1hes,batch1hes,49,22,1,Screen 1,continueButton,response_rating_scale_likert_active,2598,NA,NA,Strongly Agree,1,0,1,0,NA,NA,NA,NA,1,statements,To protect me from becoming seriously ill if I caught Covid,1,17/05/2021 10:47,17/05/2021 11:14,1618,Most days,Most days,54,Male,-99,Vocational Training / Apprenticeship,8,1,Against,For
25,1658936174443,27/07/2022 15:36:14,1658936174403,1,27/07/2022 16:36:14,94050,2,task-an6x,NA,23334864,6847674,NA,complete,NA,62e15ac02cd7017866b927a8,computer,Desktop or Laptop,Mac OS 10.15.6,Safari 15.6,834x1194,1194x727,NA,ITT Ratings,3,For,1,NA,NA,NA,NA,NA,NA,NA,NA,NA,ACCEPT,batch1hes,batch1hes,61,23,1,Screen 1,continueButton,response_rating_scale_likert_active,1761,NA,NA,Neither Agree nor Disagree,1,0,1,0,NA,NA,NA,NA,1,statements,The government said it safe,1,17/05/2021 11:06,17/05/2021 11:14,491,Once or twice a year,Most months,34,Male,-99,GCSEs,10,1,Against,For
26,1658936177891,27/07/2022 15:36:17,1658936177825,1,27/07/2022 16:36:17,94050,2,task-an6x,NA,23334864,6847674,NA,complete,NA,62e15ac02cd7017866b927a8,computer,Desktop or Laptop,Mac OS 10.15.6,Safari 15.6,834x1194,1194x727,NA,ITT Ratings,3,For,1,NA,NA,NA,NA,NA,NA,NA,NA,NA,ACCEPT,batch1hes,batch1hes,37,24,1,Screen 1,continueButton,response_rating_scale_likert_active,3406.9999999999854,NA,NA,Somewhat Agree,1,0,1,0,NA,NA,NA,NA,1,statements,I want to get my freedoms back,1,17/05/2021 10:58,17/05/2021 11:12,875,Most weeks,Most days,32,Female,-99,A levels,6,1,Against,For
27,1658936183261,27/07/2022 15:36:23,1658936183197,1,27/07/2022 16:36:23,94050,2,task-an6x,NA,23334864,6847674,NA,complete,NA,62e15ac02cd7017866b927a8,computer,Desktop or Laptop,Mac OS 10.15.6,Safari 15.6,834x1194,1194x727,NA,ITT Ratings,3,For,1,NA,NA,NA,NA,NA,NA,NA,NA,NA,ACCEPT,batch1hes,batch1hes,12,25,1,Screen 1,continueButton,response_rating_scale_likert_active,5356,NA,NA,Disagree,1,0,1,0,NA,NA,NA,NA,1,statements,"Theories about how the vaccine has been produced, the ingredients of it, seems suspicious and doesn't seem to be effective either.",1,17/05/2021 10:56,17/05/2021 11:11,875,Most days,Most weeks,24,Female,-99,"Undergraduate degree (BSc, BA)",2,3,Against,Against
28,1658936186746,27/07/2022 15:36:26,1658936186693,1,27/07/2022 16:36:26,94050,2,task-an6x,NA,23334864,6847674,NA,complete,NA,62e15ac02cd7017866b927a8,computer,Desktop or Laptop,Mac OS 10.15.6,Safari 15.6,834x1194,1194x727,NA,ITT Ratings,3,For,1,NA,NA,NA,NA,NA,NA,NA,NA,NA,ACCEPT,batch1hes,batch1hes,15,26,1,Screen 1,continueButton,response_rating_scale_likert_active,3474,NA,NA,Agree,1,0,1,0,NA,NA,NA,NA,1,statements,Protects others around you from catching the virus?,1,17/05/2021 10:56,17/05/2021 11:11,875,Most days,Most weeks,24,Female,-99,"Undergraduate degree (BSc, BA)",2,3,Against,For
29,1658936190905,27/07/2022 15:36:30,1658936190846,1,27/07/2022 16:36:30,94050,2,task-an6x,NA,23334864,6847674,NA,complete,NA,62e15ac02cd7017866b927a8,computer,Desktop or Laptop,Mac OS 10.15.6,Safari 15.6,834x1194,1194x727,NA,ITT Ratings,3,For,1,NA,NA,NA,NA,NA,NA,NA,NA,NA,ACCEPT,batch1hes,batch1hes,53,27,1,Screen 1,continueButton,response_rating_scale_likert_active,4135.999999999971,NA,NA,Strongly Disagree,1,0,1,0,NA,NA,NA,NA,1,statements,I am living in a country where the outbreak has been managed well/practically non-existent,1,17/05/2021 11:08,17/05/2021 11:14,344,Rarely,Most months,27,Male,-99,"Undergraduate degree (BSc, BA)",9,2,Against,Against
30,1658936194294,27/07/2022 15:36:34,1658936194250,1,27/07/2022 16:36:34,94050,2,task-an6x,NA,23334864,6847674,NA,complete,NA,62e15ac02cd7017866b927a8,computer,Desktop or Laptop,Mac OS 10.15.6,Safari 15.6,834x1194,1194x727,NA,ITT Ratings,3,For,1,NA,NA,NA,NA,NA,NA,NA,NA,NA,ACCEPT,batch1hes,batch1hes,43,28,1,Screen 1,continueButton,response_rating_scale_likert_active,3387.0000000000146,NA,NA,Neither Agree nor Disagree,1,0,1,0,NA,NA,NA,NA,1,statements,It's safe the government said so.,1,17/05/2021 10:47,17/05/2021 11:13,1550,Most months,Most months,49,Male,-99,Vocational Training / Apprenticeship,7,1,Against,For
31,1658936197303,27/07/2022 15:36:37,1658936197240,1,27/07/2022 16:36:37,94050,2,task-an6x,NA,23334864,6847674,NA,complete,NA,62e15ac02cd7017866b927a8,computer,Desktop or Laptop,Mac OS 10.15.6,Safari 15.6,834x1194,1194x727,NA,ITT Ratings,3,For,1,NA,NA,NA,NA,NA,NA,NA,NA,NA,ACCEPT,batch1hes,batch1hes,56,29,1,Screen 1,continueButton,response_rating_scale_likert_active,2975,NA,NA,Neither Agree nor Disagree,1,0,1,0,NA,NA,NA,NA,1,statements,better for travelling abroad,1,17/05/2021 11:08,17/05/2021 11:14,344,Rarely,Most months,27,Male,-99,"Undergraduate degree (BSc, BA)",9,2,Against,For
32,1658936200114,27/07/2022 15:36:40,1658936200069,1,27/07/2022 16:36:40,94050,2,task-an6x,NA,23334864,6847674,NA,complete,NA,62e15ac02cd7017866b927a8,computer,Desktop or Laptop,Mac OS 10.15.6,Safari 15.6,834x1194,1194x727,NA,ITT Ratings,3,For,1,NA,NA,NA,NA,NA,NA,NA,NA,NA,ACCEPT,batch1hes,batch1hes,26,30,1,Screen 1,continueButton,response_rating_scale_likert_active,2812,NA,NA,Agree,1,0,1,0,NA,NA,NA,NA,1,statements,It is important to receive the vaccine to protect your health and the health of others.,1,17/05/2021 11:04,17/05/2021 11:12,483,Most days,Most weeks,31,Female,-99,GCSEs,4,2,Against,For
33,1658936203685,27/07/2022 15:36:43,1658936203625,1,27/07/2022 16:36:43,94050,2,task-an6x,NA,23334864,6847674,NA,complete,NA,62e15ac02cd7017866b927a8,computer,Desktop or Laptop,Mac OS 10.15.6,Safari 15.6,834x1194,1194x727,NA,ITT Ratings,3,For,1,NA,NA,NA,NA,NA,NA,NA,NA,NA,ACCEPT,batch1hes,batch1hes,25,31,1,Screen 1,continueButton,response_rating_scale_likert_active,3540,NA,NA,Somewhat Agree,1,0,1,0,NA,NA,NA,NA,1,statements,The vaccine is perfectly safe and better versions have already been produced.,1,17/05/2021 11:04,17/05/2021 11:12,483,Most days,Most weeks,31,Female,-99,GCSEs,4,1,Against,For
