Event.Index,UTC.Timestamp,UTC.Date,Local.Timestamp,Local.Timezone,Local.Date,Experiment.ID,Experiment.Version,Tree.Node.Key,Repeat.Key,Schedule.ID,Participant.Private.ID,Participant.Starting.Group,Participant.Status,Participant.Completion.Code,Participant.External.Session.ID,Participant.Device.Type,Participant.Device,Participant.OS,Participant.Browser,Participant.Monitor.Size,Participant.Viewport.Size,Checkpoint,Task.Name,Task.Version,branch.69an,randomiser.8vg2,quota.bqtt,quota.rycs,quota.wtfi,quota.usve,quota.zgic,quota.f3yz,quota.r9vy,quota.tfqq,quota.3dga,quota.dtj6,Spreadsheet,Spreadsheet.Name,Spreadsheet.Row,Trial.Number,Screen.Number,Screen.Name,Zone.Name,Zone.Type,Reaction.Time,Reaction.Onset,Response.Type,Response,Attempt,Correct,Incorrect,Dishonest,X.Coordinate,Y.Coordinate,Timed.Out,randomise_blocks,randomise_trials,display,Arguments,ShowProgressBar,StartDate,EndDate,Duration,discuss_1,read_1,age,gender,gender_4_TEXT,edu,ID,arg_ID,Position,Arg_Position
1,1658935725461,27/07/2022 15:28:45,1658935725094,1,27/07/2022 16:28:45,94050,2,task-mn1e,NA,23334659,6847614,NA,complete,NA,62e15993c08a0bfff2d8eb9a,mobile,Apple iPhone,iOS 15.5,Mobile Safari 15.5,390x844,750x307,NA,ITT Ratings,3,For,4,NA,NA,ACCEPT,NA,NA,NA,NA,NA,NA,NA,batch4hes,NA,NA,BEGIN TASK,NA,NA,NA,NA,NA,NA,NA,NA,NA,0,1,0,NA,NA,NA,NA,NA,NA,NA,NA,NA,NA,NA,NA,NA,NA,NA,NA,NA,NA,NA,NA,NA
2,1658935726666,27/07/2022 15:28:46,1658935726569,1,27/07/2022 16:28:46,94050,2,task-mn1e,NA,23334659,6847614,NA,complete,NA,62e15993c08a0bfff2d8eb9a,mobile,Apple iPhone,iOS 15.5,Mobile Safari 15.5,390x844,750x307,NA,ITT Ratings,3,For,4,NA,NA,ACCEPT,NA,NA,NA,NA,NA,NA,NA,batch4hes,batch4hes,1,1,1,Screen 1,advancementZone,continue_button,1425,NA,NA,NA,NA,0,1,0,NA,NA,NA,NA,NA,instructions,NA,NA,NA,NA,NA,NA,NA,NA,NA,NA,NA,NA,NA,NA,NA
3,1658935729729,27/07/2022 15:28:49,1658935729470,1,27/07/2022 16:28:49,94050,2,task-mn1e,NA,23334659,6847614,NA,complete,NA,62e15993c08a0bfff2d8eb9a,mobile,Apple iPhone,iOS 15.5,Mobile Safari 15.5,390x844,750x307,NA,ITT Ratings,3,For,4,NA,NA,ACCEPT,NA,NA,NA,NA,NA,NA,NA,batch4hes,batch4hes,2,1,1,Screen 1,continueButton,response_rating_scale_likert_active,2881,NA,NA,Somewhat Agree,1,0,1,0,NA,NA,NA,NA,1,statements,We would like to check you are reading each argument carefully. Please select 'Somewhat Agree' for this answer,1,NA,NA,NA,NA,NA,NA,NA,NA,NA,NA,check1,NA,NA
4,1658935732923,27/07/2022 15:28:52,1658935732571,1,27/07/2022 16:28:52,94050,2,task-mn1e,NA,23334659,6847614,NA,complete,NA,62e15993c08a0bfff2d8eb9a,mobile,Apple iPhone,iOS 15.5,Mobile Safari 15.5,390x844,750x307,NA,ITT Ratings,3,For,4,NA,NA,ACCEPT,NA,NA,NA,NA,NA,NA,NA,batch4hes,batch4hes,36,2,1,Screen 1,continueButton,response_rating_scale_likert_active,3077,NA,NA,Strongly Disagree,1,0,1,0,NA,NA,NA,NA,1,statements,I would prefer a more natural method of treating covid should I catch it,1,17/05/2021 11:15,17/05/2021 11:34,1100,Rarely,Never,28,Female,-99,"Undergraduate degree (BSc, BA)",36,3,Against,Against
5,1658935734085,27/07/2022 15:28:54,1658935734022,1,27/07/2022 16:28:54,94050,2,task-mn1e,NA,23334659,6847614,NA,complete,NA,62e15993c08a0bfff2d8eb9a,mobile,Apple iPhone,iOS 15.5,Mobile Safari 15.5,390x844,750x307,NA,ITT Ratings,3,For,4,NA,NA,ACCEPT,NA,NA,NA,NA,NA,NA,NA,batch4hes,batch4hes,49,3,1,Screen 1,continueButton,response_rating_scale_likert_active,1430,NA,NA,Somewhat Agree,1,0,1,0,NA,NA,NA,NA,1,statements,I don't want to become really ill.,1,17/05/2021 11:32,17/05/2021 11:42,618,Never,Rarely,57,Male,-99,A levels,38,1,Against,For
6,1658935736335,27/07/2022 15:28:56,1658935735756,1,27/07/2022 16:28:55,94050,2,task-mn1e,NA,23334659,6847614,NA,complete,NA,62e15993c08a0bfff2d8eb9a,mobile,Apple iPhone,iOS 15.5,Mobile Safari 15.5,390x844,750x307,NA,ITT Ratings,3,For,4,NA,NA,ACCEPT,NA,NA,NA,NA,NA,NA,NA,batch4hes,batch4hes,28,4,1,Screen 1,continueButton,response_rating_scale_likert_active,1711.9999999999982,NA,NA,Strongly Disagree,1,0,1,0,NA,NA,NA,NA,1,statements,The vaccine can make you ill with part of the virus where you were otherwise immune anyway,1,17/05/2021 11:26,17/05/2021 11:32,370,Most weeks,Most months,33,Female,-99,"Postgraduate degree (MSc, MA, MPhil)",35,1,Against,Against
7,1658935738815,27/07/2022 15:28:58,1658935738408,1,27/07/2022 16:28:58,94050,2,task-mn1e,NA,23334659,6847614,NA,complete,NA,62e15993c08a0bfff2d8eb9a,mobile,Apple iPhone,iOS 15.5,Mobile Safari 15.5,390x844,750x307,NA,ITT Ratings,3,For,4,NA,NA,ACCEPT,NA,NA,NA,NA,NA,NA,NA,batch4hes,batch4hes,30,5,1,Screen 1,continueButton,response_rating_scale_likert_active,2630,NA,NA,Strongly Disagree,1,0,1,0,NA,NA,NA,NA,1,statements,The strand mutates and its pointless takin the risk,1,17/05/2021 11:26,17/05/2021 11:32,370,Most weeks,Most months,33,Female,-99,"Postgraduate degree (MSc, MA, MPhil)",35,3,Against,Against
8,1658935744723,27/07/2022 15:29:04,1658935743994,1,27/07/2022 16:29:03,94050,2,task-mn1e,NA,23334659,6847614,NA,complete,NA,62e15993c08a0bfff2d8eb9a,mobile,Apple iPhone,iOS 15.5,Mobile Safari 15.5,390x844,750x307,NA,ITT Ratings,3,For,4,NA,NA,ACCEPT,NA,NA,NA,NA,NA,NA,NA,batch4hes,batch4hes,47,6,1,Screen 1,continueButton,response_rating_scale_likert_active,5561,NA,NA,Somewhat Agree,1,0,1,0,NA,NA,NA,NA,1,statements,No two adults have had the vaccine then created a baby that has then been born without any issues - there simply has not been enough time so it is impossible to say if that baby would be ok.,1,17/05/2021 11:32,17/05/2021 11:42,618,Never,Rarely,57,Male,-99,A levels,38,2,Against,Against
9,1658935748247,27/07/2022 15:29:08,1658935747212,1,27/07/2022 16:29:07,94050,2,task-mn1e,NA,23334659,6847614,NA,complete,NA,62e15993c08a0bfff2d8eb9a,mobile,Apple iPhone,iOS 15.5,Mobile Safari 15.5,390x844,750x307,NA,ITT Ratings,3,For,4,NA,NA,ACCEPT,NA,NA,NA,NA,NA,NA,NA,batch4hes,batch4hes,21,7,1,Screen 1,continueButton,response_rating_scale_likert_active,3196.9999999999964,NA,NA,Strongly Disagree,1,0,1,0,NA,NA,NA,NA,1,statements,vaccine is the only one way to arrive world beautiful without Covide-19.,1,17/05/2021 10:14,17/05/2021 11:30,4578,Most weeks,A few times a year,30,Female,-99,Vocational Training / Apprenticeship,33,3,Against,For
10,1658935750598,27/07/2022 15:29:10,1658935749180,1,27/07/2022 16:29:09,94050,2,task-mn1e,NA,23334659,6847614,NA,complete,NA,62e15993c08a0bfff2d8eb9a,mobile,Apple iPhone,iOS 15.5,Mobile Safari 15.5,390x844,750x307,NA,ITT Ratings,3,For,4,NA,NA,ACCEPT,NA,NA,NA,NA,NA,NA,NA,batch4hes,batch4hes,32,8,1,Screen 1,continueButton,response_rating_scale_likert_active,1948,NA,NA,Somewhat Agree,1,0,1,0,NA,NA,NA,NA,1,statements,Everyone should have the vaccine or thety shouldnt be allowed out in public,1,17/05/2021 11:26,17/05/2021 11:32,370,Most weeks,Most months,33,Female,-99,"Postgraduate degree (MSc, MA, MPhil)",35,2,Against,For
11,1658935751115,27/07/2022 15:29:11,1658935751043,1,27/07/2022 16:29:11,94050,2,task-mn1e,NA,23334659,6847614,NA,complete,NA,62e15993c08a0bfff2d8eb9a,mobile,Apple iPhone,iOS 15.5,Mobile Safari 15.5,390x844,750x307,NA,ITT Ratings,3,For,4,NA,NA,ACCEPT,NA,NA,NA,NA,NA,NA,NA,batch4hes,batch4hes,12,9,1,Screen 1,continueButton,response_rating_scale_likert_active,1843,NA,NA,Strongly Disagree,1,0,1,0,NA,NA,NA,NA,1,statements,RNA vaccines aren't safe: In initial trials of the RNA technology resulted in the death of all the animals it was trialed on. This untested method of vaccination will likely damage human immune system,1,17/05/2021 11:15,17/05/2021 11:30,899,Most weeks,Most weeks,61,Male,-99,"Postgraduate degree (MSc, MA, MPhil)",32,3,Against,Against
12,1658935752591,27/07/2022 15:29:12,1658935752481,1,27/07/2022 16:29:12,94050,2,task-mn1e,NA,23334659,6847614,NA,complete,NA,62e15993c08a0bfff2d8eb9a,mobile,Apple iPhone,iOS 15.5,Mobile Safari 15.5,390x844,750x307,NA,ITT Ratings,3,For,4,NA,NA,ACCEPT,NA,NA,NA,NA,NA,NA,NA,batch4hes,batch4hes,4,10,1,Screen 1,continueButton,response_rating_scale_likert_active,1422,NA,NA,Strongly Disagree,1,0,1,0,NA,NA,NA,NA,1,statements,"it's not a vaccine, it is an experimental RNA jab",1,17/05/2021 11:20,17/05/2021 11:28,519,Most weeks,Most days,42,Female,-99,Doctorate (PhD),31,1,Against,Against
13,1658935755273,27/07/2022 15:29:15,1658935754867,1,27/07/2022 16:29:14,94050,2,task-mn1e,NA,23334659,6847614,NA,complete,NA,62e15993c08a0bfff2d8eb9a,mobile,Apple iPhone,iOS 15.5,Mobile Safari 15.5,390x844,750x307,NA,ITT Ratings,3,For,4,NA,NA,ACCEPT,NA,NA,NA,NA,NA,NA,NA,batch4hes,batch4hes,46,11,1,Screen 1,continueButton,response_rating_scale_likert_active,2366,NA,NA,Strongly Disagree,1,0,1,0,NA,NA,NA,NA,1,statements,"Millions of people around the world have NOT died OF covid, they would have died anyway but happened to have the bug in them as well which had ho effect on their health.",1,17/05/2021 11:32,17/05/2021 11:42,618,Never,Rarely,57,Male,-99,A levels,38,1,Against,Against
14,1658935756337,27/07/2022 15:29:16,1658935756287,1,27/07/2022 16:29:16,94050,2,task-mn1e,NA,23334659,6847614,NA,complete,NA,62e15993c08a0bfff2d8eb9a,mobile,Apple iPhone,iOS 15.5,Mobile Safari 15.5,390x844,750x307,NA,ITT Ratings,3,For,4,NA,NA,ACCEPT,NA,NA,NA,NA,NA,NA,NA,batch4hes,batch4hes,48,12,1,Screen 1,continueButton,response_rating_scale_likert_active,1397.0000000000073,NA,NA,Neither Agree nor Disagree,1,0,1,0,NA,NA,NA,NA,1,statements,Vaccines take up to a decade to be safely trialled - this one has had around 9 months so there is no way all possible issues have been addressed.,1,17/05/2021 11:32,17/05/2021 11:42,618,Never,Rarely,57,Male,-99,A levels,38,3,Against,Against
15,1658935758740,27/07/2022 15:29:18,1658935758469,1,27/07/2022 16:29:18,94050,2,task-mn1e,NA,23334659,6847614,NA,complete,NA,62e15993c08a0bfff2d8eb9a,mobile,Apple iPhone,iOS 15.5,Mobile Safari 15.5,390x844,750x307,NA,ITT Ratings,3,For,4,NA,NA,ACCEPT,NA,NA,NA,NA,NA,NA,NA,batch4hes,batch4hes,56,13,1,Screen 1,continueButton,response_rating_scale_likert_active,2168,NA,NA,Somewhat Agree,1,0,1,0,NA,NA,NA,NA,1,statements,It has been approved by Scientists.,1,17/05/2021 11:35,17/05/2021 11:42,462,Most weeks,Most days,27,Female,-99,"Undergraduate degree (BSc, BA)",39,2,Against,For
16,1658935760549,27/07/2022 15:29:20,1658935760487,1,27/07/2022 16:29:20,94050,2,task-mn1e,NA,23334659,6847614,NA,complete,NA,62e15993c08a0bfff2d8eb9a,mobile,Apple iPhone,iOS 15.5,Mobile Safari 15.5,390x844,750x307,NA,ITT Ratings,3,For,4,NA,NA,ACCEPT,NA,NA,NA,NA,NA,NA,NA,batch4hes,batch4hes,17,14,1,Screen 1,continueButton,response_rating_scale_likert_active,1998,NA,NA,Strongly Disagree,1,0,1,0,NA,NA,NA,NA,1,statements,I can defeat this virus with my own antibodies. I am healthy enough to evercome it.,1,17/05/2021 10:14,17/05/2021 11:30,4578,Most weeks,A few times a year,30,Female,-99,Vocational Training / Apprenticeship,33,2,Against,Against
17,1658935762193,27/07/2022 15:29:22,1658935761871,1,27/07/2022 16:29:21,94050,2,task-mn1e,NA,23334659,6847614,NA,complete,NA,62e15993c08a0bfff2d8eb9a,mobile,Apple iPhone,iOS 15.5,Mobile Safari 15.5,390x844,750x307,NA,ITT Ratings,3,For,4,NA,NA,ACCEPT,NA,NA,NA,NA,NA,NA,NA,batch4hes,batch4hes,44,15,1,Screen 1,continueButton,response_rating_scale_likert_active,1365,NA,NA,Somewhat Agree,1,0,1,0,NA,NA,NA,NA,1,statements,I donÕt want to be sick,1,17/05/2021 11:31,17/05/2021 11:38,434,Most weeks,Most days,46,Female,-99,"Postgraduate degree (MSc, MA, MPhil)",37,2,Against,For
18,1658935764232,27/07/2022 15:29:24,1658935763973,1,27/07/2022 16:29:23,94050,2,task-mn1e,NA,23334659,6847614,NA,complete,NA,62e15993c08a0bfff2d8eb9a,mobile,Apple iPhone,iOS 15.5,Mobile Safari 15.5,390x844,750x307,NA,ITT Ratings,3,For,4,NA,NA,ACCEPT,NA,NA,NA,NA,NA,NA,NA,batch4hes,batch4hes,27,16,1,Screen 1,continueButton,response_rating_scale_likert_active,2081,NA,NA,Somewhat Agree,1,0,1,0,NA,NA,NA,NA,1,statements,I am looking out for other people by having it.,1,17/05/2021 11:28,17/05/2021 11:32,263,Most weeks,Rarely,58,Female,-99,GCSEs,34,3,Against,For
19,1658935765750,27/07/2022 15:29:25,1658935765657,1,27/07/2022 16:29:25,94050,2,task-mn1e,NA,23334659,6847614,NA,complete,NA,62e15993c08a0bfff2d8eb9a,mobile,Apple iPhone,iOS 15.5,Mobile Safari 15.5,390x844,750x307,NA,ITT Ratings,3,For,4,NA,NA,ACCEPT,NA,NA,NA,NA,NA,NA,NA,batch4hes,batch4hes,26,17,1,Screen 1,continueButton,response_rating_scale_likert_active,1666,NA,NA,Neither Agree nor Disagree,1,0,1,0,NA,NA,NA,NA,1,statements,We will never get back to normal if every single person does not have it.,1,17/05/2021 11:28,17/05/2021 11:32,263,Most weeks,Rarely,58,Female,-99,GCSEs,34,2,Against,For
20,1658935769412,27/07/2022 15:29:29,1658935768943,1,27/07/2022 16:29:28,94050,2,task-mn1e,NA,23334659,6847614,NA,complete,NA,62e15993c08a0bfff2d8eb9a,mobile,Apple iPhone,iOS 15.5,Mobile Safari 15.5,390x844,750x307,NA,ITT Ratings,3,For,4,NA,NA,ACCEPT,NA,NA,NA,NA,NA,NA,NA,batch4hes,batch4hes,43,18,1,Screen 1,continueButton,response_rating_scale_likert_active,3268.9999999999927,NA,NA,Neither Agree nor Disagree,1,0,1,0,NA,NA,NA,NA,1,statements,Im selfish as it only protects me,1,17/05/2021 11:31,17/05/2021 11:38,434,Most weeks,Most days,46,Female,-99,"Postgraduate degree (MSc, MA, MPhil)",37,1,Against,For
21,1658935772190,27/07/2022 15:29:32,1658935771844,1,27/07/2022 16:29:31,94050,2,task-mn1e,NA,23334659,6847614,NA,complete,NA,62e15993c08a0bfff2d8eb9a,mobile,Apple iPhone,iOS 15.5,Mobile Safari 15.5,390x844,750x307,NA,ITT Ratings,3,For,4,NA,NA,ACCEPT,NA,NA,NA,NA,NA,NA,NA,batch4hes,batch4hes,39,19,1,Screen 1,continueButton,response_rating_scale_likert_active,2884,NA,NA,Somewhat Agree,1,0,1,0,NA,NA,NA,NA,1,statements,"I've been vaccinated against everything else, why should the covid vaccine be any different?",1,17/05/2021 11:15,17/05/2021 11:34,1100,Rarely,Never,28,Female,-99,"Undergraduate degree (BSc, BA)",36,3,Against,For
22,1658935773054,27/07/2022 15:29:33,1658935772893,1,27/07/2022 16:29:32,94050,2,task-mn1e,NA,23334659,6847614,NA,complete,NA,62e15993c08a0bfff2d8eb9a,mobile,Apple iPhone,iOS 15.5,Mobile Safari 15.5,390x844,750x307,NA,ITT Ratings,3,For,4,NA,NA,ACCEPT,NA,NA,NA,NA,NA,NA,NA,batch4hes,batch4hes,45,20,1,Screen 1,continueButton,response_rating_scale_likert_active,1031,NA,NA,Somewhat Agree,1,0,1,0,NA,NA,NA,NA,1,statements,The government told me to,1,17/05/2021 11:31,17/05/2021 11:38,434,Most weeks,Most days,46,Female,-99,"Postgraduate degree (MSc, MA, MPhil)",37,3,Against,For
23,1658935774658,27/07/2022 15:29:34,1658935774561,1,27/07/2022 16:29:34,94050,2,task-mn1e,NA,23334659,6847614,NA,complete,NA,62e15993c08a0bfff2d8eb9a,mobile,Apple iPhone,iOS 15.5,Mobile Safari 15.5,390x844,750x307,NA,ITT Ratings,3,For,4,NA,NA,ACCEPT,NA,NA,NA,NA,NA,NA,NA,batch4hes,batch4hes,10,21,1,Screen 1,continueButton,response_rating_scale_likert_active,1648.9999999999927,NA,NA,Somewhat Agree,1,0,1,0,NA,NA,NA,NA,1,statements,Overly quick development period: It was developed to rapidly and it is unknown if there will be any long term issues with it.,1,17/05/2021 11:15,17/05/2021 11:30,899,Most weeks,Most weeks,61,Male,-99,"Postgraduate degree (MSc, MA, MPhil)",32,1,Against,Against
24,1658935776800,27/07/2022 15:29:36,1658935776348,1,27/07/2022 16:29:36,94050,2,task-mn1e,NA,23334659,6847614,NA,complete,NA,62e15993c08a0bfff2d8eb9a,mobile,Apple iPhone,iOS 15.5,Mobile Safari 15.5,390x844,750x307,NA,ITT Ratings,3,For,4,NA,NA,ACCEPT,NA,NA,NA,NA,NA,NA,NA,batch4hes,batch4hes,53,22,1,Screen 1,continueButton,response_rating_scale_likert_active,1771.0000000000073,NA,NA,Strongly Disagree,1,0,1,0,NA,NA,NA,NA,1,statements,Hundreds of reports of serious reactions to the vaccine and even deaths. It takes a few moment on google to discover these vaccines are not safe and do not even work according to Matt Hancock.,1,17/05/2021 11:35,17/05/2021 11:42,462,Most weeks,Most days,27,Female,-99,"Undergraduate degree (BSc, BA)",39,2,Against,Against
25,1658935777668,27/07/2022 15:29:37,1658935777548,1,27/07/2022 16:29:37,94050,2,task-mn1e,NA,23334659,6847614,NA,complete,NA,62e15993c08a0bfff2d8eb9a,mobile,Apple iPhone,iOS 15.5,Mobile Safari 15.5,390x844,750x307,NA,ITT Ratings,3,For,4,NA,NA,ACCEPT,NA,NA,NA,NA,NA,NA,NA,batch4hes,batch4hes,50,23,1,Screen 1,continueButton,response_rating_scale_likert_active,1181,NA,NA,Somewhat Agree,1,0,1,0,NA,NA,NA,NA,1,statements,I don't want to die.,1,17/05/2021 11:32,17/05/2021 11:42,618,Never,Rarely,57,Male,-99,A levels,38,2,Against,For
26,1658935779255,27/07/2022 15:29:39,1658935779014,1,27/07/2022 16:29:39,94050,2,task-mn1e,NA,23334659,6847614,NA,complete,NA,62e15993c08a0bfff2d8eb9a,mobile,Apple iPhone,iOS 15.5,Mobile Safari 15.5,390x844,750x307,NA,ITT Ratings,3,For,4,NA,NA,ACCEPT,NA,NA,NA,NA,NA,NA,NA,batch4hes,batch4hes,7,24,1,Screen 1,continueButton,response_rating_scale_likert_active,1448,NA,NA,Neither Agree nor Disagree,1,0,1,0,NA,NA,NA,NA,1,statements,I am an ill person and don't look after my body,1,17/05/2021 11:20,17/05/2021 11:28,519,Most weeks,Most days,42,Female,-99,Doctorate (PhD),31,1,Against,For
27,1658935782170,27/07/2022 15:29:42,1658935781851,1,27/07/2022 16:29:41,94050,2,task-mn1e,NA,23334659,6847614,NA,complete,NA,62e15993c08a0bfff2d8eb9a,mobile,Apple iPhone,iOS 15.5,Mobile Safari 15.5,390x844,750x307,NA,ITT Ratings,3,For,4,NA,NA,ACCEPT,NA,NA,NA,NA,NA,NA,NA,batch4hes,batch4hes,18,25,1,Screen 1,continueButton,response_rating_scale_likert_active,2819,NA,NA,Somewhat Disagree,1,0,1,0,NA,NA,NA,NA,1,statements,"I don't trust anyone, It is created for people genocide.",1,17/05/2021 10:14,17/05/2021 11:30,4578,Most weeks,A few times a year,30,Female,-99,Vocational Training / Apprenticeship,33,3,Against,Against
28,1658935783221,27/07/2022 15:29:43,1658935783152,1,27/07/2022 16:29:43,94050,2,task-mn1e,NA,23334659,6847614,NA,complete,NA,62e15993c08a0bfff2d8eb9a,mobile,Apple iPhone,iOS 15.5,Mobile Safari 15.5,390x844,750x307,NA,ITT Ratings,3,For,4,NA,NA,ACCEPT,NA,NA,NA,NA,NA,NA,NA,batch4hes,batch4hes,41,26,1,Screen 1,continueButton,response_rating_scale_likert_active,1282,NA,NA,Somewhat Disagree,1,0,1,0,NA,NA,NA,NA,1,statements,It isnt a vaccine.  It doesnt stop you catching the virus,1,17/05/2021 11:31,17/05/2021 11:38,434,Most weeks,Most days,46,Female,-99,"Postgraduate degree (MSc, MA, MPhil)",37,2,Against,Against
29,1658935785956,27/07/2022 15:29:45,1658935785132,1,27/07/2022 16:29:45,94050,2,task-mn1e,NA,23334659,6847614,NA,complete,NA,62e15993c08a0bfff2d8eb9a,mobile,Apple iPhone,iOS 15.5,Mobile Safari 15.5,390x844,750x307,NA,ITT Ratings,3,For,4,NA,NA,ACCEPT,NA,NA,NA,NA,NA,NA,NA,batch4hes,batch4hes,61,27,1,Screen 1,continueButton,response_rating_scale_likert_active,1960.0000000000073,NA,NA,Somewhat Agree,1,0,1,0,NA,NA,NA,NA,1,statements,I want to protect myself and others. (which doesn't make sense because taking the vaccine will not prevent you from getting infected or infecting others),1,17/05/2021 11:08,17/05/2021 11:43,2086,Most days,Most days,28,Female,-99,"Postgraduate degree (MSc, MA, MPhil)",40,1,Against,For
30,1658935788585,27/07/2022 15:29:48,1658935787467,1,27/07/2022 16:29:47,94050,2,task-mn1e,NA,23334659,6847614,NA,complete,NA,62e15993c08a0bfff2d8eb9a,mobile,Apple iPhone,iOS 15.5,Mobile Safari 15.5,390x844,750x307,NA,ITT Ratings,3,For,4,NA,NA,ACCEPT,NA,NA,NA,NA,NA,NA,NA,batch4hes,batch4hes,57,28,1,Screen 1,continueButton,response_rating_scale_likert_active,2318.9999999999854,NA,NA,Somewhat Agree,1,0,1,0,NA,NA,NA,NA,1,statements,I want to increase my chances of a fast recovery if I catch Covid.,1,17/05/2021 11:35,17/05/2021 11:42,462,Most weeks,Most days,27,Female,-99,"Undergraduate degree (BSc, BA)",39,3,Against,For
31,1658935789260,27/07/2022 15:29:49,1658935789172,1,27/07/2022 16:29:49,94050,2,task-mn1e,NA,23334659,6847614,NA,complete,NA,62e15993c08a0bfff2d8eb9a,mobile,Apple iPhone,iOS 15.5,Mobile Safari 15.5,390x844,750x307,NA,ITT Ratings,3,For,4,NA,NA,ACCEPT,NA,NA,NA,NA,NA,NA,NA,batch4hes,batch4hes,11,29,1,Screen 1,continueButton,response_rating_scale_likert_active,1688,NA,NA,Strongly Disagree,1,0,1,0,NA,NA,NA,NA,1,statements,Not effective against this Coronavirus: Coronaviruses have been around for a very long time and we have never been able to produce an effective vaccine against them and yet suddenly we have eleven.,1,17/05/2021 11:15,17/05/2021 11:30,899,Most weeks,Most weeks,61,Male,-99,"Postgraduate degree (MSc, MA, MPhil)",32,2,Against,Against
32,1658935790255,27/07/2022 15:29:50,1658935790170,1,27/07/2022 16:29:50,94050,2,task-mn1e,NA,23334659,6847614,NA,complete,NA,62e15993c08a0bfff2d8eb9a,mobile,Apple iPhone,iOS 15.5,Mobile Safari 15.5,390x844,750x307,NA,ITT Ratings,3,For,4,NA,NA,ACCEPT,NA,NA,NA,NA,NA,NA,NA,batch4hes,batch4hes,23,30,1,Screen 1,continueButton,response_rating_scale_likert_active,978,NA,NA,Somewhat Agree,1,0,1,0,NA,NA,NA,NA,1,statements,I have been okay up to now.,1,17/05/2021 11:28,17/05/2021 11:32,263,Most weeks,Rarely,58,Female,-99,GCSEs,34,2,Against,Against
33,1658935791143,27/07/2022 15:29:51,1658935791056,1,27/07/2022 16:29:51,94050,2,task-mn1e,NA,23334659,6847614,NA,complete,NA,62e15993c08a0bfff2d8eb9a,mobile,Apple iPhone,iOS 15.5,Mobile Safari 15.5,390x844,750x307,NA,ITT Ratings,3,For,4,NA,NA,ACCEPT,NA,NA,NA,NA,NA,NA,NA,batch4hes,batch4hes,25,31,1,Screen 1,continueButton,response_rating_scale_likert_active,869,NA,NA,Somewhat Agree,1,0,1,0,NA,NA,NA,NA,1,statements,I trust that the vaccine is safe.,1,17/05/2021 11:28,17/05/2021 11:32,263,Most weeks,Rarely,58,Female,-99,GCSEs,34,1,Against,For
34,1658935793213,27/07/2022 15:29:53,1658935793022,1,27/07/2022 16:29:53,94050,2,task-mn1e,NA,23334659,6847614,NA,complete,NA,62e15993c08a0bfff2d8eb9a,mobile,Apple iPhone,iOS 15.5,Mobile Safari 15.5,390x844,750x307,NA,ITT Ratings,3,For,4,NA,NA,ACCEPT,NA,NA,NA,NA,NA,NA,NA,batch4hes,batch4hes,51,32,1,Screen 1,continueButton,response_rating_scale_likert_active,1951,NA,NA,Strongly Disagree,1,0,1,0,NA,NA,NA,NA,1,statements,The governement says I have to.,1,17/05/2021 11:32,17/05/2021 11:42,618,Never,Rarely,57,Male,-99,A levels,38,3,Against,For
35,1658935797535,27/07/2022 15:29:57,1658935797310,1,27/07/2022 16:29:57,94050,2,task-mn1e,NA,23334659,6847614,NA,complete,NA,62e15993c08a0bfff2d8eb9a,mobile,Apple iPhone,iOS 15.5,Mobile Safari 15.5,390x844,750x307,NA,ITT Ratings,3,For,4,NA,NA,ACCEPT,NA,NA,NA,NA,NA,NA,NA,batch4hes,batch4hes,35,33,1,Screen 1,continueButton,response_rating_scale_likert_active,4269,NA,NA,Somewhat Agree,1,0,1,0,NA,NA,NA,NA,1,statements,"I would rather risk it and employ herd immunity - 'if I catch covid, I catch it' type of mentality",1,17/05/2021 11:15,17/05/2021 11:34,1100,Rarely,Never,28,Female,-99,"Undergraduate degree (BSc, BA)",36,2,Against,Against
36,1658935799943,27/07/2022 15:29:59,1658935799693,1,27/07/2022 16:29:59,94050,2,task-mn1e,NA,23334659,6847614,NA,complete,NA,62e15993c08a0bfff2d8eb9a,mobile,Apple iPhone,iOS 15.5,Mobile Safari 15.5,390x844,750x307,NA,ITT Ratings,3,For,4,NA,NA,ACCEPT,NA,NA,NA,NA,NA,NA,NA,batch4hes,batch4hes,16,34,1,Screen 1,continueButton,response_rating_scale_likert_active,2364,NA,NA,Strongly Disagree,1,0,1,0,NA,NA,NA,NA,1,statements,"Covide-19 vaccine is not safe enough and I don't know how does it work in long term,",1,17/05/2021 10:14,17/05/2021 11:30,4578,Most weeks,A few times a year,30,Female,-99,Vocational Training / Apprenticeship,33,1,Against,Against
37,1658935802108,27/07/2022 15:30:02,1658935801913,1,27/07/2022 16:30:01,94050,2,task-mn1e,NA,23334659,6847614,NA,complete,NA,62e15993c08a0bfff2d8eb9a,mobile,Apple iPhone,iOS 15.5,Mobile Safari 15.5,390x844,750x307,NA,ITT Ratings,3,For,4,NA,NA,ACCEPT,NA,NA,NA,NA,NA,NA,NA,batch4hes,batch4hes,37,35,1,Screen 1,continueButton,response_rating_scale_likert_active,2202,NA,NA,Somewhat Agree,1,0,1,0,NA,NA,NA,NA,1,statements,Getting the vaccine will protect me and others and play a key part in curbing the pandemic,1,17/05/2021 11:15,17/05/2021 11:34,1100,Rarely,Never,28,Female,-99,"Undergraduate degree (BSc, BA)",36,1,Against,For
38,1658935803361,27/07/2022 15:30:03,1658935803246,1,27/07/2022 16:30:03,94050,2,task-mn1e,NA,23334659,6847614,NA,complete,NA,62e15993c08a0bfff2d8eb9a,mobile,Apple iPhone,iOS 15.5,Mobile Safari 15.5,390x844,750x307,NA,ITT Ratings,3,For,4,NA,NA,ACCEPT,NA,NA,NA,NA,NA,NA,NA,batch4hes,batch4hes,33,36,1,Screen 1,continueButton,response_rating_scale_likert_active,1309,NA,NA,Strongly Disagree,1,0,1,0,NA,NA,NA,NA,1,statements,If you dont have the vaccine youll die,1,17/05/2021 11:26,17/05/2021 11:32,370,Most weeks,Most months,33,Female,-99,"Postgraduate degree (MSc, MA, MPhil)",35,3,Against,For
39,1658935804370,27/07/2022 15:30:04,1658935804278,1,27/07/2022 16:30:04,94050,2,task-mn1e,NA,23334659,6847614,NA,complete,NA,62e15993c08a0bfff2d8eb9a,mobile,Apple iPhone,iOS 15.5,Mobile Safari 15.5,390x844,750x307,NA,ITT Ratings,3,For,4,NA,NA,ACCEPT,NA,NA,NA,NA,NA,NA,NA,batch4hes,batch4hes,19,37,1,Screen 1,continueButton,response_rating_scale_likert_active,1012,NA,NA,Somewhat Agree,1,0,1,0,NA,NA,NA,NA,1,statements,It is for your safety.,1,17/05/2021 10:14,17/05/2021 11:30,4578,Most weeks,A few times a year,30,Female,-99,Vocational Training / Apprenticeship,33,1,Against,For
40,1658935806876,27/07/2022 15:30:06,1658935806632,1,27/07/2022 16:30:06,94050,2,task-mn1e,NA,23334659,6847614,NA,complete,NA,62e15993c08a0bfff2d8eb9a,mobile,Apple iPhone,iOS 15.5,Mobile Safari 15.5,390x844,750x307,NA,ITT Ratings,3,For,4,NA,NA,ACCEPT,NA,NA,NA,NA,NA,NA,NA,batch4hes,batch4hes,55,38,1,Screen 1,continueButton,response_rating_scale_likert_active,2336,NA,NA,Strongly Disagree,1,0,1,0,NA,NA,NA,NA,1,statements,It has gone through a fast track testing process to get it out into the public as soon as possible.,1,17/05/2021 11:35,17/05/2021 11:42,462,Most weeks,Most days,27,Female,-99,"Undergraduate degree (BSc, BA)",39,1,Against,For
41,1658935810247,27/07/2022 15:30:10,1658935810150,1,27/07/2022 16:30:10,94050,2,task-mn1e,NA,23334659,6847614,NA,complete,NA,62e15993c08a0bfff2d8eb9a,mobile,Apple iPhone,iOS 15.5,Mobile Safari 15.5,390x844,750x307,NA,ITT Ratings,3,For,4,NA,NA,ACCEPT,NA,NA,NA,NA,NA,NA,NA,batch4hes,batch4hes,6,39,1,Screen 1,continueButton,response_rating_scale_likert_active,3498,NA,NA,Disagree,1,0,1,0,NA,NA,NA,NA,1,statements,"links to blood clots and herpes - shingles, coldsores etc",1,17/05/2021 11:20,17/05/2021 11:28,519,Most weeks,Most days,42,Female,-99,Doctorate (PhD),31,3,Against,Against
42,1658935813033,27/07/2022 15:30:13,1658935812668,1,27/07/2022 16:30:12,94050,2,task-mn1e,NA,23334659,6847614,NA,complete,NA,62e15993c08a0bfff2d8eb9a,mobile,Apple iPhone,iOS 15.5,Mobile Safari 15.5,390x844,750x307,NA,ITT Ratings,3,For,4,NA,NA,ACCEPT,NA,NA,NA,NA,NA,NA,NA,batch4hes,batch4hes,40,40,1,Screen 1,continueButton,response_rating_scale_likert_active,2499,NA,NA,Somewhat Agree,1,0,1,0,NA,NA,NA,NA,1,statements,The virus can still be transmitted,1,17/05/2021 11:31,17/05/2021 11:38,434,Most weeks,Most days,46,Female,-99,"Postgraduate degree (MSc, MA, MPhil)",37,1,Against,Against
43,1658935813988,27/07/2022 15:30:13,1658935813869,1,27/07/2022 16:30:13,94050,2,task-mn1e,NA,23334659,6847614,NA,complete,NA,62e15993c08a0bfff2d8eb9a,mobile,Apple iPhone,iOS 15.5,Mobile Safari 15.5,390x844,750x307,NA,ITT Ratings,3,For,4,NA,NA,ACCEPT,NA,NA,NA,NA,NA,NA,NA,batch4hes,batch4hes,24,41,1,Screen 1,continueButton,response_rating_scale_likert_active,1183,NA,NA,Somewhat Agree,1,0,1,0,NA,NA,NA,NA,1,statements,I have lived with someone with Covid and did not even get ill.,1,17/05/2021 11:28,17/05/2021 11:32,263,Most weeks,Rarely,58,Female,-99,GCSEs,34,3,Against,Against
44,1658935815548,27/07/2022 15:30:15,1658935815401,1,27/07/2022 16:30:15,94050,2,task-mn1e,NA,23334659,6847614,NA,complete,NA,62e15993c08a0bfff2d8eb9a,mobile,Apple iPhone,iOS 15.5,Mobile Safari 15.5,390x844,750x307,NA,ITT Ratings,3,For,4,NA,NA,ACCEPT,NA,NA,NA,NA,NA,NA,NA,batch4hes,batch4hes,59,42,1,Screen 1,continueButton,response_rating_scale_likert_active,1514.0000000000146,NA,NA,Strongly Disagree,1,0,1,0,NA,NA,NA,NA,1,statements,"Instead of vaccines, drugs should be developed to help cure people who fall sick from Covid.",1,17/05/2021 11:08,17/05/2021 11:43,2086,Most days,Most days,28,Female,-99,"Postgraduate degree (MSc, MA, MPhil)",40,2,Against,Against
45,1658935816568,27/07/2022 15:30:16,1658935816468,1,27/07/2022 16:30:16,94050,2,task-mn1e,NA,23334659,6847614,NA,complete,NA,62e15993c08a0bfff2d8eb9a,mobile,Apple iPhone,iOS 15.5,Mobile Safari 15.5,390x844,750x307,NA,ITT Ratings,3,For,4,NA,NA,ACCEPT,NA,NA,NA,NA,NA,NA,NA,batch4hes,batch4hes,5,43,1,Screen 1,continueButton,response_rating_scale_likert_active,1050,NA,NA,Strongly Disagree,1,0,1,0,NA,NA,NA,NA,1,statements,it is still in clinical trials,1,17/05/2021 11:20,17/05/2021 11:28,519,Most weeks,Most days,42,Female,-99,Doctorate (PhD),31,2,Against,Against
46,1658935817531,27/07/2022 15:30:17,1658935817422,1,27/07/2022 16:30:17,94050,2,task-mn1e,NA,23334659,6847614,NA,complete,NA,62e15993c08a0bfff2d8eb9a,mobile,Apple iPhone,iOS 15.5,Mobile Safari 15.5,390x844,750x307,NA,ITT Ratings,3,For,4,NA,NA,ACCEPT,NA,NA,NA,NA,NA,NA,NA,batch4hes,batch4hes,14,44,1,Screen 1,continueButton,response_rating_scale_likert_active,936,NA,NA,Somewhat Agree,1,0,1,0,NA,NA,NA,NA,1,statements,We need to beat this virus.,1,17/05/2021 11:15,17/05/2021 11:30,899,Most weeks,Most weeks,61,Male,-99,"Postgraduate degree (MSc, MA, MPhil)",32,2,Against,For
47,1658935819457,27/07/2022 15:30:19,1658935819139,1,27/07/2022 16:30:19,94050,2,task-mn1e,NA,23334659,6847614,NA,complete,NA,62e15993c08a0bfff2d8eb9a,mobile,Apple iPhone,iOS 15.5,Mobile Safari 15.5,390x844,750x307,NA,ITT Ratings,3,For,4,NA,NA,ACCEPT,NA,NA,NA,NA,NA,NA,NA,batch4hes,batch4hes,8,45,1,Screen 1,continueButton,response_rating_scale_likert_active,1696,NA,NA,Somewhat Agree,1,0,1,0,NA,NA,NA,NA,1,statements,I trust the government and the scientists they chose to let us listen to,1,17/05/2021 11:20,17/05/2021 11:28,519,Most weeks,Most days,42,Female,-99,Doctorate (PhD),31,2,Against,For
48,1658935822777,27/07/2022 15:30:22,1658935821973,1,27/07/2022 16:30:21,94050,2,task-mn1e,NA,23334659,6847614,NA,complete,NA,62e15993c08a0bfff2d8eb9a,mobile,Apple iPhone,iOS 15.5,Mobile Safari 15.5,390x844,750x307,NA,ITT Ratings,3,For,4,NA,NA,ACCEPT,NA,NA,NA,NA,NA,NA,NA,batch4hes,batch4hes,3,46,1,Screen 1,continueButton,response_rating_scale_likert_active,2815,NA,NA,Somewhat Disagree,1,0,1,0,NA,NA,NA,NA,1,statements,We would like to check you are reading each argument carefully. Please select 'Somewhat Disagree' for this answer,1,NA,NA,NA,NA,NA,NA,NA,NA,NA,NA,check2,NA,NA
49,1658935826030,27/07/2022 15:30:26,1658935824374,1,27/07/2022 16:30:24,94050,2,task-mn1e,NA,23334659,6847614,NA,complete,NA,62e15993c08a0bfff2d8eb9a,mobile,Apple iPhone,iOS 15.5,Mobile Safari 15.5,390x844,750x307,NA,ITT Ratings,3,For,4,NA,NA,ACCEPT,NA,NA,NA,NA,NA,NA,NA,batch4hes,batch4hes,29,47,1,Screen 1,continueButton,response_rating_scale_likert_active,2382.0000000000146,NA,NA,Strongly Disagree,1,0,1,0,NA,NA,NA,NA,1,statements,It has not been tested and we do not know the long term side effects from all the additives,1,17/05/2021 11:26,17/05/2021 11:32,370,Most weeks,Most months,33,Female,-99,"Postgraduate degree (MSc, MA, MPhil)",35,2,Against,Against
50,1658935827487,27/07/2022 15:30:27,1658935825476,1,27/07/2022 16:30:25,94050,2,task-mn1e,NA,23334659,6847614,NA,complete,NA,62e15993c08a0bfff2d8eb9a,mobile,Apple iPhone,iOS 15.5,Mobile Safari 15.5,390x844,750x307,NA,ITT Ratings,3,For,4,NA,NA,ACCEPT,NA,NA,NA,NA,NA,NA,NA,batch4hes,batch4hes,63,48,1,Screen 1,continueButton,response_rating_scale_likert_active,1084,NA,NA,Somewhat Agree,1,0,1,0,NA,NA,NA,NA,1,statements,I just want to be able to travel,1,17/05/2021 11:08,17/05/2021 11:43,2086,Most days,Most days,28,Female,-99,"Postgraduate degree (MSc, MA, MPhil)",40,3,Against,For
51,1658935830113,27/07/2022 15:30:30,1658935828544,1,27/07/2022 16:30:28,94050,2,task-mn1e,NA,23334659,6847614,NA,complete,NA,62e15993c08a0bfff2d8eb9a,mobile,Apple iPhone,iOS 15.5,Mobile Safari 15.5,390x844,750x307,NA,ITT Ratings,3,For,4,NA,NA,ACCEPT,NA,NA,NA,NA,NA,NA,NA,batch4hes,batch4hes,54,49,1,Screen 1,continueButton,response_rating_scale_likert_active,3050.0000000000146,NA,NA,Strongly Disagree,1,0,1,0,NA,NA,NA,NA,1,statements,"I am young, fit and healthy. I do not want to inject anything into my body that even the government are not sure about. Mixed messages from the government daily. New variants etc.",1,17/05/2021 11:35,17/05/2021 11:42,462,Most weeks,Most days,27,Female,-99,"Undergraduate degree (BSc, BA)",39,3,Against,Against
52,1658935834271,27/07/2022 15:30:34,1658935830592,1,27/07/2022 16:30:30,94050,2,task-mn1e,NA,23334659,6847614,NA,complete,NA,62e15993c08a0bfff2d8eb9a,mobile,Apple iPhone,iOS 15.5,Mobile Safari 15.5,390x844,750x307,NA,ITT Ratings,3,For,4,NA,NA,ACCEPT,NA,NA,NA,NA,NA,NA,NA,batch4hes,batch4hes,31,50,1,Screen 1,continueButton,response_rating_scale_likert_active,2029,NA,NA,Somewhat Agree,1,0,1,0,NA,NA,NA,NA,1,statements,You will spread it without the vaccine,1,17/05/2021 11:26,17/05/2021 11:32,370,Most weeks,Most months,33,Female,-99,"Postgraduate degree (MSc, MA, MPhil)",35,1,Against,For
53,1658935835833,27/07/2022 15:30:35,1658935832764,1,27/07/2022 16:30:32,94050,2,task-mn1e,NA,23334659,6847614,NA,complete,NA,62e15993c08a0bfff2d8eb9a,mobile,Apple iPhone,iOS 15.5,Mobile Safari 15.5,390x844,750x307,NA,ITT Ratings,3,For,4,NA,NA,ACCEPT,NA,NA,NA,NA,NA,NA,NA,batch4hes,batch4hes,60,51,1,Screen 1,continueButton,response_rating_scale_likert_active,2154.0000000000146,NA,NA,Strongly Disagree,1,0,1,0,NA,NA,NA,NA,1,statements,"Why have the producers of the vaccine been exonerated from any form of liability arising from any effect/death as a result of taking the vaccine, if they're saying its safe and effective?",1,17/05/2021 11:08,17/05/2021 11:43,2086,Most days,Most days,28,Female,-99,"Postgraduate degree (MSc, MA, MPhil)",40,3,Against,Against
54,1658935836518,27/07/2022 15:30:36,1658935835015,1,27/07/2022 16:30:35,94050,2,task-mn1e,NA,23334659,6847614,NA,complete,NA,62e15993c08a0bfff2d8eb9a,mobile,Apple iPhone,iOS 15.5,Mobile Safari 15.5,390x844,750x307,NA,ITT Ratings,3,For,4,NA,NA,ACCEPT,NA,NA,NA,NA,NA,NA,NA,batch4hes,batch4hes,52,52,1,Screen 1,continueButton,response_rating_scale_likert_active,2232.9999999999854,NA,NA,Strongly Disagree,1,0,1,0,NA,NA,NA,NA,1,statements,Matt Hancock made an announcement on the 16th of May that people that have taken the two vaccine doses ''may still die'' as Indian variant spreads.,1,17/05/2021 11:35,17/05/2021 11:42,462,Most weeks,Most days,27,Female,-99,"Undergraduate degree (BSc, BA)",39,1,Against,Against
55,1658935836996,27/07/2022 15:30:36,1658935836699,1,27/07/2022 16:30:36,94050,2,task-mn1e,NA,23334659,6847614,NA,complete,NA,62e15993c08a0bfff2d8eb9a,mobile,Apple iPhone,iOS 15.5,Mobile Safari 15.5,390x844,750x307,NA,ITT Ratings,3,For,4,NA,NA,ACCEPT,NA,NA,NA,NA,NA,NA,NA,batch4hes,batch4hes,13,53,1,Screen 1,continueButton,response_rating_scale_likert_active,1666.9999999999854,NA,NA,Somewhat Agree,1,0,1,0,NA,NA,NA,NA,1,statements,Everyone is having it so it must be safe.,1,17/05/2021 11:15,17/05/2021 11:30,899,Most weeks,Most weeks,61,Male,-99,"Postgraduate degree (MSc, MA, MPhil)",32,1,Against,For
56,1658935838052,27/07/2022 15:30:38,1658935837699,1,27/07/2022 16:30:37,94050,2,task-mn1e,NA,23334659,6847614,NA,complete,NA,62e15993c08a0bfff2d8eb9a,mobile,Apple iPhone,iOS 15.5,Mobile Safari 15.5,390x844,750x307,NA,ITT Ratings,3,For,4,NA,NA,ACCEPT,NA,NA,NA,NA,NA,NA,NA,batch4hes,batch4hes,22,54,1,Screen 1,continueButton,response_rating_scale_likert_active,982,NA,NA,Strongly Disagree,1,0,1,0,NA,NA,NA,NA,1,statements,I do not know the side effects.,1,17/05/2021 11:28,17/05/2021 11:32,263,Most weeks,Rarely,58,Female,-99,GCSEs,34,1,Against,Against
57,1658935839362,27/07/2022 15:30:39,1658935838951,1,27/07/2022 16:30:38,94050,2,task-mn1e,NA,23334659,6847614,NA,complete,NA,62e15993c08a0bfff2d8eb9a,mobile,Apple iPhone,iOS 15.5,Mobile Safari 15.5,390x844,750x307,NA,ITT Ratings,3,For,4,NA,NA,ACCEPT,NA,NA,NA,NA,NA,NA,NA,batch4hes,batch4hes,62,55,1,Screen 1,continueButton,response_rating_scale_likert_active,1236,NA,NA,Somewhat Agree,1,0,1,0,NA,NA,NA,NA,1,statements,So we can go back to life before Covid.,1,17/05/2021 11:08,17/05/2021 11:43,2086,Most days,Most days,28,Female,-99,"Postgraduate degree (MSc, MA, MPhil)",40,2,Against,For
58,1658935841174,27/07/2022 15:30:41,1658935840719,1,27/07/2022 16:30:40,94050,2,task-mn1e,NA,23334659,6847614,NA,complete,NA,62e15993c08a0bfff2d8eb9a,mobile,Apple iPhone,iOS 15.5,Mobile Safari 15.5,390x844,750x307,NA,ITT Ratings,3,For,4,NA,NA,ACCEPT,NA,NA,NA,NA,NA,NA,NA,batch4hes,batch4hes,38,56,1,Screen 1,continueButton,response_rating_scale_likert_active,1751,NA,NA,Somewhat Agree,1,0,1,0,NA,NA,NA,NA,1,statements,I'd rather protect myself now and reduce the effects of the virus if I end up contracting it,1,17/05/2021 11:15,17/05/2021 11:34,1100,Rarely,Never,28,Female,-99,"Undergraduate degree (BSc, BA)",36,2,Against,For
59,1658935842131,27/07/2022 15:30:42,1658935842001,1,27/07/2022 16:30:42,94050,2,task-mn1e,NA,23334659,6847614,NA,complete,NA,62e15993c08a0bfff2d8eb9a,mobile,Apple iPhone,iOS 15.5,Mobile Safari 15.5,390x844,750x307,NA,ITT Ratings,3,For,4,NA,NA,ACCEPT,NA,NA,NA,NA,NA,NA,NA,batch4hes,batch4hes,34,57,1,Screen 1,continueButton,response_rating_scale_likert_active,1264,NA,NA,Strongly Disagree,1,0,1,0,NA,NA,NA,NA,1,statements,I don't trust the vaccine in terms of safety and its efficacy.,1,17/05/2021 11:15,17/05/2021 11:34,1100,Rarely,Never,28,Female,-99,"Undergraduate degree (BSc, BA)",36,1,Against,Against
60,1658935843605,27/07/2022 15:30:43,1658935843502,1,27/07/2022 16:30:43,94050,2,task-mn1e,NA,23334659,6847614,NA,complete,NA,62e15993c08a0bfff2d8eb9a,mobile,Apple iPhone,iOS 15.5,Mobile Safari 15.5,390x844,750x307,NA,ITT Ratings,3,For,4,NA,NA,ACCEPT,NA,NA,NA,NA,NA,NA,NA,batch4hes,batch4hes,42,58,1,Screen 1,continueButton,response_rating_scale_likert_active,1484.0000000000146,NA,NA,Strongly Disagree,1,0,1,0,NA,NA,NA,NA,1,statements,The vaccine is causing more damage to young people than the virus would,1,17/05/2021 11:31,17/05/2021 11:38,434,Most weeks,Most days,46,Female,-99,"Postgraduate degree (MSc, MA, MPhil)",37,3,Against,Against
61,1658935845517,27/07/2022 15:30:45,1658935845238,1,27/07/2022 16:30:45,94050,2,task-mn1e,NA,23334659,6847614,NA,complete,NA,62e15993c08a0bfff2d8eb9a,mobile,Apple iPhone,iOS 15.5,Mobile Safari 15.5,390x844,750x307,NA,ITT Ratings,3,For,4,NA,NA,ACCEPT,NA,NA,NA,NA,NA,NA,NA,batch4hes,batch4hes,20,59,1,Screen 1,continueButton,response_rating_scale_likert_active,1717.9999999999854,NA,NA,Somewhat Agree,1,0,1,0,NA,NA,NA,NA,1,statements,"if you don't care of yourself, please think about your grandmother, diabetic mother, high risked neighbour.",1,17/05/2021 10:14,17/05/2021 11:30,4578,Most weeks,A few times a year,30,Female,-99,Vocational Training / Apprenticeship,33,2,Against,For
62,1658935846509,27/07/2022 15:30:46,1658935846434,1,27/07/2022 16:30:46,94050,2,task-mn1e,NA,23334659,6847614,NA,complete,NA,62e15993c08a0bfff2d8eb9a,mobile,Apple iPhone,iOS 15.5,Mobile Safari 15.5,390x844,750x307,NA,ITT Ratings,3,For,4,NA,NA,ACCEPT,NA,NA,NA,NA,NA,NA,NA,batch4hes,batch4hes,9,60,1,Screen 1,continueButton,response_rating_scale_likert_active,1177,NA,NA,Somewhat Agree,1,0,1,0,NA,NA,NA,NA,1,statements,I just want to go on holiday,1,17/05/2021 11:20,17/05/2021 11:28,519,Most weeks,Most days,42,Female,-99,Doctorate (PhD),31,3,Against,For
63,1658935847729,27/07/2022 15:30:47,1658935847640,1,27/07/2022 16:30:47,94050,2,task-mn1e,NA,23334659,6847614,NA,complete,NA,62e15993c08a0bfff2d8eb9a,mobile,Apple iPhone,iOS 15.5,Mobile Safari 15.5,390x844,750x307,NA,ITT Ratings,3,For,4,NA,NA,ACCEPT,NA,NA,NA,NA,NA,NA,NA,batch4hes,batch4hes,15,61,1,Screen 1,continueButton,response_rating_scale_likert_active,1195.000000000029,NA,NA,Somewhat Agree,1,0,1,0,NA,NA,NA,NA,1,statements,I'm being told to have it for everybody's sake.,1,17/05/2021 11:15,17/05/2021 11:30,899,Most weeks,Most weeks,61,Male,-99,"Postgraduate degree (MSc, MA, MPhil)",32,3,Against,For
64,1658935850076,27/07/2022 15:30:50,1658935849759,1,27/07/2022 16:30:49,94050,2,task-mn1e,NA,23334659,6847614,NA,complete,NA,62e15993c08a0bfff2d8eb9a,mobile,Apple iPhone,iOS 15.5,Mobile Safari 15.5,390x844,750x307,NA,ITT Ratings,3,For,4,NA,NA,ACCEPT,NA,NA,NA,NA,NA,NA,NA,batch4hes,batch4hes,58,62,1,Screen 1,continueButton,response_rating_scale_likert_active,2103,NA,NA,Strongly Disagree,1,0,1,0,NA,NA,NA,NA,1,statements,It does not make sense to receive a vaccine for a virus that has over 95% recovery rate!,1,17/05/2021 11:08,17/05/2021 11:43,2086,Most days,Most days,28,Female,-99,"Postgraduate degree (MSc, MA, MPhil)",40,1,Against,Against
65,1658935850160,27/07/2022 15:30:50,1658935849765,1,27/07/2022 16:30:49,94050,2,task-mn1e,NA,23334659,6847614,NA,complete,NA,62e15993c08a0bfff2d8eb9a,mobile,Apple iPhone,iOS 15.5,Mobile Safari 15.5,390x844,750x307,NA,ITT Ratings,3,For,4,NA,NA,ACCEPT,NA,NA,NA,NA,NA,NA,NA,batch4hes,NA,NA,END TASK,NA,NA,NA,NA,124671,NA,NA,NA,NA,0,1,0,NA,NA,NA,NA,NA,NA,NA,NA,NA,NA,NA,NA,NA,NA,NA,NA,NA,NA,NA,NA,NA
1,1658935985075,27/07/2022 15:33:05,1658935985908,1,27/07/2022 16:33:05,94050,2,task-mn1e,NA,23334836,6847665,NA,complete,NA,62e15a870c5ed5ab9be59358,computer,Desktop or Laptop,Windows 10,Chrome 103.0.0.0,1366x768,1366x625,NA,ITT Ratings,3,For,4,NA,NA,ACCEPT,NA,NA,NA,NA,NA,NA,NA,batch4hes,NA,NA,BEGIN TASK,NA,NA,NA,NA,NA,NA,NA,NA,NA,0,1,0,NA,NA,NA,NA,NA,NA,NA,NA,NA,NA,NA,NA,NA,NA,NA,NA,NA,NA,NA,NA,NA
2,1658935989587,27/07/2022 15:33:09,1658935990475,1,27/07/2022 16:33:10,94050,2,task-mn1e,NA,23334836,6847665,NA,complete,NA,62e15a870c5ed5ab9be59358,computer,Desktop or Laptop,Windows 10,Chrome 103.0.0.0,1366x768,1366x625,NA,ITT Ratings,3,For,4,NA,NA,ACCEPT,NA,NA,NA,NA,NA,NA,NA,batch4hes,batch4hes,1,1,1,Screen 1,advancementZone,continue_button,4508.399999976158,NA,NA,NA,NA,0,1,0,NA,NA,NA,NA,NA,instructions,NA,NA,NA,NA,NA,NA,NA,NA,NA,NA,NA,NA,NA,NA,NA
3,1658935996826,27/07/2022 15:33:16,1658935997675,1,27/07/2022 16:33:17,94050,2,task-mn1e,NA,23334836,6847665,NA,complete,NA,62e15a870c5ed5ab9be59358,computer,Desktop or Laptop,Windows 10,Chrome 103.0.0.0,1366x768,1366x625,NA,ITT Ratings,3,For,4,NA,NA,ACCEPT,NA,NA,NA,NA,NA,NA,NA,batch4hes,batch4hes,53,1,1,Screen 1,continueButton,response_rating_scale_likert_active,7180.199999928474,NA,NA,Strongly Disagree,1,0,1,0,NA,NA,NA,NA,1,statements,Hundreds of reports of serious reactions to the vaccine and even deaths. It takes a few moment on google to discover these vaccines are not safe and do not even work according to Matt Hancock.,1,17/05/2021 11:35,17/05/2021 11:42,462,Most weeks,Most days,27,Female,-99,"Undergraduate degree (BSc, BA)",39,2,Against,Against
4,1658936015007,27/07/2022 15:33:35,1658936015912,1,27/07/2022 16:33:35,94050,2,task-mn1e,NA,23334836,6847665,NA,complete,NA,62e15a870c5ed5ab9be59358,computer,Desktop or Laptop,Windows 10,Chrome 103.0.0.0,1366x768,1366x625,NA,ITT Ratings,3,For,4,NA,NA,ACCEPT,NA,NA,NA,NA,NA,NA,NA,batch4hes,batch4hes,9,2,1,Screen 1,continueButton,response_rating_scale_likert_active,18209.299999952316,NA,NA,Strongly Agree,1,0,1,0,NA,NA,NA,NA,1,statements,I just want to go on holiday,1,17/05/2021 11:20,17/05/2021 11:28,519,Most weeks,Most days,42,Female,-99,Doctorate (PhD),31,3,Against,For
5,1658936018930,27/07/2022 15:33:38,1658936019848,1,27/07/2022 16:33:39,94050,2,task-mn1e,NA,23334836,6847665,NA,complete,NA,62e15a870c5ed5ab9be59358,computer,Desktop or Laptop,Windows 10,Chrome 103.0.0.0,1366x768,1366x625,NA,ITT Ratings,3,For,4,NA,NA,ACCEPT,NA,NA,NA,NA,NA,NA,NA,batch4hes,batch4hes,13,3,1,Screen 1,continueButton,response_rating_scale_likert_active,3925.5,NA,NA,Agree,1,0,1,0,NA,NA,NA,NA,1,statements,Everyone is having it so it must be safe.,1,17/05/2021 11:15,17/05/2021 11:30,899,Most weeks,Most weeks,61,Male,-99,"Postgraduate degree (MSc, MA, MPhil)",32,1,Against,For
6,1658936021156,27/07/2022 15:33:41,1658936022073,1,27/07/2022 16:33:42,94050,2,task-mn1e,NA,23334836,6847665,NA,complete,NA,62e15a870c5ed5ab9be59358,computer,Desktop or Laptop,Windows 10,Chrome 103.0.0.0,1366x768,1366x625,NA,ITT Ratings,3,For,4,NA,NA,ACCEPT,NA,NA,NA,NA,NA,NA,NA,batch4hes,batch4hes,20,4,1,Screen 1,continueButton,response_rating_scale_likert_active,2212.100000023842,NA,NA,Strongly Agree,1,0,1,0,NA,NA,NA,NA,1,statements,"if you don't care of yourself, please think about your grandmother, diabetic mother, high risked neighbour.",1,17/05/2021 10:14,17/05/2021 11:30,4578,Most weeks,A few times a year,30,Female,-99,Vocational Training / Apprenticeship,33,2,Against,For
7,1658936024108,27/07/2022 15:33:44,1658936025016,1,27/07/2022 16:33:45,94050,2,task-mn1e,NA,23334836,6847665,NA,complete,NA,62e15a870c5ed5ab9be59358,computer,Desktop or Laptop,Windows 10,Chrome 103.0.0.0,1366x768,1366x625,NA,ITT Ratings,3,For,4,NA,NA,ACCEPT,NA,NA,NA,NA,NA,NA,NA,batch4hes,batch4hes,22,5,1,Screen 1,continueButton,response_rating_scale_likert_active,2929.100000023842,NA,NA,Strongly Disagree,1,0,1,0,NA,NA,NA,NA,1,statements,I do not know the side effects.,1,17/05/2021 11:28,17/05/2021 11:32,263,Most weeks,Rarely,58,Female,-99,GCSEs,34,1,Against,Against
8,1658936029835,27/07/2022 15:33:49,1658936030737,1,27/07/2022 16:33:50,94050,2,task-mn1e,NA,23334836,6847665,NA,complete,NA,62e15a870c5ed5ab9be59358,computer,Desktop or Laptop,Windows 10,Chrome 103.0.0.0,1366x768,1366x625,NA,ITT Ratings,3,For,4,NA,NA,ACCEPT,NA,NA,NA,NA,NA,NA,NA,batch4hes,batch4hes,24,6,1,Screen 1,continueButton,response_rating_scale_likert_active,5707.299999952316,NA,NA,Neither Agree nor Disagree,1,0,1,0,NA,NA,NA,NA,1,statements,I have lived with someone with Covid and did not even get ill.,1,17/05/2021 11:28,17/05/2021 11:32,263,Most weeks,Rarely,58,Female,-99,GCSEs,34,3,Against,Against
9,1658936033551,27/07/2022 15:33:53,1658936034460,1,27/07/2022 16:33:54,94050,2,task-mn1e,NA,23334836,6847665,NA,complete,NA,62e15a870c5ed5ab9be59358,computer,Desktop or Laptop,Windows 10,Chrome 103.0.0.0,1366x768,1366x625,NA,ITT Ratings,3,For,4,NA,NA,ACCEPT,NA,NA,NA,NA,NA,NA,NA,batch4hes,batch4hes,31,7,1,Screen 1,continueButton,response_rating_scale_likert_active,3708.5,NA,NA,Somewhat Agree,1,0,1,0,NA,NA,NA,NA,1,statements,You will spread it without the vaccine,1,17/05/2021 11:26,17/05/2021 11:32,370,Most weeks,Most months,33,Female,-99,"Postgraduate degree (MSc, MA, MPhil)",35,1,Against,For
10,1658936040450,27/07/2022 15:34:00,1658936041360,1,27/07/2022 16:34:01,94050,2,task-mn1e,NA,23334836,6847665,NA,complete,NA,62e15a870c5ed5ab9be59358,computer,Desktop or Laptop,Windows 10,Chrome 103.0.0.0,1366x768,1366x625,NA,ITT Ratings,3,For,4,NA,NA,ACCEPT,NA,NA,NA,NA,NA,NA,NA,batch4hes,batch4hes,60,8,1,Screen 1,continueButton,response_rating_scale_likert_active,6886.600000023842,NA,NA,Strongly Disagree,1,0,1,0,NA,NA,NA,NA,1,statements,"Why have the producers of the vaccine been exonerated from any form of liability arising from any effect/death as a result of taking the vaccine, if they're saying its safe and effective?",1,17/05/2021 11:08,17/05/2021 11:43,2086,Most days,Most days,28,Female,-99,"Postgraduate degree (MSc, MA, MPhil)",40,3,Against,Against
11,1658936068226,27/07/2022 15:34:28,1658936069138,1,27/07/2022 16:34:29,94050,2,task-mn1e,NA,23334836,6847665,NA,complete,NA,62e15a870c5ed5ab9be59358,computer,Desktop or Laptop,Windows 10,Chrome 103.0.0.0,1366x768,1366x625,NA,ITT Ratings,3,For,4,NA,NA,ACCEPT,NA,NA,NA,NA,NA,NA,NA,batch4hes,batch4hes,30,9,1,Screen 1,continueButton,response_rating_scale_likert_active,27761.599999904633,NA,NA,Strongly Disagree,1,0,1,0,NA,NA,NA,NA,1,statements,The strand mutates and its pointless takin the risk,1,17/05/2021 11:26,17/05/2021 11:32,370,Most weeks,Most months,33,Female,-99,"Postgraduate degree (MSc, MA, MPhil)",35,3,Against,Against
12,1658936072257,27/07/2022 15:34:32,1658936073167,1,27/07/2022 16:34:33,94050,2,task-mn1e,NA,23334836,6847665,NA,complete,NA,62e15a870c5ed5ab9be59358,computer,Desktop or Laptop,Windows 10,Chrome 103.0.0.0,1366x768,1366x625,NA,ITT Ratings,3,For,4,NA,NA,ACCEPT,NA,NA,NA,NA,NA,NA,NA,batch4hes,batch4hes,35,10,1,Screen 1,continueButton,response_rating_scale_likert_active,4019,NA,NA,Strongly Disagree,1,0,1,0,NA,NA,NA,NA,1,statements,"I would rather risk it and employ herd immunity - 'if I catch covid, I catch it' type of mentality",1,17/05/2021 11:15,17/05/2021 11:34,1100,Rarely,Never,28,Female,-99,"Undergraduate degree (BSc, BA)",36,2,Against,Against
13,1658936078925,27/07/2022 15:34:38,1658936079833,1,27/07/2022 16:34:39,94050,2,task-mn1e,NA,23334836,6847665,NA,complete,NA,62e15a870c5ed5ab9be59358,computer,Desktop or Laptop,Windows 10,Chrome 103.0.0.0,1366x768,1366x625,NA,ITT Ratings,3,For,4,NA,NA,ACCEPT,NA,NA,NA,NA,NA,NA,NA,batch4hes,batch4hes,52,11,1,Screen 1,continueButton,response_rating_scale_likert_active,6653,NA,NA,Strongly Disagree,1,0,1,0,NA,NA,NA,NA,1,statements,Matt Hancock made an announcement on the 16th of May that people that have taken the two vaccine doses ''may still die'' as Indian variant spreads.,1,17/05/2021 11:35,17/05/2021 11:42,462,Most weeks,Most days,27,Female,-99,"Undergraduate degree (BSc, BA)",39,1,Against,Against
14,1658936086775,27/07/2022 15:34:46,1658936087686,1,27/07/2022 16:34:47,94050,2,task-mn1e,NA,23334836,6847665,NA,complete,NA,62e15a870c5ed5ab9be59358,computer,Desktop or Laptop,Windows 10,Chrome 103.0.0.0,1366x768,1366x625,NA,ITT Ratings,3,For,4,NA,NA,ACCEPT,NA,NA,NA,NA,NA,NA,NA,batch4hes,batch4hes,33,12,1,Screen 1,continueButton,response_rating_scale_likert_active,7841.299999952316,NA,NA,Strongly Disagree,1,0,1,0,NA,NA,NA,NA,1,statements,If you dont have the vaccine youll die,1,17/05/2021 11:26,17/05/2021 11:32,370,Most weeks,Most months,33,Female,-99,"Postgraduate degree (MSc, MA, MPhil)",35,3,Against,For
15,1658936091825,27/07/2022 15:34:51,1658936092731,1,27/07/2022 16:34:52,94050,2,task-mn1e,NA,23334836,6847665,NA,complete,NA,62e15a870c5ed5ab9be59358,computer,Desktop or Laptop,Windows 10,Chrome 103.0.0.0,1366x768,1366x625,NA,ITT Ratings,3,For,4,NA,NA,ACCEPT,NA,NA,NA,NA,NA,NA,NA,batch4hes,batch4hes,12,13,1,Screen 1,continueButton,response_rating_scale_likert_active,5032.399999976158,NA,NA,Strongly Disagree,1,0,1,0,NA,NA,NA,NA,1,statements,RNA vaccines aren't safe: In initial trials of the RNA technology resulted in the death of all the animals it was trialed on. This untested method of vaccination will likely damage human immune system,1,17/05/2021 11:15,17/05/2021 11:30,899,Most weeks,Most weeks,61,Male,-99,"Postgraduate degree (MSc, MA, MPhil)",32,3,Against,Against
16,1658936094394,27/07/2022 15:34:54,1658936095305,1,27/07/2022 16:34:55,94050,2,task-mn1e,NA,23334836,6847665,NA,complete,NA,62e15a870c5ed5ab9be59358,computer,Desktop or Laptop,Windows 10,Chrome 103.0.0.0,1366x768,1366x625,NA,ITT Ratings,3,For,4,NA,NA,ACCEPT,NA,NA,NA,NA,NA,NA,NA,batch4hes,batch4hes,14,14,1,Screen 1,continueButton,response_rating_scale_likert_active,2562.600000023842,NA,NA,Strongly Agree,1,0,1,0,NA,NA,NA,NA,1,statements,We need to beat this virus.,1,17/05/2021 11:15,17/05/2021 11:30,899,Most weeks,Most weeks,61,Male,-99,"Postgraduate degree (MSc, MA, MPhil)",32,2,Against,For
17,1658936106804,27/07/2022 15:35:06,1658936107710,1,27/07/2022 16:35:07,94050,2,task-mn1e,NA,23334836,6847665,NA,complete,NA,62e15a870c5ed5ab9be59358,computer,Desktop or Laptop,Windows 10,Chrome 103.0.0.0,1366x768,1366x625,NA,ITT Ratings,3,For,4,NA,NA,ACCEPT,NA,NA,NA,NA,NA,NA,NA,batch4hes,batch4hes,61,15,1,Screen 1,continueButton,response_rating_scale_likert_active,12391.799999952316,NA,NA,Neither Agree nor Disagree,1,0,1,0,NA,NA,NA,NA,1,statements,I want to protect myself and others. (which doesn't make sense because taking the vaccine will not prevent you from getting infected or infecting others),1,17/05/2021 11:08,17/05/2021 11:43,2086,Most days,Most days,28,Female,-99,"Postgraduate degree (MSc, MA, MPhil)",40,1,Against,For
18,1658936113036,27/07/2022 15:35:13,1658936113943,1,27/07/2022 16:35:13,94050,2,task-mn1e,NA,23334836,6847665,NA,complete,NA,62e15a870c5ed5ab9be59358,computer,Desktop or Laptop,Windows 10,Chrome 103.0.0.0,1366x768,1366x625,NA,ITT Ratings,3,For,4,NA,NA,ACCEPT,NA,NA,NA,NA,NA,NA,NA,batch4hes,batch4hes,55,16,1,Screen 1,continueButton,response_rating_scale_likert_active,6221.899999976158,NA,NA,Strongly Disagree,1,0,1,0,NA,NA,NA,NA,1,statements,It has gone through a fast track testing process to get it out into the public as soon as possible.,1,17/05/2021 11:35,17/05/2021 11:42,462,Most weeks,Most days,27,Female,-99,"Undergraduate degree (BSc, BA)",39,1,Against,For
19,1658936118022,27/07/2022 15:35:18,1658936118874,1,27/07/2022 16:35:18,94050,2,task-mn1e,NA,23334836,6847665,NA,complete,NA,62e15a870c5ed5ab9be59358,computer,Desktop or Laptop,Windows 10,Chrome 103.0.0.0,1366x768,1366x625,NA,ITT Ratings,3,For,4,NA,NA,ACCEPT,NA,NA,NA,NA,NA,NA,NA,batch4hes,batch4hes,46,17,1,Screen 1,continueButton,response_rating_scale_likert_active,4919.400000095367,NA,NA,Strongly Disagree,1,0,1,0,NA,NA,NA,NA,1,statements,"Millions of people around the world have NOT died OF covid, they would have died anyway but happened to have the bug in them as well which had ho effect on their health.",1,17/05/2021 11:32,17/05/2021 11:42,618,Never,Rarely,57,Male,-99,A levels,38,1,Against,Against
20,1658936119387,27/07/2022 15:35:19,1658936120290,1,27/07/2022 16:35:20,94050,2,task-mn1e,NA,23334836,6847665,NA,complete,NA,62e15a870c5ed5ab9be59358,computer,Desktop or Laptop,Windows 10,Chrome 103.0.0.0,1366x768,1366x625,NA,ITT Ratings,3,For,4,NA,NA,ACCEPT,NA,NA,NA,NA,NA,NA,NA,batch4hes,batch4hes,6,18,1,Screen 1,continueButton,response_rating_scale_likert_active,1403,NA,NA,Strongly Disagree,1,0,1,0,NA,NA,NA,NA,1,statements,"links to blood clots and herpes - shingles, coldsores etc",1,17/05/2021 11:20,17/05/2021 11:28,519,Most weeks,Most days,42,Female,-99,Doctorate (PhD),31,3,Against,Against
21,1658936121561,27/07/2022 15:35:21,1658936122473,1,27/07/2022 16:35:22,94050,2,task-mn1e,NA,23334836,6847665,NA,complete,NA,62e15a870c5ed5ab9be59358,computer,Desktop or Laptop,Windows 10,Chrome 103.0.0.0,1366x768,1366x625,NA,ITT Ratings,3,For,4,NA,NA,ACCEPT,NA,NA,NA,NA,NA,NA,NA,batch4hes,batch4hes,56,19,1,Screen 1,continueButton,response_rating_scale_likert_active,2170,NA,NA,Strongly Agree,1,0,1,0,NA,NA,NA,NA,1,statements,It has been approved by Scientists.,1,17/05/2021 11:35,17/05/2021 11:42,462,Most weeks,Most days,27,Female,-99,"Undergraduate degree (BSc, BA)",39,2,Against,For
22,1658936124410,27/07/2022 15:35:24,1658936125302,1,27/07/2022 16:35:25,94050,2,task-mn1e,NA,23334836,6847665,NA,complete,NA,62e15a870c5ed5ab9be59358,computer,Desktop or Laptop,Windows 10,Chrome 103.0.0.0,1366x768,1366x625,NA,ITT Ratings,3,For,4,NA,NA,ACCEPT,NA,NA,NA,NA,NA,NA,NA,batch4hes,batch4hes,11,20,1,Screen 1,continueButton,response_rating_scale_likert_active,2819.5,NA,NA,Strongly Disagree,1,0,1,0,NA,NA,NA,NA,1,statements,Not effective against this Coronavirus: Coronaviruses have been around for a very long time and we have never been able to produce an effective vaccine against them and yet suddenly we have eleven.,1,17/05/2021 11:15,17/05/2021 11:30,899,Most weeks,Most weeks,61,Male,-99,"Postgraduate degree (MSc, MA, MPhil)",32,2,Against,Against
23,1658936127412,27/07/2022 15:35:27,1658936128316,1,27/07/2022 16:35:28,94050,2,task-mn1e,NA,23334836,6847665,NA,complete,NA,62e15a870c5ed5ab9be59358,computer,Desktop or Laptop,Windows 10,Chrome 103.0.0.0,1366x768,1366x625,NA,ITT Ratings,3,For,4,NA,NA,ACCEPT,NA,NA,NA,NA,NA,NA,NA,batch4hes,batch4hes,29,21,1,Screen 1,continueButton,response_rating_scale_likert_active,3003.7999999523163,NA,NA,Strongly Disagree,1,0,1,0,NA,NA,NA,NA,1,statements,It has not been tested and we do not know the long term side effects from all the additives,1,17/05/2021 11:26,17/05/2021 11:32,370,Most weeks,Most months,33,Female,-99,"Postgraduate degree (MSc, MA, MPhil)",35,2,Against,Against
24,1658936132530,27/07/2022 15:35:32,1658936133432,1,27/07/2022 16:35:33,94050,2,task-mn1e,NA,23334836,6847665,NA,complete,NA,62e15a870c5ed5ab9be59358,computer,Desktop or Laptop,Windows 10,Chrome 103.0.0.0,1366x768,1366x625,NA,ITT Ratings,3,For,4,NA,NA,ACCEPT,NA,NA,NA,NA,NA,NA,NA,batch4hes,batch4hes,8,22,1,Screen 1,continueButton,response_rating_scale_likert_active,5104.400000095367,NA,NA,Neither Agree nor Disagree,1,0,1,0,NA,NA,NA,NA,1,statements,I trust the government and the scientists they chose to let us listen to,1,17/05/2021 11:20,17/05/2021 11:28,519,Most weeks,Most days,42,Female,-99,Doctorate (PhD),31,2,Against,For
25,1658936135474,27/07/2022 15:35:35,1658936136374,1,27/07/2022 16:35:36,94050,2,task-mn1e,NA,23334836,6847665,NA,complete,NA,62e15a870c5ed5ab9be59358,computer,Desktop or Laptop,Windows 10,Chrome 103.0.0.0,1366x768,1366x625,NA,ITT Ratings,3,For,4,NA,NA,ACCEPT,NA,NA,NA,NA,NA,NA,NA,batch4hes,batch4hes,17,23,1,Screen 1,continueButton,response_rating_scale_likert_active,2931.100000023842,NA,NA,Strongly Disagree,1,0,1,0,NA,NA,NA,NA,1,statements,I can defeat this virus with my own antibodies. I am healthy enough to evercome it.,1,17/05/2021 10:14,17/05/2021 11:30,4578,Most weeks,A few times a year,30,Female,-99,Vocational Training / Apprenticeship,33,2,Against,Against
26,1658936138004,27/07/2022 15:35:38,1658936138906,1,27/07/2022 16:35:38,94050,2,task-mn1e,NA,23334836,6847665,NA,complete,NA,62e15a870c5ed5ab9be59358,computer,Desktop or Laptop,Windows 10,Chrome 103.0.0.0,1366x768,1366x625,NA,ITT Ratings,3,For,4,NA,NA,ACCEPT,NA,NA,NA,NA,NA,NA,NA,batch4hes,batch4hes,23,24,1,Screen 1,continueButton,response_rating_scale_likert_active,2521.900000095367,NA,NA,Strongly Disagree,1,0,1,0,NA,NA,NA,NA,1,statements,I have been okay up to now.,1,17/05/2021 11:28,17/05/2021 11:32,263,Most weeks,Rarely,58,Female,-99,GCSEs,34,2,Against,Against
27,1658936141488,27/07/2022 15:35:41,1658936142403,1,27/07/2022 16:35:42,94050,2,task-mn1e,NA,23334836,6847665,NA,complete,NA,62e15a870c5ed5ab9be59358,computer,Desktop or Laptop,Windows 10,Chrome 103.0.0.0,1366x768,1366x625,NA,ITT Ratings,3,For,4,NA,NA,ACCEPT,NA,NA,NA,NA,NA,NA,NA,batch4hes,batch4hes,3,25,1,Screen 1,continueButton,response_rating_scale_likert_active,3485.1999999284744,NA,NA,Somewhat Disagree,1,0,1,0,NA,NA,NA,NA,1,statements,We would like to check you are reading each argument carefully. Please select 'Somewhat Disagree' for this answer,1,NA,NA,NA,NA,NA,NA,NA,NA,NA,NA,check2,NA,NA
28,1658936145372,27/07/2022 15:35:45,1658936146288,1,27/07/2022 16:35:46,94050,2,task-mn1e,NA,23334836,6847665,NA,complete,NA,62e15a870c5ed5ab9be59358,computer,Desktop or Laptop,Windows 10,Chrome 103.0.0.0,1366x768,1366x625,NA,ITT Ratings,3,For,4,NA,NA,ACCEPT,NA,NA,NA,NA,NA,NA,NA,batch4hes,batch4hes,5,26,1,Screen 1,continueButton,response_rating_scale_likert_active,3870.399999976158,NA,NA,Strongly Disagree,1,0,1,0,NA,NA,NA,NA,1,statements,it is still in clinical trials,1,17/05/2021 11:20,17/05/2021 11:28,519,Most weeks,Most days,42,Female,-99,Doctorate (PhD),31,2,Against,Against
29,1658936149580,27/07/2022 15:35:49,1658936150492,1,27/07/2022 16:35:50,94050,2,task-mn1e,NA,23334836,6847665,NA,complete,NA,62e15a870c5ed5ab9be59358,computer,Desktop or Laptop,Windows 10,Chrome 103.0.0.0,1366x768,1366x625,NA,ITT Ratings,3,For,4,NA,NA,ACCEPT,NA,NA,NA,NA,NA,NA,NA,batch4hes,batch4hes,40,27,1,Screen 1,continueButton,response_rating_scale_likert_active,4191.300000071526,NA,NA,Strongly Disagree,1,0,1,0,NA,NA,NA,NA,1,statements,The virus can still be transmitted,1,17/05/2021 11:31,17/05/2021 11:38,434,Most weeks,Most days,46,Female,-99,"Postgraduate degree (MSc, MA, MPhil)",37,1,Against,Against
30,1658936151570,27/07/2022 15:35:51,1658936152482,1,27/07/2022 16:35:52,94050,2,task-mn1e,NA,23334836,6847665,NA,complete,NA,62e15a870c5ed5ab9be59358,computer,Desktop or Laptop,Windows 10,Chrome 103.0.0.0,1366x768,1366x625,NA,ITT Ratings,3,For,4,NA,NA,ACCEPT,NA,NA,NA,NA,NA,NA,NA,batch4hes,batch4hes,36,28,1,Screen 1,continueButton,response_rating_scale_likert_active,1978.6999999284744,NA,NA,Strongly Disagree,1,0,1,0,NA,NA,NA,NA,1,statements,I would prefer a more natural method of treating covid should I catch it,1,17/05/2021 11:15,17/05/2021 11:34,1100,Rarely,Never,28,Female,-99,"Undergraduate degree (BSc, BA)",36,3,Against,Against
31,1658936156363,27/07/2022 15:35:56,1658936157279,1,27/07/2022 16:35:57,94050,2,task-mn1e,NA,23334836,6847665,NA,complete,NA,62e15a870c5ed5ab9be59358,computer,Desktop or Laptop,Windows 10,Chrome 103.0.0.0,1366x768,1366x625,NA,ITT Ratings,3,For,4,NA,NA,ACCEPT,NA,NA,NA,NA,NA,NA,NA,batch4hes,batch4hes,21,29,1,Screen 1,continueButton,response_rating_scale_likert_active,4786.699999928474,NA,NA,Strongly Agree,1,0,1,0,NA,NA,NA,NA,1,statements,vaccine is the only one way to arrive world beautiful without Covide-19.,1,17/05/2021 10:14,17/05/2021 11:30,4578,Most weeks,A few times a year,30,Female,-99,Vocational Training / Apprenticeship,33,3,Against,For
32,1658936160855,27/07/2022 15:36:00,1658936161770,1,27/07/2022 16:36:01,94050,2,task-mn1e,NA,23334836,6847665,NA,complete,NA,62e15a870c5ed5ab9be59358,computer,Desktop or Laptop,Windows 10,Chrome 103.0.0.0,1366x768,1366x625,NA,ITT Ratings,3,For,4,NA,NA,ACCEPT,NA,NA,NA,NA,NA,NA,NA,batch4hes,batch4hes,45,30,1,Screen 1,continueButton,response_rating_scale_likert_active,4480.799999952316,NA,NA,Neither Agree nor Disagree,1,0,1,0,NA,NA,NA,NA,1,statements,The government told me to,1,17/05/2021 11:31,17/05/2021 11:38,434,Most weeks,Most days,46,Female,-99,"Postgraduate degree (MSc, MA, MPhil)",37,3,Against,For
33,1658936166287,27/07/2022 15:36:06,1658936167204,1,27/07/2022 16:36:07,94050,2,task-mn1e,NA,23334836,6847665,NA,complete,NA,62e15a870c5ed5ab9be59358,computer,Desktop or Laptop,Windows 10,Chrome 103.0.0.0,1366x768,1366x625,NA,ITT Ratings,3,For,4,NA,NA,ACCEPT,NA,NA,NA,NA,NA,NA,NA,batch4hes,batch4hes,48,31,1,Screen 1,continueButton,response_rating_scale_likert_active,5424.5,NA,NA,Somewhat Disagree,1,0,1,0,NA,NA,NA,NA,1,statements,Vaccines take up to a decade to be safely trialled - this one has had around 9 months so there is no way all possible issues have been addressed.,1,17/05/2021 11:32,17/05/2021 11:42,618,Never,Rarely,57,Male,-99,A levels,38,3,Against,Against
34,1658936170254,27/07/2022 15:36:10,1658936171172,1,27/07/2022 16:36:11,94050,2,task-mn1e,NA,23334836,6847665,NA,complete,NA,62e15a870c5ed5ab9be59358,computer,Desktop or Laptop,Windows 10,Chrome 103.0.0.0,1366x768,1366x625,NA,ITT Ratings,3,For,4,NA,NA,ACCEPT,NA,NA,NA,NA,NA,NA,NA,batch4hes,batch4hes,7,32,1,Screen 1,continueButton,response_rating_scale_likert_active,3957.100000023842,NA,NA,Strongly Disagree,1,0,1,0,NA,NA,NA,NA,1,statements,I am an ill person and don't look after my body,1,17/05/2021 11:20,17/05/2021 11:28,519,Most weeks,Most days,42,Female,-99,Doctorate (PhD),31,1,Against,For
35,1658936177781,27/07/2022 15:36:17,1658936178687,1,27/07/2022 16:36:18,94050,2,task-mn1e,NA,23334836,6847665,NA,complete,NA,62e15a870c5ed5ab9be59358,computer,Desktop or Laptop,Windows 10,Chrome 103.0.0.0,1366x768,1366x625,NA,ITT Ratings,3,For,4,NA,NA,ACCEPT,NA,NA,NA,NA,NA,NA,NA,batch4hes,batch4hes,28,33,1,Screen 1,continueButton,response_rating_scale_likert_active,7504.799999952316,NA,NA,Strongly Disagree,1,0,1,0,NA,NA,NA,NA,1,statements,The vaccine can make you ill with part of the virus where you were otherwise immune anyway,1,17/05/2021 11:26,17/05/2021 11:32,370,Most weeks,Most months,33,Female,-99,"Postgraduate degree (MSc, MA, MPhil)",35,1,Against,Against
36,1658936190537,27/07/2022 15:36:30,1658936191393,1,27/07/2022 16:36:31,94050,2,task-mn1e,NA,23334836,6847665,NA,complete,NA,62e15a870c5ed5ab9be59358,computer,Desktop or Laptop,Windows 10,Chrome 103.0.0.0,1366x768,1366x625,NA,ITT Ratings,3,For,4,NA,NA,ACCEPT,NA,NA,NA,NA,NA,NA,NA,batch4hes,batch4hes,18,34,1,Screen 1,continueButton,response_rating_scale_likert_active,12694.799999952316,NA,NA,Strongly Disagree,1,0,1,0,NA,NA,NA,NA,1,statements,"I don't trust anyone, It is created for people genocide.",1,17/05/2021 10:14,17/05/2021 11:30,4578,Most weeks,A few times a year,30,Female,-99,Vocational Training / Apprenticeship,33,3,Against,Against
37,1658936193529,27/07/2022 15:36:33,1658936194428,1,27/07/2022 16:36:34,94050,2,task-mn1e,NA,23334836,6847665,NA,complete,NA,62e15a870c5ed5ab9be59358,computer,Desktop or Laptop,Windows 10,Chrome 103.0.0.0,1366x768,1366x625,NA,ITT Ratings,3,For,4,NA,NA,ACCEPT,NA,NA,NA,NA,NA,NA,NA,batch4hes,batch4hes,2,35,1,Screen 1,continueButton,response_rating_scale_likert_active,3022.3000000715256,NA,NA,Somewhat Agree,1,0,1,0,NA,NA,NA,NA,1,statements,We would like to check you are reading each argument carefully. Please select 'Somewhat Agree' for this answer,1,NA,NA,NA,NA,NA,NA,NA,NA,NA,NA,check1,NA,NA
38,1658936199973,27/07/2022 15:36:39,1658936200878,1,27/07/2022 16:36:40,94050,2,task-mn1e,NA,23334836,6847665,NA,complete,NA,62e15a870c5ed5ab9be59358,computer,Desktop or Laptop,Windows 10,Chrome 103.0.0.0,1366x768,1366x625,NA,ITT Ratings,3,For,4,NA,NA,ACCEPT,NA,NA,NA,NA,NA,NA,NA,batch4hes,batch4hes,47,36,1,Screen 1,continueButton,response_rating_scale_likert_active,6439.200000047684,NA,NA,Strongly Disagree,1,0,1,0,NA,NA,NA,NA,1,statements,No two adults have had the vaccine then created a baby that has then been born without any issues - there simply has not been enough time so it is impossible to say if that baby would be ok.,1,17/05/2021 11:32,17/05/2021 11:42,618,Never,Rarely,57,Male,-99,A levels,38,2,Against,Against
39,1658936205332,27/07/2022 15:36:45,1658936206240,1,27/07/2022 16:36:46,94050,2,task-mn1e,NA,23334836,6847665,NA,complete,NA,62e15a870c5ed5ab9be59358,computer,Desktop or Laptop,Windows 10,Chrome 103.0.0.0,1366x768,1366x625,NA,ITT Ratings,3,For,4,NA,NA,ACCEPT,NA,NA,NA,NA,NA,NA,NA,batch4hes,batch4hes,59,37,1,Screen 1,continueButton,response_rating_scale_likert_active,5351.399999976158,NA,NA,Strongly Disagree,1,0,1,0,NA,NA,NA,NA,1,statements,"Instead of vaccines, drugs should be developed to help cure people who fall sick from Covid.",1,17/05/2021 11:08,17/05/2021 11:43,2086,Most days,Most days,28,Female,-99,"Postgraduate degree (MSc, MA, MPhil)",40,2,Against,Against
40,1658936211352,27/07/2022 15:36:51,1658936212259,1,27/07/2022 16:36:52,94050,2,task-mn1e,NA,23334836,6847665,NA,complete,NA,62e15a870c5ed5ab9be59358,computer,Desktop or Laptop,Windows 10,Chrome 103.0.0.0,1366x768,1366x625,NA,ITT Ratings,3,For,4,NA,NA,ACCEPT,NA,NA,NA,NA,NA,NA,NA,batch4hes,batch4hes,32,38,1,Screen 1,continueButton,response_rating_scale_likert_active,6006.800000071526,NA,NA,Agree,1,0,1,0,NA,NA,NA,NA,1,statements,Everyone should have the vaccine or thety shouldnt be allowed out in public,1,17/05/2021 11:26,17/05/2021 11:32,370,Most weeks,Most months,33,Female,-99,"Postgraduate degree (MSc, MA, MPhil)",35,2,Against,For
41,1658936211650,27/07/2022 15:36:51,1658936212556,1,27/07/2022 16:36:52,94050,2,task-mn1e,NA,23334836,6847665,NA,complete,NA,62e15a870c5ed5ab9be59358,computer,Desktop or Laptop,Windows 10,Chrome 103.0.0.0,1366x768,1366x625,NA,ITT Ratings,3,For,4,NA,NA,ACCEPT,NA,NA,NA,NA,NA,NA,NA,batch4hes,batch4hes,34,39,1,Screen 1,continueButton,response_rating_scale_likert_active,285.6999999284744,NA,NA,Agree,1,0,1,0,NA,NA,NA,NA,1,statements,I don't trust the vaccine in terms of safety and its efficacy.,1,17/05/2021 11:15,17/05/2021 11:34,1100,Rarely,Never,28,Female,-99,"Undergraduate degree (BSc, BA)",36,1,Against,Against
42,1658936214654,27/07/2022 15:36:54,1658936215560,1,27/07/2022 16:36:55,94050,2,task-mn1e,NA,23334836,6847665,NA,complete,NA,62e15a870c5ed5ab9be59358,computer,Desktop or Laptop,Windows 10,Chrome 103.0.0.0,1366x768,1366x625,NA,ITT Ratings,3,For,4,NA,NA,ACCEPT,NA,NA,NA,NA,NA,NA,NA,batch4hes,batch4hes,41,40,1,Screen 1,continueButton,response_rating_scale_likert_active,2994.5,NA,NA,Strongly Disagree,1,0,1,0,NA,NA,NA,NA,1,statements,It isnt a vaccine.  It doesnt stop you catching the virus,1,17/05/2021 11:31,17/05/2021 11:38,434,Most weeks,Most days,46,Female,-99,"Postgraduate degree (MSc, MA, MPhil)",37,2,Against,Against
43,1658936217653,27/07/2022 15:36:57,1658936218555,1,27/07/2022 16:36:58,94050,2,task-mn1e,NA,23334836,6847665,NA,complete,NA,62e15a870c5ed5ab9be59358,computer,Desktop or Laptop,Windows 10,Chrome 103.0.0.0,1366x768,1366x625,NA,ITT Ratings,3,For,4,NA,NA,ACCEPT,NA,NA,NA,NA,NA,NA,NA,batch4hes,batch4hes,19,41,1,Screen 1,continueButton,response_rating_scale_likert_active,2984,NA,NA,Strongly Agree,1,0,1,0,NA,NA,NA,NA,1,statements,It is for your safety.,1,17/05/2021 10:14,17/05/2021 11:30,4578,Most weeks,A few times a year,30,Female,-99,Vocational Training / Apprenticeship,33,1,Against,For
44,1658936220076,27/07/2022 15:37:00,1658936220985,1,27/07/2022 16:37:00,94050,2,task-mn1e,NA,23334836,6847665,NA,complete,NA,62e15a870c5ed5ab9be59358,computer,Desktop or Laptop,Windows 10,Chrome 103.0.0.0,1366x768,1366x625,NA,ITT Ratings,3,For,4,NA,NA,ACCEPT,NA,NA,NA,NA,NA,NA,NA,batch4hes,batch4hes,25,42,1,Screen 1,continueButton,response_rating_scale_likert_active,2421,NA,NA,Agree,1,0,1,0,NA,NA,NA,NA,1,statements,I trust that the vaccine is safe.,1,17/05/2021 11:28,17/05/2021 11:32,263,Most weeks,Rarely,58,Female,-99,GCSEs,34,1,Against,For
45,1658936223930,27/07/2022 15:37:03,1658936224840,1,27/07/2022 16:37:04,94050,2,task-mn1e,NA,23334836,6847665,NA,complete,NA,62e15a870c5ed5ab9be59358,computer,Desktop or Laptop,Windows 10,Chrome 103.0.0.0,1366x768,1366x625,NA,ITT Ratings,3,For,4,NA,NA,ACCEPT,NA,NA,NA,NA,NA,NA,NA,batch4hes,batch4hes,39,43,1,Screen 1,continueButton,response_rating_scale_likert_active,3845.399999976158,NA,NA,Strongly Agree,1,0,1,0,NA,NA,NA,NA,1,statements,"I've been vaccinated against everything else, why should the covid vaccine be any different?",1,17/05/2021 11:15,17/05/2021 11:34,1100,Rarely,Never,28,Female,-99,"Undergraduate degree (BSc, BA)",36,3,Against,For
46,1658936226275,27/07/2022 15:37:06,1658936227178,1,27/07/2022 16:37:07,94050,2,task-mn1e,NA,23334836,6847665,NA,complete,NA,62e15a870c5ed5ab9be59358,computer,Desktop or Laptop,Windows 10,Chrome 103.0.0.0,1366x768,1366x625,NA,ITT Ratings,3,For,4,NA,NA,ACCEPT,NA,NA,NA,NA,NA,NA,NA,batch4hes,batch4hes,16,44,1,Screen 1,continueButton,response_rating_scale_likert_active,2326.899999976158,NA,NA,Strongly Disagree,1,0,1,0,NA,NA,NA,NA,1,statements,"Covide-19 vaccine is not safe enough and I don't know how does it work in long term,",1,17/05/2021 10:14,17/05/2021 11:30,4578,Most weeks,A few times a year,30,Female,-99,Vocational Training / Apprenticeship,33,1,Against,Against
47,1658936228310,27/07/2022 15:37:08,1658936229219,1,27/07/2022 16:37:09,94050,2,task-mn1e,NA,23334836,6847665,NA,complete,NA,62e15a870c5ed5ab9be59358,computer,Desktop or Laptop,Windows 10,Chrome 103.0.0.0,1366x768,1366x625,NA,ITT Ratings,3,For,4,NA,NA,ACCEPT,NA,NA,NA,NA,NA,NA,NA,batch4hes,batch4hes,51,45,1,Screen 1,continueButton,response_rating_scale_likert_active,2030.100000023842,NA,NA,Neither Agree nor Disagree,1,0,1,0,NA,NA,NA,NA,1,statements,The governement says I have to.,1,17/05/2021 11:32,17/05/2021 11:42,618,Never,Rarely,57,Male,-99,A levels,38,3,Against,For
48,1658936233589,27/07/2022 15:37:13,1658936234490,1,27/07/2022 16:37:14,94050,2,task-mn1e,NA,23334836,6847665,NA,complete,NA,62e15a870c5ed5ab9be59358,computer,Desktop or Laptop,Windows 10,Chrome 103.0.0.0,1366x768,1366x625,NA,ITT Ratings,3,For,4,NA,NA,ACCEPT,NA,NA,NA,NA,NA,NA,NA,batch4hes,batch4hes,37,46,1,Screen 1,continueButton,response_rating_scale_likert_active,5257.399999976158,NA,NA,Strongly Agree,1,0,1,0,NA,NA,NA,NA,1,statements,Getting the vaccine will protect me and others and play a key part in curbing the pandemic,1,17/05/2021 11:15,17/05/2021 11:34,1100,Rarely,Never,28,Female,-99,"Undergraduate degree (BSc, BA)",36,1,Against,For
49,1658936235017,27/07/2022 15:37:15,1658936235925,1,27/07/2022 16:37:15,94050,2,task-mn1e,NA,23334836,6847665,NA,complete,NA,62e15a870c5ed5ab9be59358,computer,Desktop or Laptop,Windows 10,Chrome 103.0.0.0,1366x768,1366x625,NA,ITT Ratings,3,For,4,NA,NA,ACCEPT,NA,NA,NA,NA,NA,NA,NA,batch4hes,batch4hes,27,47,1,Screen 1,continueButton,response_rating_scale_likert_active,1424.8000000715256,NA,NA,Strongly Agree,1,0,1,0,NA,NA,NA,NA,1,statements,I am looking out for other people by having it.,1,17/05/2021 11:28,17/05/2021 11:32,263,Most weeks,Rarely,58,Female,-99,GCSEs,34,3,Against,For
50,1658936244009,27/07/2022 15:37:24,1658936244918,1,27/07/2022 16:37:24,94050,2,task-mn1e,NA,23334836,6847665,NA,complete,NA,62e15a870c5ed5ab9be59358,computer,Desktop or Laptop,Windows 10,Chrome 103.0.0.0,1366x768,1366x625,NA,ITT Ratings,3,For,4,NA,NA,ACCEPT,NA,NA,NA,NA,NA,NA,NA,batch4hes,batch4hes,10,48,1,Screen 1,continueButton,response_rating_scale_likert_active,8981.600000023842,NA,NA,Disagree,1,0,1,0,NA,NA,NA,NA,1,statements,Overly quick development period: It was developed to rapidly and it is unknown if there will be any long term issues with it.,1,17/05/2021 11:15,17/05/2021 11:30,899,Most weeks,Most weeks,61,Male,-99,"Postgraduate degree (MSc, MA, MPhil)",32,1,Against,Against
51,1658936247918,27/07/2022 15:37:27,1658936248783,1,27/07/2022 16:37:28,94050,2,task-mn1e,NA,23334836,6847665,NA,complete,NA,62e15a870c5ed5ab9be59358,computer,Desktop or Laptop,Windows 10,Chrome 103.0.0.0,1366x768,1366x625,NA,ITT Ratings,3,For,4,NA,NA,ACCEPT,NA,NA,NA,NA,NA,NA,NA,batch4hes,batch4hes,26,49,1,Screen 1,continueButton,response_rating_scale_likert_active,3853.599999904633,NA,NA,Agree,1,0,1,0,NA,NA,NA,NA,1,statements,We will never get back to normal if every single person does not have it.,1,17/05/2021 11:28,17/05/2021 11:32,263,Most weeks,Rarely,58,Female,-99,GCSEs,34,2,Against,For
52,1658936251936,27/07/2022 15:37:31,1658936252844,1,27/07/2022 16:37:32,94050,2,task-mn1e,NA,23334836,6847665,NA,complete,NA,62e15a870c5ed5ab9be59358,computer,Desktop or Laptop,Windows 10,Chrome 103.0.0.0,1366x768,1366x625,NA,ITT Ratings,3,For,4,NA,NA,ACCEPT,NA,NA,NA,NA,NA,NA,NA,batch4hes,batch4hes,58,50,1,Screen 1,continueButton,response_rating_scale_likert_active,4050.600000023842,NA,NA,Strongly Disagree,1,0,1,0,NA,NA,NA,NA,1,statements,It does not make sense to receive a vaccine for a virus that has over 95% recovery rate!,1,17/05/2021 11:08,17/05/2021 11:43,2086,Most days,Most days,28,Female,-99,"Postgraduate degree (MSc, MA, MPhil)",40,1,Against,Against
53,1658936254632,27/07/2022 15:37:34,1658936255540,1,27/07/2022 16:37:35,94050,2,task-mn1e,NA,23334836,6847665,NA,complete,NA,62e15a870c5ed5ab9be59358,computer,Desktop or Laptop,Windows 10,Chrome 103.0.0.0,1366x768,1366x625,NA,ITT Ratings,3,For,4,NA,NA,ACCEPT,NA,NA,NA,NA,NA,NA,NA,batch4hes,batch4hes,63,51,1,Screen 1,continueButton,response_rating_scale_likert_active,2686.8000000715256,NA,NA,Agree,1,0,1,0,NA,NA,NA,NA,1,statements,I just want to be able to travel,1,17/05/2021 11:08,17/05/2021 11:43,2086,Most days,Most days,28,Female,-99,"Postgraduate degree (MSc, MA, MPhil)",40,3,Against,For
54,1658936257099,27/07/2022 15:37:37,1658936257970,1,27/07/2022 16:37:37,94050,2,task-mn1e,NA,23334836,6847665,NA,complete,NA,62e15a870c5ed5ab9be59358,computer,Desktop or Laptop,Windows 10,Chrome 103.0.0.0,1366x768,1366x625,NA,ITT Ratings,3,For,4,NA,NA,ACCEPT,NA,NA,NA,NA,NA,NA,NA,batch4hes,batch4hes,50,52,1,Screen 1,continueButton,response_rating_scale_likert_active,2417.099999904633,NA,NA,Agree,1,0,1,0,NA,NA,NA,NA,1,statements,I don't want to die.,1,17/05/2021 11:32,17/05/2021 11:42,618,Never,Rarely,57,Male,-99,A levels,38,2,Against,For
55,1658936259059,27/07/2022 15:37:39,1658936259968,1,27/07/2022 16:37:39,94050,2,task-mn1e,NA,23334836,6847665,NA,complete,NA,62e15a870c5ed5ab9be59358,computer,Desktop or Laptop,Windows 10,Chrome 103.0.0.0,1366x768,1366x625,NA,ITT Ratings,3,For,4,NA,NA,ACCEPT,NA,NA,NA,NA,NA,NA,NA,batch4hes,batch4hes,15,53,1,Screen 1,continueButton,response_rating_scale_likert_active,1988.100000023842,NA,NA,Strongly Agree,1,0,1,0,NA,NA,NA,NA,1,statements,I'm being told to have it for everybody's sake.,1,17/05/2021 11:15,17/05/2021 11:30,899,Most weeks,Most weeks,61,Male,-99,"Postgraduate degree (MSc, MA, MPhil)",32,3,Against,For
56,1658936261931,27/07/2022 15:37:41,1658936262840,1,27/07/2022 16:37:42,94050,2,task-mn1e,NA,23334836,6847665,NA,complete,NA,62e15a870c5ed5ab9be59358,computer,Desktop or Laptop,Windows 10,Chrome 103.0.0.0,1366x768,1366x625,NA,ITT Ratings,3,For,4,NA,NA,ACCEPT,NA,NA,NA,NA,NA,NA,NA,batch4hes,batch4hes,42,54,1,Screen 1,continueButton,response_rating_scale_likert_active,2858.399999976158,NA,NA,Strongly Disagree,1,0,1,0,NA,NA,NA,NA,1,statements,The vaccine is causing more damage to young people than the virus would,1,17/05/2021 11:31,17/05/2021 11:38,434,Most weeks,Most days,46,Female,-99,"Postgraduate degree (MSc, MA, MPhil)",37,3,Against,Against
57,1658936270382,27/07/2022 15:37:50,1658936271279,1,27/07/2022 16:37:51,94050,2,task-mn1e,NA,23334836,6847665,NA,complete,NA,62e15a870c5ed5ab9be59358,computer,Desktop or Laptop,Windows 10,Chrome 103.0.0.0,1366x768,1366x625,NA,ITT Ratings,3,For,4,NA,NA,ACCEPT,NA,NA,NA,NA,NA,NA,NA,batch4hes,batch4hes,43,55,1,Screen 1,continueButton,response_rating_scale_likert_active,8427.199999928474,NA,NA,Neither Agree nor Disagree,1,0,1,0,NA,NA,NA,NA,1,statements,Im selfish as it only protects me,1,17/05/2021 11:31,17/05/2021 11:38,434,Most weeks,Most days,46,Female,-99,"Postgraduate degree (MSc, MA, MPhil)",37,1,Against,For
58,1658936274736,27/07/2022 15:37:54,1658936275646,1,27/07/2022 16:37:55,94050,2,task-mn1e,NA,23334836,6847665,NA,complete,NA,62e15a870c5ed5ab9be59358,computer,Desktop or Laptop,Windows 10,Chrome 103.0.0.0,1366x768,1366x625,NA,ITT Ratings,3,For,4,NA,NA,ACCEPT,NA,NA,NA,NA,NA,NA,NA,batch4hes,batch4hes,38,56,1,Screen 1,continueButton,response_rating_scale_likert_active,4355.699999928474,NA,NA,Strongly Agree,1,0,1,0,NA,NA,NA,NA,1,statements,I'd rather protect myself now and reduce the effects of the virus if I end up contracting it,1,17/05/2021 11:15,17/05/2021 11:34,1100,Rarely,Never,28,Female,-99,"Undergraduate degree (BSc, BA)",36,2,Against,For
59,1658936276108,27/07/2022 15:37:56,1658936277010,1,27/07/2022 16:37:57,94050,2,task-mn1e,NA,23334836,6847665,NA,complete,NA,62e15a870c5ed5ab9be59358,computer,Desktop or Laptop,Windows 10,Chrome 103.0.0.0,1366x768,1366x625,NA,ITT Ratings,3,For,4,NA,NA,ACCEPT,NA,NA,NA,NA,NA,NA,NA,batch4hes,batch4hes,49,57,1,Screen 1,continueButton,response_rating_scale_likert_active,1353.7000000476835,NA,NA,Strongly Agree,1,0,1,0,NA,NA,NA,NA,1,statements,I don't want to become really ill.,1,17/05/2021 11:32,17/05/2021 11:42,618,Never,Rarely,57,Male,-99,A levels,38,1,Against,For
60,1658936278632,27/07/2022 15:37:58,1658936279532,1,27/07/2022 16:37:59,94050,2,task-mn1e,NA,23334836,6847665,NA,complete,NA,62e15a870c5ed5ab9be59358,computer,Desktop or Laptop,Windows 10,Chrome 103.0.0.0,1366x768,1366x625,NA,ITT Ratings,3,For,4,NA,NA,ACCEPT,NA,NA,NA,NA,NA,NA,NA,batch4hes,batch4hes,4,58,1,Screen 1,continueButton,response_rating_scale_likert_active,2512.399999976158,NA,NA,Strongly Disagree,1,0,1,0,NA,NA,NA,NA,1,statements,"it's not a vaccine, it is an experimental RNA jab",1,17/05/2021 11:20,17/05/2021 11:28,519,Most weeks,Most days,42,Female,-99,Doctorate (PhD),31,1,Against,Against
61,1658936282908,27/07/2022 15:38:02,1658936283808,1,27/07/2022 16:38:03,94050,2,task-mn1e,NA,23334836,6847665,NA,complete,NA,62e15a870c5ed5ab9be59358,computer,Desktop or Laptop,Windows 10,Chrome 103.0.0.0,1366x768,1366x625,NA,ITT Ratings,3,For,4,NA,NA,ACCEPT,NA,NA,NA,NA,NA,NA,NA,batch4hes,batch4hes,54,59,1,Screen 1,continueButton,response_rating_scale_likert_active,4265.100000023842,NA,NA,Strongly Disagree,1,0,1,0,NA,NA,NA,NA,1,statements,"I am young, fit and healthy. I do not want to inject anything into my body that even the government are not sure about. Mixed messages from the government daily. New variants etc.",1,17/05/2021 11:35,17/05/2021 11:42,462,Most weeks,Most days,27,Female,-99,"Undergraduate degree (BSc, BA)",39,3,Against,Against
62,1658936286159,27/07/2022 15:38:06,1658936287068,1,27/07/2022 16:38:07,94050,2,task-mn1e,NA,23334836,6847665,NA,complete,NA,62e15a870c5ed5ab9be59358,computer,Desktop or Laptop,Windows 10,Chrome 103.0.0.0,1366x768,1366x625,NA,ITT Ratings,3,For,4,NA,NA,ACCEPT,NA,NA,NA,NA,NA,NA,NA,batch4hes,batch4hes,44,60,1,Screen 1,continueButton,response_rating_scale_likert_active,3248.400000095367,NA,NA,Strongly Agree,1,0,1,0,NA,NA,NA,NA,1,statements,I donÕt want to be sick,1,17/05/2021 11:31,17/05/2021 11:38,434,Most weeks,Most days,46,Female,-99,"Postgraduate degree (MSc, MA, MPhil)",37,2,Against,For
63,1658936288138,27/07/2022 15:38:08,1658936289046,1,27/07/2022 16:38:09,94050,2,task-mn1e,NA,23334836,6847665,NA,complete,NA,62e15a870c5ed5ab9be59358,computer,Desktop or Laptop,Windows 10,Chrome 103.0.0.0,1366x768,1366x625,NA,ITT Ratings,3,For,4,NA,NA,ACCEPT,NA,NA,NA,NA,NA,NA,NA,batch4hes,batch4hes,57,61,1,Screen 1,continueButton,response_rating_scale_likert_active,1970.399999976158,NA,NA,Strongly Agree,1,0,1,0,NA,NA,NA,NA,1,statements,I want to increase my chances of a fast recovery if I catch Covid.,1,17/05/2021 11:35,17/05/2021 11:42,462,Most weeks,Most days,27,Female,-99,"Undergraduate degree (BSc, BA)",39,3,Against,For
64,1658936290032,27/07/2022 15:38:10,1658936290943,1,27/07/2022 16:38:10,94050,2,task-mn1e,NA,23334836,6847665,NA,complete,NA,62e15a870c5ed5ab9be59358,computer,Desktop or Laptop,Windows 10,Chrome 103.0.0.0,1366x768,1366x625,NA,ITT Ratings,3,For,4,NA,NA,ACCEPT,NA,NA,NA,NA,NA,NA,NA,batch4hes,batch4hes,62,62,1,Screen 1,continueButton,response_rating_scale_likert_active,1888.5,NA,NA,Strongly Agree,1,0,1,0,NA,NA,NA,NA,1,statements,So we can go back to life before Covid.,1,17/05/2021 11:08,17/05/2021 11:43,2086,Most days,Most days,28,Female,-99,"Postgraduate degree (MSc, MA, MPhil)",40,2,Against,For
65,1658936290076,27/07/2022 15:38:10,1658936290947,1,27/07/2022 16:38:10,94050,2,task-mn1e,NA,23334836,6847665,NA,complete,NA,62e15a870c5ed5ab9be59358,computer,Desktop or Laptop,Windows 10,Chrome 103.0.0.0,1366x768,1366x625,NA,ITT Ratings,3,For,4,NA,NA,ACCEPT,NA,NA,NA,NA,NA,NA,NA,batch4hes,NA,NA,END TASK,NA,NA,NA,NA,305040,NA,NA,NA,NA,0,1,0,NA,NA,NA,NA,NA,NA,NA,NA,NA,NA,NA,NA,NA,NA,NA,NA,NA,NA,NA,NA,NA
1,1658936440254,27/07/2022 15:40:40,1658936440138,1,27/07/2022 16:40:40,94050,2,task-mn1e,NA,23335041,6847737,NA,complete,NA,62e15c5ae086bf0b0f425b7e,computer,Desktop or Laptop,Mac OS 10.15.7,Chrome 103.0.0.0,1440x900,1440x712,NA,ITT Ratings,3,For,4,NA,NA,ACCEPT,NA,NA,NA,NA,NA,NA,NA,batch4hes,NA,NA,BEGIN TASK,NA,NA,NA,NA,NA,NA,NA,NA,NA,0,1,0,NA,NA,NA,NA,NA,NA,NA,NA,NA,NA,NA,NA,NA,NA,NA,NA,NA,NA,NA,NA,NA
2,1658936447195,27/07/2022 15:40:47,1658936447129,1,27/07/2022 16:40:47,94050,2,task-mn1e,NA,23335041,6847737,NA,complete,NA,62e15c5ae086bf0b0f425b7e,computer,Desktop or Laptop,Mac OS 10.15.7,Chrome 103.0.0.0,1440x900,1440x712,NA,ITT Ratings,3,For,4,NA,NA,ACCEPT,NA,NA,NA,NA,NA,NA,NA,batch4hes,batch4hes,1,1,1,Screen 1,advancementZone,continue_button,6945.899999976158,NA,NA,NA,NA,0,1,0,NA,NA,NA,NA,NA,instructions,NA,NA,NA,NA,NA,NA,NA,NA,NA,NA,NA,NA,NA,NA,NA
3,1658936456616,27/07/2022 15:40:56,1658936456553,1,27/07/2022 16:40:56,94050,2,task-mn1e,NA,23335041,6847737,NA,complete,NA,62e15c5ae086bf0b0f425b7e,computer,Desktop or Laptop,Mac OS 10.15.7,Chrome 103.0.0.0,1440x900,1440x712,NA,ITT Ratings,3,For,4,NA,NA,ACCEPT,NA,NA,NA,NA,NA,NA,NA,batch4hes,batch4hes,48,1,1,Screen 1,continueButton,response_rating_scale_likert_active,9409.799999952316,NA,NA,Disagree,1,0,1,0,NA,NA,NA,NA,1,statements,Vaccines take up to a decade to be safely trialled - this one has had around 9 months so there is no way all possible issues have been addressed.,1,17/05/2021 11:32,17/05/2021 11:42,618,Never,Rarely,57,Male,-99,A levels,38,3,Against,Against
4,1658936469628,27/07/2022 15:41:09,1658936469568,1,27/07/2022 16:41:09,94050,2,task-mn1e,NA,23335041,6847737,NA,complete,NA,62e15c5ae086bf0b0f425b7e,computer,Desktop or Laptop,Mac OS 10.15.7,Chrome 103.0.0.0,1440x900,1440x712,NA,ITT Ratings,3,For,4,NA,NA,ACCEPT,NA,NA,NA,NA,NA,NA,NA,batch4hes,batch4hes,53,2,1,Screen 1,continueButton,response_rating_scale_likert_active,12982.200000047684,NA,NA,Strongly Disagree,1,0,1,0,NA,NA,NA,NA,1,statements,Hundreds of reports of serious reactions to the vaccine and even deaths. It takes a few moment on google to discover these vaccines are not safe and do not even work according to Matt Hancock.,1,17/05/2021 11:35,17/05/2021 11:42,462,Most weeks,Most days,27,Female,-99,"Undergraduate degree (BSc, BA)",39,2,Against,Against
5,1658936474844,27/07/2022 15:41:14,1658936474793,1,27/07/2022 16:41:14,94050,2,task-mn1e,NA,23335041,6847737,NA,complete,NA,62e15c5ae086bf0b0f425b7e,computer,Desktop or Laptop,Mac OS 10.15.7,Chrome 103.0.0.0,1440x900,1440x712,NA,ITT Ratings,3,For,4,NA,NA,ACCEPT,NA,NA,NA,NA,NA,NA,NA,batch4hes,batch4hes,59,3,1,Screen 1,continueButton,response_rating_scale_likert_active,5207.300000071526,NA,NA,Somewhat Disagree,1,0,1,0,NA,NA,NA,NA,1,statements,"Instead of vaccines, drugs should be developed to help cure people who fall sick from Covid.",1,17/05/2021 11:08,17/05/2021 11:43,2086,Most days,Most days,28,Female,-99,"Postgraduate degree (MSc, MA, MPhil)",40,2,Against,Against
6,1658936478415,27/07/2022 15:41:18,1658936478364,1,27/07/2022 16:41:18,94050,2,task-mn1e,NA,23335041,6847737,NA,complete,NA,62e15c5ae086bf0b0f425b7e,computer,Desktop or Laptop,Mac OS 10.15.7,Chrome 103.0.0.0,1440x900,1440x712,NA,ITT Ratings,3,For,4,NA,NA,ACCEPT,NA,NA,NA,NA,NA,NA,NA,batch4hes,batch4hes,18,4,1,Screen 1,continueButton,response_rating_scale_likert_active,3554.5,NA,NA,Strongly Disagree,1,0,1,0,NA,NA,NA,NA,1,statements,"I don't trust anyone, It is created for people genocide.",1,17/05/2021 10:14,17/05/2021 11:30,4578,Most weeks,A few times a year,30,Female,-99,Vocational Training / Apprenticeship,33,3,Against,Against
7,1658936481286,27/07/2022 15:41:21,1658936481232,1,27/07/2022 16:41:21,94050,2,task-mn1e,NA,23335041,6847737,NA,complete,NA,62e15c5ae086bf0b0f425b7e,computer,Desktop or Laptop,Mac OS 10.15.7,Chrome 103.0.0.0,1440x900,1440x712,NA,ITT Ratings,3,For,4,NA,NA,ACCEPT,NA,NA,NA,NA,NA,NA,NA,batch4hes,batch4hes,56,5,1,Screen 1,continueButton,response_rating_scale_likert_active,2851.2999999523163,NA,NA,Agree,1,0,1,0,NA,NA,NA,NA,1,statements,It has been approved by Scientists.,1,17/05/2021 11:35,17/05/2021 11:42,462,Most weeks,Most days,27,Female,-99,"Undergraduate degree (BSc, BA)",39,2,Against,For
8,1658936513194,27/07/2022 15:41:53,1658936513142,1,27/07/2022 16:41:53,94050,2,task-mn1e,NA,23335041,6847737,NA,complete,NA,62e15c5ae086bf0b0f425b7e,computer,Desktop or Laptop,Mac OS 10.15.7,Chrome 103.0.0.0,1440x900,1440x712,NA,ITT Ratings,3,For,4,NA,NA,ACCEPT,NA,NA,NA,NA,NA,NA,NA,batch4hes,batch4hes,20,6,1,Screen 1,continueButton,response_rating_scale_likert_active,31892.5,NA,NA,Somewhat Agree,1,0,1,0,NA,NA,NA,NA,1,statements,"if you don't care of yourself, please think about your grandmother, diabetic mother, high risked neighbour.",1,17/05/2021 10:14,17/05/2021 11:30,4578,Most weeks,A few times a year,30,Female,-99,Vocational Training / Apprenticeship,33,2,Against,For
9,1658936520641,27/07/2022 15:42:00,1658936520592,1,27/07/2022 16:42:00,94050,2,task-mn1e,NA,23335041,6847737,NA,complete,NA,62e15c5ae086bf0b0f425b7e,computer,Desktop or Laptop,Mac OS 10.15.7,Chrome 103.0.0.0,1440x900,1440x712,NA,ITT Ratings,3,For,4,NA,NA,ACCEPT,NA,NA,NA,NA,NA,NA,NA,batch4hes,batch4hes,21,7,1,Screen 1,continueButton,response_rating_scale_likert_active,7434.199999928474,NA,NA,Neither Agree nor Disagree,1,0,1,0,NA,NA,NA,NA,1,statements,vaccine is the only one way to arrive world beautiful without Covide-19.,1,17/05/2021 10:14,17/05/2021 11:30,4578,Most weeks,A few times a year,30,Female,-99,Vocational Training / Apprenticeship,33,3,Against,For
10,1658936524455,27/07/2022 15:42:04,1658936524400,1,27/07/2022 16:42:04,94050,2,task-mn1e,NA,23335041,6847737,NA,complete,NA,62e15c5ae086bf0b0f425b7e,computer,Desktop or Laptop,Mac OS 10.15.7,Chrome 103.0.0.0,1440x900,1440x712,NA,ITT Ratings,3,For,4,NA,NA,ACCEPT,NA,NA,NA,NA,NA,NA,NA,batch4hes,batch4hes,15,8,1,Screen 1,continueButton,response_rating_scale_likert_active,3792,NA,NA,Somewhat Agree,1,0,1,0,NA,NA,NA,NA,1,statements,I'm being told to have it for everybody's sake.,1,17/05/2021 11:15,17/05/2021 11:30,899,Most weeks,Most weeks,61,Male,-99,"Postgraduate degree (MSc, MA, MPhil)",32,3,Against,For
11,1658936529054,27/07/2022 15:42:09,1658936529009,1,27/07/2022 16:42:09,94050,2,task-mn1e,NA,23335041,6847737,NA,complete,NA,62e15c5ae086bf0b0f425b7e,computer,Desktop or Laptop,Mac OS 10.15.7,Chrome 103.0.0.0,1440x900,1440x712,NA,ITT Ratings,3,For,4,NA,NA,ACCEPT,NA,NA,NA,NA,NA,NA,NA,batch4hes,batch4hes,38,9,1,Screen 1,continueButton,response_rating_scale_likert_active,4591.100000023842,NA,NA,Strongly Agree,1,0,1,0,NA,NA,NA,NA,1,statements,I'd rather protect myself now and reduce the effects of the virus if I end up contracting it,1,17/05/2021 11:15,17/05/2021 11:34,1100,Rarely,Never,28,Female,-99,"Undergraduate degree (BSc, BA)",36,2,Against,For
12,1658936531285,27/07/2022 15:42:11,1658936531230,1,27/07/2022 16:42:11,94050,2,task-mn1e,NA,23335041,6847737,NA,complete,NA,62e15c5ae086bf0b0f425b7e,computer,Desktop or Laptop,Mac OS 10.15.7,Chrome 103.0.0.0,1440x900,1440x712,NA,ITT Ratings,3,For,4,NA,NA,ACCEPT,NA,NA,NA,NA,NA,NA,NA,batch4hes,batch4hes,23,10,1,Screen 1,continueButton,response_rating_scale_likert_active,2205,NA,NA,Neither Agree nor Disagree,1,0,1,0,NA,NA,NA,NA,1,statements,I have been okay up to now.,1,17/05/2021 11:28,17/05/2021 11:32,263,Most weeks,Rarely,58,Female,-99,GCSEs,34,2,Against,Against
13,1658936539743,27/07/2022 15:42:19,1658936539685,1,27/07/2022 16:42:19,94050,2,task-mn1e,NA,23335041,6847737,NA,complete,NA,62e15c5ae086bf0b0f425b7e,computer,Desktop or Laptop,Mac OS 10.15.7,Chrome 103.0.0.0,1440x900,1440x712,NA,ITT Ratings,3,For,4,NA,NA,ACCEPT,NA,NA,NA,NA,NA,NA,NA,batch4hes,batch4hes,47,11,1,Screen 1,continueButton,response_rating_scale_likert_active,8439,NA,NA,Strongly Disagree,1,0,1,0,NA,NA,NA,NA,1,statements,No two adults have had the vaccine then created a baby that has then been born without any issues - there simply has not been enough time so it is impossible to say if that baby would be ok.,1,17/05/2021 11:32,17/05/2021 11:42,618,Never,Rarely,57,Male,-99,A levels,38,2,Against,Against
14,1658936541895,27/07/2022 15:42:21,1658936541841,1,27/07/2022 16:42:21,94050,2,task-mn1e,NA,23335041,6847737,NA,complete,NA,62e15c5ae086bf0b0f425b7e,computer,Desktop or Laptop,Mac OS 10.15.7,Chrome 103.0.0.0,1440x900,1440x712,NA,ITT Ratings,3,For,4,NA,NA,ACCEPT,NA,NA,NA,NA,NA,NA,NA,batch4hes,batch4hes,19,12,1,Screen 1,continueButton,response_rating_scale_likert_active,2139.8000000715256,NA,NA,Strongly Agree,1,0,1,0,NA,NA,NA,NA,1,statements,It is for your safety.,1,17/05/2021 10:14,17/05/2021 11:30,4578,Most weeks,A few times a year,30,Female,-99,Vocational Training / Apprenticeship,33,1,Against,For
15,1658936546062,27/07/2022 15:42:26,1658936546006,1,27/07/2022 16:42:26,94050,2,task-mn1e,NA,23335041,6847737,NA,complete,NA,62e15c5ae086bf0b0f425b7e,computer,Desktop or Laptop,Mac OS 10.15.7,Chrome 103.0.0.0,1440x900,1440x712,NA,ITT Ratings,3,For,4,NA,NA,ACCEPT,NA,NA,NA,NA,NA,NA,NA,batch4hes,batch4hes,8,13,1,Screen 1,continueButton,response_rating_scale_likert_active,4148.200000047684,NA,NA,Somewhat Agree,1,0,1,0,NA,NA,NA,NA,1,statements,I trust the government and the scientists they chose to let us listen to,1,17/05/2021 11:20,17/05/2021 11:28,519,Most weeks,Most days,42,Female,-99,Doctorate (PhD),31,2,Against,For
16,1658936550684,27/07/2022 15:42:30,1658936550635,1,27/07/2022 16:42:30,94050,2,task-mn1e,NA,23335041,6847737,NA,complete,NA,62e15c5ae086bf0b0f425b7e,computer,Desktop or Laptop,Mac OS 10.15.7,Chrome 103.0.0.0,1440x900,1440x712,NA,ITT Ratings,3,For,4,NA,NA,ACCEPT,NA,NA,NA,NA,NA,NA,NA,batch4hes,batch4hes,28,14,1,Screen 1,continueButton,response_rating_scale_likert_active,4614,NA,NA,Neither Agree nor Disagree,1,0,1,0,NA,NA,NA,NA,1,statements,The vaccine can make you ill with part of the virus where you were otherwise immune anyway,1,17/05/2021 11:26,17/05/2021 11:32,370,Most weeks,Most months,33,Female,-99,"Postgraduate degree (MSc, MA, MPhil)",35,1,Against,Against
17,1658936556139,27/07/2022 15:42:36,1658936556085,1,27/07/2022 16:42:36,94050,2,task-mn1e,NA,23335041,6847737,NA,complete,NA,62e15c5ae086bf0b0f425b7e,computer,Desktop or Laptop,Mac OS 10.15.7,Chrome 103.0.0.0,1440x900,1440x712,NA,ITT Ratings,3,For,4,NA,NA,ACCEPT,NA,NA,NA,NA,NA,NA,NA,batch4hes,batch4hes,17,15,1,Screen 1,continueButton,response_rating_scale_likert_active,5434.400000095367,NA,NA,Disagree,1,0,1,0,NA,NA,NA,NA,1,statements,I can defeat this virus with my own antibodies. I am healthy enough to evercome it.,1,17/05/2021 10:14,17/05/2021 11:30,4578,Most weeks,A few times a year,30,Female,-99,Vocational Training / Apprenticeship,33,2,Against,Against
18,1658936558667,27/07/2022 15:42:38,1658936558613,1,27/07/2022 16:42:38,94050,2,task-mn1e,NA,23335041,6847737,NA,complete,NA,62e15c5ae086bf0b0f425b7e,computer,Desktop or Laptop,Mac OS 10.15.7,Chrome 103.0.0.0,1440x900,1440x712,NA,ITT Ratings,3,For,4,NA,NA,ACCEPT,NA,NA,NA,NA,NA,NA,NA,batch4hes,batch4hes,63,16,1,Screen 1,continueButton,response_rating_scale_likert_active,2513.5,NA,NA,Somewhat Agree,1,0,1,0,NA,NA,NA,NA,1,statements,I just want to be able to travel,1,17/05/2021 11:08,17/05/2021 11:43,2086,Most days,Most days,28,Female,-99,"Postgraduate degree (MSc, MA, MPhil)",40,3,Against,For
19,1658936562106,27/07/2022 15:42:42,1658936562052,1,27/07/2022 16:42:42,94050,2,task-mn1e,NA,23335041,6847737,NA,complete,NA,62e15c5ae086bf0b0f425b7e,computer,Desktop or Laptop,Mac OS 10.15.7,Chrome 103.0.0.0,1440x900,1440x712,NA,ITT Ratings,3,For,4,NA,NA,ACCEPT,NA,NA,NA,NA,NA,NA,NA,batch4hes,batch4hes,57,17,1,Screen 1,continueButton,response_rating_scale_likert_active,3425.2999999523163,NA,NA,Agree,1,0,1,0,NA,NA,NA,NA,1,statements,I want to increase my chances of a fast recovery if I catch Covid.,1,17/05/2021 11:35,17/05/2021 11:42,462,Most weeks,Most days,27,Female,-99,"Undergraduate degree (BSc, BA)",39,3,Against,For
20,1658936572741,27/07/2022 15:42:52,1658936572688,1,27/07/2022 16:42:52,94050,2,task-mn1e,NA,23335041,6847737,NA,complete,NA,62e15c5ae086bf0b0f425b7e,computer,Desktop or Laptop,Mac OS 10.15.7,Chrome 103.0.0.0,1440x900,1440x712,NA,ITT Ratings,3,For,4,NA,NA,ACCEPT,NA,NA,NA,NA,NA,NA,NA,batch4hes,batch4hes,32,18,1,Screen 1,continueButton,response_rating_scale_likert_active,10621.899999976158,NA,NA,Disagree,1,0,1,0,NA,NA,NA,NA,1,statements,Everyone should have the vaccine or thety shouldnt be allowed out in public,1,17/05/2021 11:26,17/05/2021 11:32,370,Most weeks,Most months,33,Female,-99,"Postgraduate degree (MSc, MA, MPhil)",35,2,Against,For
21,1658936607900,27/07/2022 15:43:27,1658936607852,1,27/07/2022 16:43:27,94050,2,task-mn1e,NA,23335041,6847737,NA,complete,NA,62e15c5ae086bf0b0f425b7e,computer,Desktop or Laptop,Mac OS 10.15.7,Chrome 103.0.0.0,1440x900,1440x712,NA,ITT Ratings,3,For,4,NA,NA,ACCEPT,NA,NA,NA,NA,NA,NA,NA,batch4hes,batch4hes,34,19,1,Screen 1,continueButton,response_rating_scale_likert_active,35149.5,NA,NA,Strongly Disagree,1,0,1,0,NA,NA,NA,NA,1,statements,I don't trust the vaccine in terms of safety and its efficacy.,1,17/05/2021 11:15,17/05/2021 11:34,1100,Rarely,Never,28,Female,-99,"Undergraduate degree (BSc, BA)",36,1,Against,Against
22,1658936610511,27/07/2022 15:43:30,1658936610454,1,27/07/2022 16:43:30,94050,2,task-mn1e,NA,23335041,6847737,NA,complete,NA,62e15c5ae086bf0b0f425b7e,computer,Desktop or Laptop,Mac OS 10.15.7,Chrome 103.0.0.0,1440x900,1440x712,NA,ITT Ratings,3,For,4,NA,NA,ACCEPT,NA,NA,NA,NA,NA,NA,NA,batch4hes,batch4hes,6,20,1,Screen 1,continueButton,response_rating_scale_likert_active,2594,NA,NA,Neither Agree nor Disagree,1,0,1,0,NA,NA,NA,NA,1,statements,"links to blood clots and herpes - shingles, coldsores etc",1,17/05/2021 11:20,17/05/2021 11:28,519,Most weeks,Most days,42,Female,-99,Doctorate (PhD),31,3,Against,Against
23,1658936616868,27/07/2022 15:43:36,1658936616809,1,27/07/2022 16:43:36,94050,2,task-mn1e,NA,23335041,6847737,NA,complete,NA,62e15c5ae086bf0b0f425b7e,computer,Desktop or Laptop,Mac OS 10.15.7,Chrome 103.0.0.0,1440x900,1440x712,NA,ITT Ratings,3,For,4,NA,NA,ACCEPT,NA,NA,NA,NA,NA,NA,NA,batch4hes,batch4hes,37,21,1,Screen 1,continueButton,response_rating_scale_likert_active,6339.200000047684,NA,NA,Strongly Agree,1,0,1,0,NA,NA,NA,NA,1,statements,Getting the vaccine will protect me and others and play a key part in curbing the pandemic,1,17/05/2021 11:15,17/05/2021 11:34,1100,Rarely,Never,28,Female,-99,"Undergraduate degree (BSc, BA)",36,1,Against,For
24,1658936619015,27/07/2022 15:43:39,1658936618965,1,27/07/2022 16:43:38,94050,2,task-mn1e,NA,23335041,6847737,NA,complete,NA,62e15c5ae086bf0b0f425b7e,computer,Desktop or Laptop,Mac OS 10.15.7,Chrome 103.0.0.0,1440x900,1440x712,NA,ITT Ratings,3,For,4,NA,NA,ACCEPT,NA,NA,NA,NA,NA,NA,NA,batch4hes,batch4hes,25,22,1,Screen 1,continueButton,response_rating_scale_likert_active,2142.900000095367,NA,NA,Agree,1,0,1,0,NA,NA,NA,NA,1,statements,I trust that the vaccine is safe.,1,17/05/2021 11:28,17/05/2021 11:32,263,Most weeks,Rarely,58,Female,-99,GCSEs,34,1,Against,For
25,1658936622102,27/07/2022 15:43:42,1658936622046,1,27/07/2022 16:43:42,94050,2,task-mn1e,NA,23335041,6847737,NA,complete,NA,62e15c5ae086bf0b0f425b7e,computer,Desktop or Laptop,Mac OS 10.15.7,Chrome 103.0.0.0,1440x900,1440x712,NA,ITT Ratings,3,For,4,NA,NA,ACCEPT,NA,NA,NA,NA,NA,NA,NA,batch4hes,batch4hes,51,23,1,Screen 1,continueButton,response_rating_scale_likert_active,3065.2999999523163,NA,NA,Disagree,1,0,1,0,NA,NA,NA,NA,1,statements,The governement says I have to.,1,17/05/2021 11:32,17/05/2021 11:42,618,Never,Rarely,57,Male,-99,A levels,38,3,Against,For
26,1658936624236,27/07/2022 15:43:44,1658936624178,1,27/07/2022 16:43:44,94050,2,task-mn1e,NA,23335041,6847737,NA,complete,NA,62e15c5ae086bf0b0f425b7e,computer,Desktop or Laptop,Mac OS 10.15.7,Chrome 103.0.0.0,1440x900,1440x712,NA,ITT Ratings,3,For,4,NA,NA,ACCEPT,NA,NA,NA,NA,NA,NA,NA,batch4hes,batch4hes,50,24,1,Screen 1,continueButton,response_rating_scale_likert_active,2115.899999976158,NA,NA,Strongly Agree,1,0,1,0,NA,NA,NA,NA,1,statements,I don't want to die.,1,17/05/2021 11:32,17/05/2021 11:42,618,Never,Rarely,57,Male,-99,A levels,38,2,Against,For
27,1658936628456,27/07/2022 15:43:48,1658936628397,1,27/07/2022 16:43:48,94050,2,task-mn1e,NA,23335041,6847737,NA,complete,NA,62e15c5ae086bf0b0f425b7e,computer,Desktop or Laptop,Mac OS 10.15.7,Chrome 103.0.0.0,1440x900,1440x712,NA,ITT Ratings,3,For,4,NA,NA,ACCEPT,NA,NA,NA,NA,NA,NA,NA,batch4hes,batch4hes,24,25,1,Screen 1,continueButton,response_rating_scale_likert_active,4204.899999976158,NA,NA,Agree,1,0,1,0,NA,NA,NA,NA,1,statements,I have lived with someone with Covid and did not even get ill.,1,17/05/2021 11:28,17/05/2021 11:32,263,Most weeks,Rarely,58,Female,-99,GCSEs,34,3,Against,Against
28,1658936631833,27/07/2022 15:43:51,1658936631784,1,27/07/2022 16:43:51,94050,2,task-mn1e,NA,23335041,6847737,NA,complete,NA,62e15c5ae086bf0b0f425b7e,computer,Desktop or Laptop,Mac OS 10.15.7,Chrome 103.0.0.0,1440x900,1440x712,NA,ITT Ratings,3,For,4,NA,NA,ACCEPT,NA,NA,NA,NA,NA,NA,NA,batch4hes,batch4hes,43,26,1,Screen 1,continueButton,response_rating_scale_likert_active,3373.899999976158,NA,NA,Strongly Disagree,1,0,1,0,NA,NA,NA,NA,1,statements,Im selfish as it only protects me,1,17/05/2021 11:31,17/05/2021 11:38,434,Most weeks,Most days,46,Female,-99,"Postgraduate degree (MSc, MA, MPhil)",37,1,Against,For
29,1658936637554,27/07/2022 15:43:57,1658936637493,1,27/07/2022 16:43:57,94050,2,task-mn1e,NA,23335041,6847737,NA,complete,NA,62e15c5ae086bf0b0f425b7e,computer,Desktop or Laptop,Mac OS 10.15.7,Chrome 103.0.0.0,1440x900,1440x712,NA,ITT Ratings,3,For,4,NA,NA,ACCEPT,NA,NA,NA,NA,NA,NA,NA,batch4hes,batch4hes,22,27,1,Screen 1,continueButton,response_rating_scale_likert_active,5694,NA,NA,Somewhat Disagree,1,0,1,0,NA,NA,NA,NA,1,statements,I do not know the side effects.,1,17/05/2021 11:28,17/05/2021 11:32,263,Most weeks,Rarely,58,Female,-99,GCSEs,34,1,Against,Against
