Event.Index,UTC.Timestamp,UTC.Date,Local.Timestamp,Local.Timezone,Local.Date,Experiment.ID,Experiment.Version,Tree.Node.Key,Repeat.Key,Schedule.ID,Participant.Private.ID,Participant.Starting.Group,Participant.Status,Participant.Completion.Code,Participant.External.Session.ID,Participant.Device.Type,Participant.Device,Participant.OS,Participant.Browser,Participant.Monitor.Size,Participant.Viewport.Size,Checkpoint,Task.Name,Task.Version,branch.69an,randomiser.8vg2,quota.bqtt,quota.rycs,quota.wtfi,quota.usve,quota.zgic,quota.f3yz,quota.r9vy,quota.tfqq,quota.3dga,quota.dtj6,Spreadsheet,Spreadsheet.Name,Spreadsheet.Row,Trial.Number,Screen.Number,Screen.Name,Zone.Name,Zone.Type,Reaction.Time,Reaction.Onset,Response.Type,Response,Attempt,Correct,Incorrect,Dishonest,X.Coordinate,Y.Coordinate,Timed.Out,randomise_blocks,randomise_trials,display,Arguments,ShowProgressBar,StartDate,EndDate,Duration,discuss_1,read_1,age,gender,gender_4_TEXT,edu,ID,arg_ID,Position,Arg_Position
1,1658936029278,27/07/2022 15:33:49,1658936029211,1,27/07/2022 16:33:49,94050,2,task-xidh,NA,23334851,6847675,NA,complete,NA,62e15ac70c5ed5ab9be59362,computer,Desktop or Laptop,Mac OS 10.15.7,Chrome 103.0.0.0,1920x1080,1920x969,NA,ITT Ratings,3,For,9,NA,NA,NA,NA,NA,NA,NA,ACCEPT,NA,NA,batch9hes,NA,NA,BEGIN TASK,NA,NA,NA,NA,NA,NA,NA,NA,NA,0,1,0,NA,NA,NA,NA,NA,NA,NA,NA,NA,NA,NA,NA,NA,NA,NA,NA,NA,NA,NA,NA,NA
2,1658936031951,27/07/2022 15:33:51,1658936031925,1,27/07/2022 16:33:51,94050,2,task-xidh,NA,23334851,6847675,NA,complete,NA,62e15ac70c5ed5ab9be59362,computer,Desktop or Laptop,Mac OS 10.15.7,Chrome 103.0.0.0,1920x1080,1920x969,NA,ITT Ratings,3,For,9,NA,NA,NA,NA,NA,NA,NA,ACCEPT,NA,NA,batch9hes,batch9hes,1,1,1,Screen 1,advancementZone,continue_button,2685.4000000059605,NA,NA,NA,NA,0,1,0,NA,NA,NA,NA,NA,instructions,NA,NA,NA,NA,NA,NA,NA,NA,NA,NA,NA,NA,NA,NA,NA
3,1658936038927,27/07/2022 15:33:58,1658936038909,1,27/07/2022 16:33:58,94050,2,task-xidh,NA,23334851,6847675,NA,complete,NA,62e15ac70c5ed5ab9be59362,computer,Desktop or Laptop,Mac OS 10.15.7,Chrome 103.0.0.0,1920x1080,1920x969,NA,ITT Ratings,3,For,9,NA,NA,NA,NA,NA,NA,NA,ACCEPT,NA,NA,batch9hes,batch9hes,23,1,1,Screen 1,continueButton,response_rating_scale_likert_active,6973.70000000298,NA,NA,Disagree,1,0,1,0,NA,NA,NA,NA,1,statements,Rushed vaccine and pushed on people to have it,1,17/05/2021 12:56,17/05/2021 13:02,334,Rarely,Rarely,29,Female,-99,Vocational Training / Apprenticeship,84,2,Against,Against
4,1658936048652,27/07/2022 15:34:08,1658936048613,1,27/07/2022 16:34:08,94050,2,task-xidh,NA,23334851,6847675,NA,complete,NA,62e15ac70c5ed5ab9be59362,computer,Desktop or Laptop,Mac OS 10.15.7,Chrome 103.0.0.0,1920x1080,1920x969,NA,ITT Ratings,3,For,9,NA,NA,NA,NA,NA,NA,NA,ACCEPT,NA,NA,batch9hes,batch9hes,52,2,1,Screen 1,continueButton,response_rating_scale_likert_active,9694.59999999404,NA,NA,Strongly Disagree,1,0,1,0,NA,NA,NA,NA,1,statements,I do not believe in Covid 19,1,17/05/2021 12:55,17/05/2021 13:08,764,Most months,Most weeks,40,Female,-99,A levels,89,1,Against,Against
5,1658936053950,27/07/2022 15:34:13,1658936053924,1,27/07/2022 16:34:13,94050,2,task-xidh,NA,23334851,6847675,NA,complete,NA,62e15ac70c5ed5ab9be59362,computer,Desktop or Laptop,Mac OS 10.15.7,Chrome 103.0.0.0,1920x1080,1920x969,NA,ITT Ratings,3,For,9,NA,NA,NA,NA,NA,NA,NA,ACCEPT,NA,NA,batch9hes,batch9hes,15,3,1,Screen 1,continueButton,response_rating_scale_likert_active,5303.199999988079,NA,NA,Strongly Agree,1,0,1,0,NA,NA,NA,NA,1,statements,I want everything to go back to normal,1,17/05/2021 12:51,17/05/2021 12:58,428,Most weeks,Most months,20,Female,-99,A levels,82,3,Against,For
6,1658936061147,27/07/2022 15:34:21,1658936061124,1,27/07/2022 16:34:21,94050,2,task-xidh,NA,23334851,6847675,NA,complete,NA,62e15ac70c5ed5ab9be59362,computer,Desktop or Laptop,Mac OS 10.15.7,Chrome 103.0.0.0,1920x1080,1920x969,NA,ITT Ratings,3,For,9,NA,NA,NA,NA,NA,NA,NA,ACCEPT,NA,NA,batch9hes,batch9hes,56,4,1,Screen 1,continueButton,response_rating_scale_likert_active,7191.79999999702,NA,NA,Neither Agree nor Disagree,1,0,1,0,NA,NA,NA,NA,1,statements,I do not want to get covid19,1,17/05/2021 12:55,17/05/2021 13:08,764,Most months,Most weeks,40,Female,-99,A levels,89,2,Against,For
7,1658936067436,27/07/2022 15:34:27,1658936067420,1,27/07/2022 16:34:27,94050,2,task-xidh,NA,23334851,6847675,NA,complete,NA,62e15ac70c5ed5ab9be59362,computer,Desktop or Laptop,Mac OS 10.15.7,Chrome 103.0.0.0,1920x1080,1920x969,NA,ITT Ratings,3,For,9,NA,NA,NA,NA,NA,NA,NA,ACCEPT,NA,NA,batch9hes,batch9hes,21,5,1,Screen 1,continueButton,response_rating_scale_likert_active,6288.0999999940395,NA,NA,Neither Agree nor Disagree,1,0,1,0,NA,NA,NA,NA,1,statements,To be safe from any infections,1,17/05/2021 12:50,17/05/2021 13:00,608,Rarely,Rarely,32,Male,-99,GCSEs,83,3,Against,For
8,1658936071005,27/07/2022 15:34:31,1658936070988,1,27/07/2022 16:34:30,94050,2,task-xidh,NA,23334851,6847675,NA,complete,NA,62e15ac70c5ed5ab9be59362,computer,Desktop or Laptop,Mac OS 10.15.7,Chrome 103.0.0.0,1920x1080,1920x969,NA,ITT Ratings,3,For,9,NA,NA,NA,NA,NA,NA,NA,ACCEPT,NA,NA,batch9hes,batch9hes,59,6,1,Screen 1,continueButton,response_rating_scale_likert_active,3560,NA,NA,Agree,1,0,1,0,NA,NA,NA,NA,1,statements,Some people have experienced bad side effects even death,1,17/05/2021 12:51,17/05/2021 13:08,1010,Rarely,Rarely,31,Female,-99,"Postgraduate degree (MSc, MA, MPhil)",90,2,Against,Against
9,1658936078751,27/07/2022 15:34:38,1658936078732,1,27/07/2022 16:34:38,94050,2,task-xidh,NA,23334851,6847675,NA,complete,NA,62e15ac70c5ed5ab9be59362,computer,Desktop or Laptop,Mac OS 10.15.7,Chrome 103.0.0.0,1920x1080,1920x969,NA,ITT Ratings,3,For,9,NA,NA,NA,NA,NA,NA,NA,ACCEPT,NA,NA,batch9hes,batch9hes,35,7,1,Screen 1,continueButton,response_rating_scale_likert_active,7735.800000011921,NA,NA,Somewhat Disagree,1,0,1,0,NA,NA,NA,NA,1,statements,I do not want to put foreign substances into my body and would rather rely on building my immune system naturally.,1,17/05/2021 12:51,17/05/2021 13:05,836,Rarely,A few times a year,33,Female,-99,"Undergraduate degree (BSc, BA)",86,2,Against,Against
10,1658936082694,27/07/2022 15:34:42,1658936082676,1,27/07/2022 16:34:42,94050,2,task-xidh,NA,23334851,6847675,NA,complete,NA,62e15ac70c5ed5ab9be59362,computer,Desktop or Laptop,Mac OS 10.15.7,Chrome 103.0.0.0,1920x1080,1920x969,NA,ITT Ratings,3,For,9,NA,NA,NA,NA,NA,NA,NA,ACCEPT,NA,NA,batch9hes,batch9hes,7,8,1,Screen 1,continueButton,response_rating_scale_likert_active,3936.6000000089407,NA,NA,Agree,1,0,1,0,NA,NA,NA,NA,1,statements,It will mean shops can open,1,17/05/2021 12:50,17/05/2021 12:55,305,Never,Never,32,Female,-99,"Postgraduate degree (MSc, MA, MPhil)",81,1,Against,For
11,1658936088551,27/07/2022 15:34:48,1658936088532,1,27/07/2022 16:34:48,94050,2,task-xidh,NA,23334851,6847675,NA,complete,NA,62e15ac70c5ed5ab9be59362,computer,Desktop or Laptop,Mac OS 10.15.7,Chrome 103.0.0.0,1920x1080,1920x969,NA,ITT Ratings,3,For,9,NA,NA,NA,NA,NA,NA,NA,ACCEPT,NA,NA,batch9hes,batch9hes,43,9,1,Screen 1,continueButton,response_rating_scale_likert_active,5848.5999999940395,NA,NA,Somewhat Disagree,1,0,1,0,NA,NA,NA,NA,1,statements,I believe everything the government and MSM tells me without question,1,17/05/2021 13:02,17/05/2021 13:07,303,Rarely,Most weeks,47,Female,-99,"Postgraduate degree (MSc, MA, MPhil)",87,1,Against,For
12,1658936093896,27/07/2022 15:34:53,1658936093852,1,27/07/2022 16:34:53,94050,2,task-xidh,NA,23334851,6847675,NA,complete,NA,62e15ac70c5ed5ab9be59362,computer,Desktop or Laptop,Mac OS 10.15.7,Chrome 103.0.0.0,1920x1080,1920x969,NA,ITT Ratings,3,For,9,NA,NA,NA,NA,NA,NA,NA,ACCEPT,NA,NA,batch9hes,batch9hes,36,10,1,Screen 1,continueButton,response_rating_scale_likert_active,5312.5999999940395,NA,NA,Disagree,1,0,1,0,NA,NA,NA,NA,1,statements,"I do not trust the pharmaceutical companies producing the vaccines, nor the government, who are pushing them.",1,17/05/2021 12:51,17/05/2021 13:05,836,Rarely,A few times a year,33,Female,-99,"Undergraduate degree (BSc, BA)",86,3,Against,Against
13,1658936099131,27/07/2022 15:34:59,1658936099116,1,27/07/2022 16:34:59,94050,2,task-xidh,NA,23334851,6847675,NA,complete,NA,62e15ac70c5ed5ab9be59362,computer,Desktop or Laptop,Mac OS 10.15.7,Chrome 103.0.0.0,1920x1080,1920x969,NA,ITT Ratings,3,For,9,NA,NA,NA,NA,NA,NA,NA,ACCEPT,NA,NA,batch9hes,batch9hes,53,11,1,Screen 1,continueButton,response_rating_scale_likert_active,5249.5,NA,NA,Somewhat Agree,1,0,1,0,NA,NA,NA,NA,1,statements,I trust my own immune system,1,17/05/2021 12:55,17/05/2021 13:08,764,Most months,Most weeks,40,Female,-99,A levels,89,2,Against,Against
14,1658936109044,27/07/2022 15:35:09,1658936109027,1,27/07/2022 16:35:09,94050,2,task-xidh,NA,23334851,6847675,NA,complete,NA,62e15ac70c5ed5ab9be59362,computer,Desktop or Laptop,Mac OS 10.15.7,Chrome 103.0.0.0,1920x1080,1920x969,NA,ITT Ratings,3,For,9,NA,NA,NA,NA,NA,NA,NA,ACCEPT,NA,NA,batch9hes,batch9hes,28,12,1,Screen 1,continueButton,response_rating_scale_likert_active,9903.10000000894,NA,NA,Somewhat Disagree,1,0,1,0,NA,NA,NA,NA,1,statements,there have been more deaths from adverse reactions to vaccines from this vaccine than any others within the last 20 years,1,17/05/2021 12:56,17/05/2021 13:03,426,Most weeks,Most weeks,37,Female,-99,"Undergraduate degree (BSc, BA)",85,1,Against,Against
15,1658936111752,27/07/2022 15:35:11,1658936111723,1,27/07/2022 16:35:11,94050,2,task-xidh,NA,23334851,6847675,NA,complete,NA,62e15ac70c5ed5ab9be59362,computer,Desktop or Laptop,Mac OS 10.15.7,Chrome 103.0.0.0,1920x1080,1920x969,NA,ITT Ratings,3,For,9,NA,NA,NA,NA,NA,NA,NA,ACCEPT,NA,NA,batch9hes,batch9hes,11,13,1,Screen 1,continueButton,response_rating_scale_likert_active,2689.20000000298,NA,NA,Somewhat Agree,1,0,1,0,NA,NA,NA,NA,1,statements,I don't like having vaccinations,1,17/05/2021 12:51,17/05/2021 12:58,428,Most weeks,Most months,20,Female,-99,A levels,82,2,Against,Against
16,1658936115517,27/07/2022 15:35:15,1658936115499,1,27/07/2022 16:35:15,94050,2,task-xidh,NA,23334851,6847675,NA,complete,NA,62e15ac70c5ed5ab9be59362,computer,Desktop or Laptop,Mac OS 10.15.7,Chrome 103.0.0.0,1920x1080,1920x969,NA,ITT Ratings,3,For,9,NA,NA,NA,NA,NA,NA,NA,ACCEPT,NA,NA,batch9hes,batch9hes,5,14,1,Screen 1,continueButton,response_rating_scale_likert_active,3768.900000005961,NA,NA,Disagree,1,0,1,0,NA,NA,NA,NA,1,statements,People get blood clots from it so it's unsafe to have,1,17/05/2021 12:50,17/05/2021 12:55,305,Never,Never,32,Female,-99,"Postgraduate degree (MSc, MA, MPhil)",81,2,Against,Against
17,1658936119800,27/07/2022 15:35:19,1658936119771,1,27/07/2022 16:35:19,94050,2,task-xidh,NA,23334851,6847675,NA,complete,NA,62e15ac70c5ed5ab9be59362,computer,Desktop or Laptop,Mac OS 10.15.7,Chrome 103.0.0.0,1920x1080,1920x969,NA,ITT Ratings,3,For,9,NA,NA,NA,NA,NA,NA,NA,ACCEPT,NA,NA,batch9hes,batch9hes,39,15,1,Screen 1,continueButton,response_rating_scale_likert_active,4264.70000000298,NA,NA,Agree,1,0,1,0,NA,NA,NA,NA,1,statements,"Peer pressure. my friends have taken it, so I believe I should too.",1,17/05/2021 12:51,17/05/2021 13:05,836,Rarely,A few times a year,33,Female,-99,"Undergraduate degree (BSc, BA)",86,3,Against,For
18,1658936123000,27/07/2022 15:35:23,1658936122971,1,27/07/2022 16:35:22,94050,2,task-xidh,NA,23334851,6847675,NA,complete,NA,62e15ac70c5ed5ab9be59362,computer,Desktop or Laptop,Mac OS 10.15.7,Chrome 103.0.0.0,1920x1080,1920x969,NA,ITT Ratings,3,For,9,NA,NA,NA,NA,NA,NA,NA,ACCEPT,NA,NA,batch9hes,batch9hes,17,16,1,Screen 1,continueButton,response_rating_scale_likert_active,3193.699999988079,NA,NA,Neither Agree nor Disagree,1,0,1,0,NA,NA,NA,NA,1,statements,What if something happens to you,1,17/05/2021 12:50,17/05/2021 13:00,608,Rarely,Rarely,32,Male,-99,GCSEs,83,2,Against,Against
19,1658936130987,27/07/2022 15:35:30,1658936130955,1,27/07/2022 16:35:30,94050,2,task-xidh,NA,23334851,6847675,NA,complete,NA,62e15ac70c5ed5ab9be59362,computer,Desktop or Laptop,Mac OS 10.15.7,Chrome 103.0.0.0,1920x1080,1920x969,NA,ITT Ratings,3,For,9,NA,NA,NA,NA,NA,NA,NA,ACCEPT,NA,NA,batch9hes,batch9hes,61,17,1,Screen 1,continueButton,response_rating_scale_likert_active,7977,NA,NA,Agree,1,0,1,0,NA,NA,NA,NA,1,statements,The vaccine has gone through 3 trials where it was tested on thousands of people before coming into the market,1,17/05/2021 12:51,17/05/2021 13:08,1010,Rarely,Rarely,31,Female,-99,"Postgraduate degree (MSc, MA, MPhil)",90,1,Against,For
20,1658936133766,27/07/2022 15:35:33,1658936133739,1,27/07/2022 16:35:33,94050,2,task-xidh,NA,23334851,6847675,NA,complete,NA,62e15ac70c5ed5ab9be59362,computer,Desktop or Laptop,Mac OS 10.15.7,Chrome 103.0.0.0,1920x1080,1920x969,NA,ITT Ratings,3,For,9,NA,NA,NA,NA,NA,NA,NA,ACCEPT,NA,NA,batch9hes,batch9hes,22,18,1,Screen 1,continueButton,response_rating_scale_likert_active,2777.4000000059605,NA,NA,Strongly Disagree,1,0,1,0,NA,NA,NA,NA,1,statements,Not enough trials on different people and ages,1,17/05/2021 12:56,17/05/2021 13:02,334,Rarely,Rarely,29,Female,-99,Vocational Training / Apprenticeship,84,1,Against,Against
21,1658936136886,27/07/2022 15:35:36,1658936136867,1,27/07/2022 16:35:36,94050,2,task-xidh,NA,23334851,6847675,NA,complete,NA,62e15ac70c5ed5ab9be59362,computer,Desktop or Laptop,Mac OS 10.15.7,Chrome 103.0.0.0,1920x1080,1920x969,NA,ITT Ratings,3,For,9,NA,NA,NA,NA,NA,NA,NA,ACCEPT,NA,NA,batch9hes,batch9hes,55,19,1,Screen 1,continueButton,response_rating_scale_likert_active,3120.79999999702,NA,NA,Strongly Agree,1,0,1,0,NA,NA,NA,NA,1,statements,It's selfish not to get one. Think of others.,1,17/05/2021 12:55,17/05/2021 13:08,764,Most months,Most weeks,40,Female,-99,A levels,89,1,Against,For
22,1658936145636,27/07/2022 15:35:45,1658936145611,1,27/07/2022 16:35:45,94050,2,task-xidh,NA,23334851,6847675,NA,complete,NA,62e15ac70c5ed5ab9be59362,computer,Desktop or Laptop,Mac OS 10.15.7,Chrome 103.0.0.0,1920x1080,1920x969,NA,ITT Ratings,3,For,9,NA,NA,NA,NA,NA,NA,NA,ACCEPT,NA,NA,batch9hes,batch9hes,24,20,1,Screen 1,continueButton,response_rating_scale_likert_active,8736.90000000596,NA,NA,Disagree,1,0,1,0,NA,NA,NA,NA,1,statements,Not enough proof Covid-19 was as bad as the world made out,1,17/05/2021 12:56,17/05/2021 13:02,334,Rarely,Rarely,29,Female,-99,Vocational Training / Apprenticeship,84,3,Against,Against
23,1658936150882,27/07/2022 15:35:50,1658936150859,1,27/07/2022 16:35:50,94050,2,task-xidh,NA,23334851,6847675,NA,complete,NA,62e15ac70c5ed5ab9be59362,computer,Desktop or Laptop,Mac OS 10.15.7,Chrome 103.0.0.0,1920x1080,1920x969,NA,ITT Ratings,3,For,9,NA,NA,NA,NA,NA,NA,NA,ACCEPT,NA,NA,batch9hes,batch9hes,58,21,1,Screen 1,continueButton,response_rating_scale_likert_active,5240.300000011921,NA,NA,Disagree,1,0,1,0,NA,NA,NA,NA,1,statements,The vaccine was formed to quickly,1,17/05/2021 12:51,17/05/2021 13:08,1010,Rarely,Rarely,31,Female,-99,"Postgraduate degree (MSc, MA, MPhil)",90,1,Against,Against
24,1658936154953,27/07/2022 15:35:54,1658936154939,1,27/07/2022 16:35:54,94050,2,task-xidh,NA,23334851,6847675,NA,complete,NA,62e15ac70c5ed5ab9be59362,computer,Desktop or Laptop,Mac OS 10.15.7,Chrome 103.0.0.0,1920x1080,1920x969,NA,ITT Ratings,3,For,9,NA,NA,NA,NA,NA,NA,NA,ACCEPT,NA,NA,batch9hes,batch9hes,20,22,1,Screen 1,continueButton,response_rating_scale_likert_active,4073.599999994039,NA,NA,Strongly Agree,1,0,1,0,NA,NA,NA,NA,1,statements,To be able to travel abroad,1,17/05/2021 12:50,17/05/2021 13:00,608,Rarely,Rarely,32,Male,-99,GCSEs,83,2,Against,For
25,1658936156557,27/07/2022 15:35:56,1658936156539,1,27/07/2022 16:35:56,94050,2,task-xidh,NA,23334851,6847675,NA,complete,NA,62e15ac70c5ed5ab9be59362,computer,Desktop or Laptop,Mac OS 10.15.7,Chrome 103.0.0.0,1920x1080,1920x969,NA,ITT Ratings,3,For,9,NA,NA,NA,NA,NA,NA,NA,ACCEPT,NA,NA,batch9hes,batch9hes,27,23,1,Screen 1,continueButton,response_rating_scale_likert_active,1592.7000000029802,NA,NA,Strongly Agree,1,0,1,0,NA,NA,NA,NA,1,statements,Want to travel abroad,1,17/05/2021 12:56,17/05/2021 13:02,334,Rarely,Rarely,29,Female,-99,Vocational Training / Apprenticeship,84,3,Against,For
26,1658936162007,27/07/2022 15:36:02,1658936161987,1,27/07/2022 16:36:01,94050,2,task-xidh,NA,23334851,6847675,NA,complete,NA,62e15ac70c5ed5ab9be59362,computer,Desktop or Laptop,Mac OS 10.15.7,Chrome 103.0.0.0,1920x1080,1920x969,NA,ITT Ratings,3,For,9,NA,NA,NA,NA,NA,NA,NA,ACCEPT,NA,NA,batch9hes,batch9hes,42,24,1,Screen 1,continueButton,response_rating_scale_likert_active,5441.300000011921,NA,NA,Disagree,1,0,1,0,NA,NA,NA,NA,1,statements,They are still undergoing clinical trials and given the side effects and deaths from these vaccines to date these trials should have been stopped months ago,1,17/05/2021 13:02,17/05/2021 13:07,303,Rarely,Most weeks,47,Female,-99,"Postgraduate degree (MSc, MA, MPhil)",87,3,Against,Against
27,1658936164209,27/07/2022 15:36:04,1658936164195,1,27/07/2022 16:36:04,94050,2,task-xidh,NA,23334851,6847675,NA,complete,NA,62e15ac70c5ed5ab9be59362,computer,Desktop or Laptop,Mac OS 10.15.7,Chrome 103.0.0.0,1920x1080,1920x969,NA,ITT Ratings,3,For,9,NA,NA,NA,NA,NA,NA,NA,ACCEPT,NA,NA,batch9hes,batch9hes,18,25,1,Screen 1,continueButton,response_rating_scale_likert_active,2201.1000000089407,NA,NA,Somewhat Agree,1,0,1,0,NA,NA,NA,NA,1,statements,I don't like taking vaccines,1,17/05/2021 12:50,17/05/2021 13:00,608,Rarely,Rarely,32,Male,-99,GCSEs,83,3,Against,Against
28,1658936167785,27/07/2022 15:36:07,1658936167771,1,27/07/2022 16:36:07,94050,2,task-xidh,NA,23334851,6847675,NA,complete,NA,62e15ac70c5ed5ab9be59362,computer,Desktop or Laptop,Mac OS 10.15.7,Chrome 103.0.0.0,1920x1080,1920x969,NA,ITT Ratings,3,For,9,NA,NA,NA,NA,NA,NA,NA,ACCEPT,NA,NA,batch9hes,batch9hes,29,26,1,Screen 1,continueButton,response_rating_scale_likert_active,3569.79999999702,NA,NA,Neither Agree nor Disagree,1,0,1,0,NA,NA,NA,NA,1,statements,trial period ongoing until 2023,1,17/05/2021 12:56,17/05/2021 13:03,426,Most weeks,Most weeks,37,Female,-99,"Undergraduate degree (BSc, BA)",85,2,Against,Against
29,1658936171804,27/07/2022 15:36:11,1658936171771,1,27/07/2022 16:36:11,94050,2,task-xidh,NA,23334851,6847675,NA,complete,NA,62e15ac70c5ed5ab9be59362,computer,Desktop or Laptop,Mac OS 10.15.7,Chrome 103.0.0.0,1920x1080,1920x969,NA,ITT Ratings,3,For,9,NA,NA,NA,NA,NA,NA,NA,ACCEPT,NA,NA,batch9hes,batch9hes,60,27,1,Screen 1,continueButton,response_rating_scale_likert_active,3993.5,NA,NA,Strongly Disagree,1,0,1,0,NA,NA,NA,NA,1,statements,There is no evidence to show how effective it is,1,17/05/2021 12:51,17/05/2021 13:08,1010,Rarely,Rarely,31,Female,-99,"Postgraduate degree (MSc, MA, MPhil)",90,3,Against,Against
30,1658936173673,27/07/2022 15:36:13,1658936173643,1,27/07/2022 16:36:13,94050,2,task-xidh,NA,23334851,6847675,NA,complete,NA,62e15ac70c5ed5ab9be59362,computer,Desktop or Laptop,Mac OS 10.15.7,Chrome 103.0.0.0,1920x1080,1920x969,NA,ITT Ratings,3,For,9,NA,NA,NA,NA,NA,NA,NA,ACCEPT,NA,NA,batch9hes,batch9hes,16,28,1,Screen 1,continueButton,response_rating_scale_likert_active,1865.0999999940395,NA,NA,Strongly Disagree,1,0,1,0,NA,NA,NA,NA,1,statements,Taking the vaccine is not safe,1,17/05/2021 12:50,17/05/2021 13:00,608,Rarely,Rarely,32,Male,-99,GCSEs,83,1,Against,Against
31,1658936182098,27/07/2022 15:36:22,1658936182082,1,27/07/2022 16:36:22,94050,2,task-xidh,NA,23334851,6847675,NA,complete,NA,62e15ac70c5ed5ab9be59362,computer,Desktop or Laptop,Mac OS 10.15.7,Chrome 103.0.0.0,1920x1080,1920x969,NA,ITT Ratings,3,For,9,NA,NA,NA,NA,NA,NA,NA,ACCEPT,NA,NA,batch9hes,batch9hes,25,29,1,Screen 1,continueButton,response_rating_scale_likert_active,8433.40000000596,NA,NA,Neither Agree nor Disagree,1,0,1,0,NA,NA,NA,NA,1,statements,Want to safe for myself,1,17/05/2021 12:56,17/05/2021 13:02,334,Rarely,Rarely,29,Female,-99,Vocational Training / Apprenticeship,84,1,Against,For
32,1658936187305,27/07/2022 15:36:27,1658936187282,1,27/07/2022 16:36:27,94050,2,task-xidh,NA,23334851,6847675,NA,complete,NA,62e15ac70c5ed5ab9be59362,computer,Desktop or Laptop,Mac OS 10.15.7,Chrome 103.0.0.0,1920x1080,1920x969,NA,ITT Ratings,3,For,9,NA,NA,NA,NA,NA,NA,NA,ACCEPT,NA,NA,batch9hes,batch9hes,12,30,1,Screen 1,continueButton,response_rating_scale_likert_active,5192.800000011921,NA,NA,Neither Agree nor Disagree,1,0,1,0,NA,NA,NA,NA,1,statements,Fear of COVID and the whole ordeal,1,17/05/2021 12:51,17/05/2021 12:58,428,Most weeks,Most months,20,Female,-99,A levels,82,3,Against,Against
33,1658936192757,27/07/2022 15:36:32,1658936192691,1,27/07/2022 16:36:32,94050,2,task-xidh,NA,23334851,6847675,NA,complete,NA,62e15ac70c5ed5ab9be59362,computer,Desktop or Laptop,Mac OS 10.15.7,Chrome 103.0.0.0,1920x1080,1920x969,NA,ITT Ratings,3,For,9,NA,NA,NA,NA,NA,NA,NA,ACCEPT,NA,NA,batch9hes,batch9hes,8,31,1,Screen 1,continueButton,response_rating_scale_likert_active,5402,NA,NA,Agree,1,0,1,0,NA,NA,NA,NA,1,statements,It will mean that we can stop wearing masks,1,17/05/2021 12:50,17/05/2021 12:55,305,Never,Never,32,Female,-99,"Postgraduate degree (MSc, MA, MPhil)",81,2,Against,For
34,1658936196732,27/07/2022 15:36:36,1658936196714,1,27/07/2022 16:36:36,94050,2,task-xidh,NA,23334851,6847675,NA,complete,NA,62e15ac70c5ed5ab9be59362,computer,Desktop or Laptop,Mac OS 10.15.7,Chrome 103.0.0.0,1920x1080,1920x969,NA,ITT Ratings,3,For,9,NA,NA,NA,NA,NA,NA,NA,ACCEPT,NA,NA,batch9hes,batch9hes,38,32,1,Screen 1,continueButton,response_rating_scale_likert_active,4017.400000005961,NA,NA,Strongly Agree,1,0,1,0,NA,NA,NA,NA,1,statements,"I believe it's selfish to not take it, so comply.",1,17/05/2021 12:51,17/05/2021 13:05,836,Rarely,A few times a year,33,Female,-99,"Undergraduate degree (BSc, BA)",86,2,Against,For
35,1658936206072,27/07/2022 15:36:46,1658936206050,1,27/07/2022 16:36:46,94050,2,task-xidh,NA,23334851,6847675,NA,complete,NA,62e15ac70c5ed5ab9be59362,computer,Desktop or Laptop,Mac OS 10.15.7,Chrome 103.0.0.0,1920x1080,1920x969,NA,ITT Ratings,3,For,9,NA,NA,NA,NA,NA,NA,NA,ACCEPT,NA,NA,batch9hes,batch9hes,62,33,1,Screen 1,continueButton,response_rating_scale_likert_active,9328.79999999702,NA,NA,Somewhat Agree,1,0,1,0,NA,NA,NA,NA,1,statements,"The vaccine only gives you minor side effects such as fatigue, fever",1,17/05/2021 12:51,17/05/2021 13:08,1010,Rarely,Rarely,31,Female,-99,"Postgraduate degree (MSc, MA, MPhil)",90,2,Against,For
36,1658936210272,27/07/2022 15:36:50,1658936210242,1,27/07/2022 16:36:50,94050,2,task-xidh,NA,23334851,6847675,NA,complete,NA,62e15ac70c5ed5ab9be59362,computer,Desktop or Laptop,Mac OS 10.15.7,Chrome 103.0.0.0,1920x1080,1920x969,NA,ITT Ratings,3,For,9,NA,NA,NA,NA,NA,NA,NA,ACCEPT,NA,NA,batch9hes,batch9hes,14,34,1,Screen 1,continueButton,response_rating_scale_likert_active,4185.0999999940395,NA,NA,Disagree,1,0,1,0,NA,NA,NA,NA,1,statements,I can feel relaxed about COVID,1,17/05/2021 12:51,17/05/2021 12:58,428,Most weeks,Most months,20,Female,-99,A levels,82,2,Against,For
37,1658936216735,27/07/2022 15:36:56,1658936216714,1,27/07/2022 16:36:56,94050,2,task-xidh,NA,23334851,6847675,NA,complete,NA,62e15ac70c5ed5ab9be59362,computer,Desktop or Laptop,Mac OS 10.15.7,Chrome 103.0.0.0,1920x1080,1920x969,NA,ITT Ratings,3,For,9,NA,NA,NA,NA,NA,NA,NA,ACCEPT,NA,NA,batch9hes,batch9hes,6,35,1,Screen 1,continueButton,response_rating_scale_likert_active,6465.0999999940395,NA,NA,Somewhat Agree,1,0,1,0,NA,NA,NA,NA,1,statements,There wasn't enough time to develop it,1,17/05/2021 12:50,17/05/2021 12:55,305,Never,Never,32,Female,-99,"Postgraduate degree (MSc, MA, MPhil)",81,3,Against,Against
38,1658936223111,27/07/2022 15:37:03,1658936223090,1,27/07/2022 16:37:03,94050,2,task-xidh,NA,23334851,6847675,NA,complete,NA,62e15ac70c5ed5ab9be59362,computer,Desktop or Laptop,Mac OS 10.15.7,Chrome 103.0.0.0,1920x1080,1920x969,NA,ITT Ratings,3,For,9,NA,NA,NA,NA,NA,NA,NA,ACCEPT,NA,NA,batch9hes,batch9hes,3,36,1,Screen 1,continueButton,response_rating_scale_likert_active,6369.399999991059,NA,NA,Somewhat Disagree,1,0,1,0,NA,NA,NA,NA,1,statements,We would like to check you are reading each argument carefully. Please select 'Somewhat Disagree' for this answer,1,NA,NA,NA,NA,NA,NA,NA,NA,NA,NA,check2,NA,NA
39,1658936226083,27/07/2022 15:37:06,1658936226058,1,27/07/2022 16:37:06,94050,2,task-xidh,NA,23334851,6847675,NA,complete,NA,62e15ac70c5ed5ab9be59362,computer,Desktop or Laptop,Mac OS 10.15.7,Chrome 103.0.0.0,1920x1080,1920x969,NA,ITT Ratings,3,For,9,NA,NA,NA,NA,NA,NA,NA,ACCEPT,NA,NA,batch9hes,batch9hes,9,37,1,Screen 1,continueButton,response_rating_scale_likert_active,2961.4000000059605,NA,NA,Agree,1,0,1,0,NA,NA,NA,NA,1,statements,It is the only way to open up society,1,17/05/2021 12:50,17/05/2021 12:55,305,Never,Never,32,Female,-99,"Postgraduate degree (MSc, MA, MPhil)",81,3,Against,For
40,1658936228094,27/07/2022 15:37:08,1658936228074,1,27/07/2022 16:37:08,94050,2,task-xidh,NA,23334851,6847675,NA,complete,NA,62e15ac70c5ed5ab9be59362,computer,Desktop or Laptop,Mac OS 10.15.7,Chrome 103.0.0.0,1920x1080,1920x969,NA,ITT Ratings,3,For,9,NA,NA,NA,NA,NA,NA,NA,ACCEPT,NA,NA,batch9hes,batch9hes,40,38,1,Screen 1,continueButton,response_rating_scale_likert_active,2009.4000000059605,NA,NA,Disagree,1,0,1,0,NA,NA,NA,NA,1,statements,There is no need for it,1,17/05/2021 13:02,17/05/2021 13:07,303,Rarely,Most weeks,47,Female,-99,"Postgraduate degree (MSc, MA, MPhil)",87,1,Against,Against
41,1658936233257,27/07/2022 15:37:13,1658936233234,1,27/07/2022 16:37:13,94050,2,task-xidh,NA,23334851,6847675,NA,complete,NA,62e15ac70c5ed5ab9be59362,computer,Desktop or Laptop,Mac OS 10.15.7,Chrome 103.0.0.0,1920x1080,1920x969,NA,ITT Ratings,3,For,9,NA,NA,NA,NA,NA,NA,NA,ACCEPT,NA,NA,batch9hes,batch9hes,50,39,1,Screen 1,continueButton,response_rating_scale_likert_active,5153.20000000298,NA,NA,Somewhat Agree,1,0,1,0,NA,NA,NA,NA,1,statements,"Not to wear a mask, live life like before",1,17/05/2021 12:59,17/05/2021 13:08,529,Most weeks,Most weeks,18,Female,-99,A levels,88,2,Against,For
42,1658936235633,27/07/2022 15:37:15,1658936235610,1,27/07/2022 16:37:15,94050,2,task-xidh,NA,23334851,6847675,NA,complete,NA,62e15ac70c5ed5ab9be59362,computer,Desktop or Laptop,Mac OS 10.15.7,Chrome 103.0.0.0,1920x1080,1920x969,NA,ITT Ratings,3,For,9,NA,NA,NA,NA,NA,NA,NA,ACCEPT,NA,NA,batch9hes,batch9hes,48,40,1,Screen 1,continueButton,response_rating_scale_likert_active,2368.70000000298,NA,NA,Strongly Disagree,1,0,1,0,NA,NA,NA,NA,1,statements,It's a way of controlling people,1,17/05/2021 12:59,17/05/2021 13:08,529,Most weeks,Most weeks,18,Female,-99,A levels,88,3,Against,Against
43,1658936238343,27/07/2022 15:37:18,1658936238314,1,27/07/2022 16:37:18,94050,2,task-xidh,NA,23334851,6847675,NA,complete,NA,62e15ac70c5ed5ab9be59362,computer,Desktop or Laptop,Mac OS 10.15.7,Chrome 103.0.0.0,1920x1080,1920x969,NA,ITT Ratings,3,For,9,NA,NA,NA,NA,NA,NA,NA,ACCEPT,NA,NA,batch9hes,batch9hes,31,41,1,Screen 1,continueButton,response_rating_scale_likert_active,2697,NA,NA,Strongly Disagree,1,0,1,0,NA,NA,NA,NA,1,statements,I am concerned I will get covid and die,1,17/05/2021 12:56,17/05/2021 13:03,426,Most weeks,Most weeks,37,Female,-99,"Undergraduate degree (BSc, BA)",85,1,Against,For
44,1658936242349,27/07/2022 15:37:22,1658936242330,1,27/07/2022 16:37:22,94050,2,task-xidh,NA,23334851,6847675,NA,complete,NA,62e15ac70c5ed5ab9be59362,computer,Desktop or Laptop,Mac OS 10.15.7,Chrome 103.0.0.0,1920x1080,1920x969,NA,ITT Ratings,3,For,9,NA,NA,NA,NA,NA,NA,NA,ACCEPT,NA,NA,batch9hes,batch9hes,34,42,1,Screen 1,continueButton,response_rating_scale_likert_active,4009.79999999702,NA,NA,Strongly Disagree,1,0,1,0,NA,NA,NA,NA,1,statements,The vaccines are new and haven't been tested for long enough to know the long term side-effects.,1,17/05/2021 12:51,17/05/2021 13:05,836,Rarely,A few times a year,33,Female,-99,"Undergraduate degree (BSc, BA)",86,1,Against,Against
45,1658936245529,27/07/2022 15:37:25,1658936245506,1,27/07/2022 16:37:25,94050,2,task-xidh,NA,23334851,6847675,NA,complete,NA,62e15ac70c5ed5ab9be59362,computer,Desktop or Laptop,Mac OS 10.15.7,Chrome 103.0.0.0,1920x1080,1920x969,NA,ITT Ratings,3,For,9,NA,NA,NA,NA,NA,NA,NA,ACCEPT,NA,NA,batch9hes,batch9hes,30,43,1,Screen 1,continueButton,response_rating_scale_likert_active,3168.5,NA,NA,Disagree,1,0,1,0,NA,NA,NA,NA,1,statements,risk vs benefit - benefits don't outweigh the risks associated,1,17/05/2021 12:56,17/05/2021 13:03,426,Most weeks,Most weeks,37,Female,-99,"Undergraduate degree (BSc, BA)",85,3,Against,Against
46,1658936249260,27/07/2022 15:37:29,1658936249242,1,27/07/2022 16:37:29,94050,2,task-xidh,NA,23334851,6847675,NA,complete,NA,62e15ac70c5ed5ab9be59362,computer,Desktop or Laptop,Mac OS 10.15.7,Chrome 103.0.0.0,1920x1080,1920x969,NA,ITT Ratings,3,For,9,NA,NA,NA,NA,NA,NA,NA,ACCEPT,NA,NA,batch9hes,batch9hes,44,44,1,Screen 1,continueButton,response_rating_scale_likert_active,3728.70000000298,NA,NA,Agree,1,0,1,0,NA,NA,NA,NA,1,statements,"They said that they are safe and effective, so they must be, why would they lie?",1,17/05/2021 13:02,17/05/2021 13:07,303,Rarely,Most weeks,47,Female,-99,"Postgraduate degree (MSc, MA, MPhil)",87,2,Against,For
47,1658936263956,27/07/2022 15:37:43,1658936263929,1,27/07/2022 16:37:43,94050,2,task-xidh,NA,23334851,6847675,NA,complete,NA,62e15ac70c5ed5ab9be59362,computer,Desktop or Laptop,Mac OS 10.15.7,Chrome 103.0.0.0,1920x1080,1920x969,NA,ITT Ratings,3,For,9,NA,NA,NA,NA,NA,NA,NA,ACCEPT,NA,NA,batch9hes,batch9hes,47,45,1,Screen 1,continueButton,response_rating_scale_likert_active,14427,NA,NA,Disagree,1,0,1,0,NA,NA,NA,NA,1,statements,Not enough time to ensure safety and Covid isnÈt as bad as the flu,1,17/05/2021 12:59,17/05/2021 13:08,529,Most weeks,Most weeks,18,Female,-99,A levels,88,2,Against,Against
48,1658936269957,27/07/2022 15:37:49,1658936269937,1,27/07/2022 16:37:49,94050,2,task-xidh,NA,23334851,6847675,NA,complete,NA,62e15ac70c5ed5ab9be59362,computer,Desktop or Laptop,Mac OS 10.15.7,Chrome 103.0.0.0,1920x1080,1920x969,NA,ITT Ratings,3,For,9,NA,NA,NA,NA,NA,NA,NA,ACCEPT,NA,NA,batch9hes,batch9hes,41,46,1,Screen 1,continueButton,response_rating_scale_likert_active,6001.5999999940395,NA,NA,Disagree,1,0,1,0,NA,NA,NA,NA,1,statements,They are approved under emergency use authorisation only and are not approved,1,17/05/2021 13:02,17/05/2021 13:07,303,Rarely,Most weeks,47,Female,-99,"Postgraduate degree (MSc, MA, MPhil)",87,2,Against,Against
49,1658936272324,27/07/2022 15:37:52,1658936272297,1,27/07/2022 16:37:52,94050,2,task-xidh,NA,23334851,6847675,NA,complete,NA,62e15ac70c5ed5ab9be59362,computer,Desktop or Laptop,Mac OS 10.15.7,Chrome 103.0.0.0,1920x1080,1920x969,NA,ITT Ratings,3,For,9,NA,NA,NA,NA,NA,NA,NA,ACCEPT,NA,NA,batch9hes,batch9hes,57,47,1,Screen 1,continueButton,response_rating_scale_likert_active,2353.20000000298,NA,NA,Strongly Agree,1,0,1,0,NA,NA,NA,NA,1,statements,It's reccomended that we take the vaccine.,1,17/05/2021 12:55,17/05/2021 13:08,764,Most months,Most weeks,40,Female,-99,A levels,89,3,Against,For
50,1658936276861,27/07/2022 15:37:56,1658936276841,1,27/07/2022 16:37:56,94050,2,task-xidh,NA,23334851,6847675,NA,complete,NA,62e15ac70c5ed5ab9be59362,computer,Desktop or Laptop,Mac OS 10.15.7,Chrome 103.0.0.0,1920x1080,1920x969,NA,ITT Ratings,3,For,9,NA,NA,NA,NA,NA,NA,NA,ACCEPT,NA,NA,batch9hes,batch9hes,4,48,1,Screen 1,continueButton,response_rating_scale_likert_active,4537.5,NA,NA,Disagree,1,0,1,0,NA,NA,NA,NA,1,statements,It is not safe to take as there have been adverse effects,1,17/05/2021 12:50,17/05/2021 12:55,305,Never,Never,32,Female,-99,"Postgraduate degree (MSc, MA, MPhil)",81,1,Against,Against
51,1658936279522,27/07/2022 15:37:59,1658936279505,1,27/07/2022 16:37:59,94050,2,task-xidh,NA,23334851,6847675,NA,complete,NA,62e15ac70c5ed5ab9be59362,computer,Desktop or Laptop,Mac OS 10.15.7,Chrome 103.0.0.0,1920x1080,1920x969,NA,ITT Ratings,3,For,9,NA,NA,NA,NA,NA,NA,NA,ACCEPT,NA,NA,batch9hes,batch9hes,49,49,1,Screen 1,continueButton,response_rating_scale_likert_active,2656.9000000059605,NA,NA,Agree,1,0,1,0,NA,NA,NA,NA,1,statements,To be able to do things,1,17/05/2021 12:59,17/05/2021 13:08,529,Most weeks,Most weeks,18,Female,-99,A levels,88,1,Against,For
52,1658936282075,27/07/2022 15:38:02,1658936282057,1,27/07/2022 16:38:02,94050,2,task-xidh,NA,23334851,6847675,NA,complete,NA,62e15ac70c5ed5ab9be59362,computer,Desktop or Laptop,Mac OS 10.15.7,Chrome 103.0.0.0,1920x1080,1920x969,NA,ITT Ratings,3,For,9,NA,NA,NA,NA,NA,NA,NA,ACCEPT,NA,NA,batch9hes,batch9hes,13,50,1,Screen 1,continueButton,response_rating_scale_likert_active,2545.6000000089407,NA,NA,Strongly Disagree,1,0,1,0,NA,NA,NA,NA,1,statements,I won't catch the virus,1,17/05/2021 12:51,17/05/2021 12:58,428,Most weeks,Most months,20,Female,-99,A levels,82,1,Against,For
53,1658936284459,27/07/2022 15:38:04,1658936284441,1,27/07/2022 16:38:04,94050,2,task-xidh,NA,23334851,6847675,NA,complete,NA,62e15ac70c5ed5ab9be59362,computer,Desktop or Laptop,Mac OS 10.15.7,Chrome 103.0.0.0,1920x1080,1920x969,NA,ITT Ratings,3,For,9,NA,NA,NA,NA,NA,NA,NA,ACCEPT,NA,NA,batch9hes,batch9hes,32,51,1,Screen 1,continueButton,response_rating_scale_likert_active,2377.20000000298,NA,NA,Strongly Agree,1,0,1,0,NA,NA,NA,NA,1,statements,reduce the spread to others,1,17/05/2021 12:56,17/05/2021 13:03,426,Most weeks,Most weeks,37,Female,-99,"Undergraduate degree (BSc, BA)",85,2,Against,For
54,1658936287869,27/07/2022 15:38:07,1658936287849,1,27/07/2022 16:38:07,94050,2,task-xidh,NA,23334851,6847675,NA,complete,NA,62e15ac70c5ed5ab9be59362,computer,Desktop or Laptop,Mac OS 10.15.7,Chrome 103.0.0.0,1920x1080,1920x969,NA,ITT Ratings,3,For,9,NA,NA,NA,NA,NA,NA,NA,ACCEPT,NA,NA,batch9hes,batch9hes,37,52,1,Screen 1,continueButton,response_rating_scale_likert_active,3401.70000000298,NA,NA,Strongly Agree,1,0,1,0,NA,NA,NA,NA,1,statements,"I want to feel immune and get back to my normal, everyday life ASAP.",1,17/05/2021 12:51,17/05/2021 13:05,836,Rarely,A few times a year,33,Female,-99,"Undergraduate degree (BSc, BA)",86,1,Against,For
55,1658936290455,27/07/2022 15:38:10,1658936290433,1,27/07/2022 16:38:10,94050,2,task-xidh,NA,23334851,6847675,NA,complete,NA,62e15ac70c5ed5ab9be59362,computer,Desktop or Laptop,Mac OS 10.15.7,Chrome 103.0.0.0,1920x1080,1920x969,NA,ITT Ratings,3,For,9,NA,NA,NA,NA,NA,NA,NA,ACCEPT,NA,NA,batch9hes,batch9hes,33,53,1,Screen 1,continueButton,response_rating_scale_likert_active,2576.20000000298,NA,NA,Agree,1,0,1,0,NA,NA,NA,NA,1,statements,government told me to,1,17/05/2021 12:56,17/05/2021 13:03,426,Most weeks,Most weeks,37,Female,-99,"Undergraduate degree (BSc, BA)",85,3,Against,For
56,1658936294324,27/07/2022 15:38:14,1658936294305,1,27/07/2022 16:38:14,94050,2,task-xidh,NA,23334851,6847675,NA,complete,NA,62e15ac70c5ed5ab9be59362,computer,Desktop or Laptop,Mac OS 10.15.7,Chrome 103.0.0.0,1920x1080,1920x969,NA,ITT Ratings,3,For,9,NA,NA,NA,NA,NA,NA,NA,ACCEPT,NA,NA,batch9hes,batch9hes,63,54,1,Screen 1,continueButton,response_rating_scale_likert_active,3865.5,NA,NA,Neither Agree nor Disagree,1,0,1,0,NA,NA,NA,NA,1,statements,The  pharmaceutical companies make no profit from this they genuinely want to help,1,17/05/2021 12:51,17/05/2021 13:08,1010,Rarely,Rarely,31,Female,-99,"Postgraduate degree (MSc, MA, MPhil)",90,3,Against,For
57,1658936296341,27/07/2022 15:38:16,1658936296321,1,27/07/2022 16:38:16,94050,2,task-xidh,NA,23334851,6847675,NA,complete,NA,62e15ac70c5ed5ab9be59362,computer,Desktop or Laptop,Mac OS 10.15.7,Chrome 103.0.0.0,1920x1080,1920x969,NA,ITT Ratings,3,For,9,NA,NA,NA,NA,NA,NA,NA,ACCEPT,NA,NA,batch9hes,batch9hes,54,55,1,Screen 1,continueButton,response_rating_scale_likert_active,2009.20000000298,NA,NA,Strongly Disagree,1,0,1,0,NA,NA,NA,NA,1,statements,The vaccines will not work,1,17/05/2021 12:55,17/05/2021 13:08,764,Most months,Most weeks,40,Female,-99,A levels,89,3,Against,Against
58,1658936299932,27/07/2022 15:38:19,1658936299913,1,27/07/2022 16:38:19,94050,2,task-xidh,NA,23334851,6847675,NA,complete,NA,62e15ac70c5ed5ab9be59362,computer,Desktop or Laptop,Mac OS 10.15.7,Chrome 103.0.0.0,1920x1080,1920x969,NA,ITT Ratings,3,For,9,NA,NA,NA,NA,NA,NA,NA,ACCEPT,NA,NA,batch9hes,batch9hes,2,56,1,Screen 1,continueButton,response_rating_scale_likert_active,3585.29999999702,NA,NA,Somewhat Agree,1,0,1,0,NA,NA,NA,NA,1,statements,We would like to check you are reading each argument carefully. Please select 'Somewhat Agree' for this answer,1,NA,NA,NA,NA,NA,NA,NA,NA,NA,NA,check1,NA,NA
59,1658936303382,27/07/2022 15:38:23,1658936303361,1,27/07/2022 16:38:23,94050,2,task-xidh,NA,23334851,6847675,NA,complete,NA,62e15ac70c5ed5ab9be59362,computer,Desktop or Laptop,Mac OS 10.15.7,Chrome 103.0.0.0,1920x1080,1920x969,NA,ITT Ratings,3,For,9,NA,NA,NA,NA,NA,NA,NA,ACCEPT,NA,NA,batch9hes,batch9hes,45,57,1,Screen 1,continueButton,response_rating_scale_likert_active,3441.6000000089407,NA,NA,Agree,1,0,1,0,NA,NA,NA,NA,1,statements,Doctors won't administer something that would cause harm,1,17/05/2021 13:02,17/05/2021 13:07,303,Rarely,Most weeks,47,Female,-99,"Postgraduate degree (MSc, MA, MPhil)",87,3,Against,For
60,1658936306933,27/07/2022 15:38:26,1658936306913,1,27/07/2022 16:38:26,94050,2,task-xidh,NA,23334851,6847675,NA,complete,NA,62e15ac70c5ed5ab9be59362,computer,Desktop or Laptop,Mac OS 10.15.7,Chrome 103.0.0.0,1920x1080,1920x969,NA,ITT Ratings,3,For,9,NA,NA,NA,NA,NA,NA,NA,ACCEPT,NA,NA,batch9hes,batch9hes,19,58,1,Screen 1,continueButton,response_rating_scale_likert_active,3546.5,NA,NA,Agree,1,0,1,0,NA,NA,NA,NA,1,statements,To prevent from COVID-19,1,17/05/2021 12:50,17/05/2021 13:00,608,Rarely,Rarely,32,Male,-99,GCSEs,83,1,Against,For
61,1658936314692,27/07/2022 15:38:34,1658936314673,1,27/07/2022 16:38:34,94050,2,task-xidh,NA,23334851,6847675,NA,complete,NA,62e15ac70c5ed5ab9be59362,computer,Desktop or Laptop,Mac OS 10.15.7,Chrome 103.0.0.0,1920x1080,1920x969,NA,ITT Ratings,3,For,9,NA,NA,NA,NA,NA,NA,NA,ACCEPT,NA,NA,batch9hes,batch9hes,10,59,1,Screen 1,continueButton,response_rating_scale_likert_active,7752.300000011921,NA,NA,Strongly Disagree,1,0,1,0,NA,NA,NA,NA,1,statements,I don't trust the vaccination and the intentions,1,17/05/2021 12:51,17/05/2021 12:58,428,Most weeks,Most months,20,Female,-99,A levels,82,1,Against,Against
62,1658936318844,27/07/2022 15:38:38,1658936318825,1,27/07/2022 16:38:38,94050,2,task-xidh,NA,23334851,6847675,NA,complete,NA,62e15ac70c5ed5ab9be59362,computer,Desktop or Laptop,Mac OS 10.15.7,Chrome 103.0.0.0,1920x1080,1920x969,NA,ITT Ratings,3,For,9,NA,NA,NA,NA,NA,NA,NA,ACCEPT,NA,NA,batch9hes,batch9hes,26,60,1,Screen 1,continueButton,response_rating_scale_likert_active,4145.600000008941,NA,NA,Agree,1,0,1,0,NA,NA,NA,NA,1,statements,Want to be safe around other people,1,17/05/2021 12:56,17/05/2021 13:02,334,Rarely,Rarely,29,Female,-99,Vocational Training / Apprenticeship,84,2,Against,For
63,1658936323067,27/07/2022 15:38:43,1658936323049,1,27/07/2022 16:38:43,94050,2,task-xidh,NA,23334851,6847675,NA,complete,NA,62e15ac70c5ed5ab9be59362,computer,Desktop or Laptop,Mac OS 10.15.7,Chrome 103.0.0.0,1920x1080,1920x969,NA,ITT Ratings,3,For,9,NA,NA,NA,NA,NA,NA,NA,ACCEPT,NA,NA,batch9hes,batch9hes,46,61,1,Screen 1,continueButton,response_rating_scale_likert_active,4219.100000008941,NA,NA,Disagree,1,0,1,0,NA,NA,NA,NA,1,statements,The side effect of people around the world have been horrific,1,17/05/2021 12:59,17/05/2021 13:08,529,Most weeks,Most weeks,18,Female,-99,A levels,88,1,Against,Against
64,1658936330889,27/07/2022 15:38:50,1658936330864,1,27/07/2022 16:38:50,94050,2,task-xidh,NA,23334851,6847675,NA,complete,NA,62e15ac70c5ed5ab9be59362,computer,Desktop or Laptop,Mac OS 10.15.7,Chrome 103.0.0.0,1920x1080,1920x969,NA,ITT Ratings,3,For,9,NA,NA,NA,NA,NA,NA,NA,ACCEPT,NA,NA,batch9hes,batch9hes,51,62,1,Screen 1,continueButton,response_rating_scale_likert_active,7810.70000000298,NA,NA,Strongly Disagree,1,0,1,0,NA,NA,NA,NA,1,statements,Immune to the vaccine,1,17/05/2021 12:59,17/05/2021 13:08,529,Most weeks,Most weeks,18,Female,-99,A levels,88,3,Against,For
65,1658936330940,27/07/2022 15:38:50,1658936330867,1,27/07/2022 16:38:50,94050,2,task-xidh,NA,23334851,6847675,NA,complete,NA,62e15ac70c5ed5ab9be59362,computer,Desktop or Laptop,Mac OS 10.15.7,Chrome 103.0.0.0,1920x1080,1920x969,NA,ITT Ratings,3,For,9,NA,NA,NA,NA,NA,NA,NA,ACCEPT,NA,NA,batch9hes,NA,NA,END TASK,NA,NA,NA,NA,301656,NA,NA,NA,NA,0,1,0,NA,NA,NA,NA,NA,NA,NA,NA,NA,NA,NA,NA,NA,NA,NA,NA,NA,NA,NA,NA,NA
1,1658936260857,27/07/2022 15:37:40,1658936260704,1,27/07/2022 16:37:40,94050,2,task-xidh,NA,23334940,6847706,NA,complete,NA,62e15b9da0604d7f3eb0c8f2,computer,Desktop or Laptop,Windows 10,Chrome 103.0.0.0,2560x1440,2560x1297,NA,ITT Ratings,3,For,9,NA,NA,NA,NA,NA,NA,NA,ACCEPT,NA,NA,batch9hes,NA,NA,BEGIN TASK,NA,NA,NA,NA,NA,NA,NA,NA,NA,0,1,0,NA,NA,NA,NA,NA,NA,NA,NA,NA,NA,NA,NA,NA,NA,NA,NA,NA,NA,NA,NA,NA
2,1658936274441,27/07/2022 15:37:54,1658936274332,1,27/07/2022 16:37:54,94050,2,task-xidh,NA,23334940,6847706,NA,complete,NA,62e15b9da0604d7f3eb0c8f2,computer,Desktop or Laptop,Windows 10,Chrome 103.0.0.0,2560x1440,2560x1297,NA,ITT Ratings,3,For,9,NA,NA,NA,NA,NA,NA,NA,ACCEPT,NA,NA,batch9hes,batch9hes,1,1,1,Screen 1,advancementZone,continue_button,13576.599999999627,NA,NA,NA,NA,0,1,0,NA,NA,NA,NA,NA,instructions,NA,NA,NA,NA,NA,NA,NA,NA,NA,NA,NA,NA,NA,NA,NA
3,1658936280625,27/07/2022 15:38:00,1658936280526,1,27/07/2022 16:38:00,94050,2,task-xidh,NA,23334940,6847706,NA,complete,NA,62e15b9da0604d7f3eb0c8f2,computer,Desktop or Laptop,Windows 10,Chrome 103.0.0.0,2560x1440,2560x1297,NA,ITT Ratings,3,For,9,NA,NA,NA,NA,NA,NA,NA,ACCEPT,NA,NA,batch9hes,batch9hes,56,1,1,Screen 1,continueButton,response_rating_scale_likert_active,6166,NA,NA,Neither Agree nor Disagree,1,0,1,0,NA,NA,NA,NA,1,statements,I do not want to get covid19,1,17/05/2021 12:55,17/05/2021 13:08,764,Most months,Most weeks,40,Female,-99,A levels,89,2,Against,For
4,1658936287053,27/07/2022 15:38:07,1658936286956,1,27/07/2022 16:38:06,94050,2,task-xidh,NA,23334940,6847706,NA,complete,NA,62e15b9da0604d7f3eb0c8f2,computer,Desktop or Laptop,Windows 10,Chrome 103.0.0.0,2560x1440,2560x1297,NA,ITT Ratings,3,For,9,NA,NA,NA,NA,NA,NA,NA,ACCEPT,NA,NA,batch9hes,batch9hes,51,2,1,Screen 1,continueButton,response_rating_scale_likert_active,6411.5999999996275,NA,NA,Neither Agree nor Disagree,1,0,1,0,NA,NA,NA,NA,1,statements,Immune to the vaccine,1,17/05/2021 12:59,17/05/2021 13:08,529,Most weeks,Most weeks,18,Female,-99,A levels,88,3,Against,For
5,1658936292594,27/07/2022 15:38:12,1658936292505,1,27/07/2022 16:38:12,94050,2,task-xidh,NA,23334940,6847706,NA,complete,NA,62e15b9da0604d7f3eb0c8f2,computer,Desktop or Laptop,Windows 10,Chrome 103.0.0.0,2560x1440,2560x1297,NA,ITT Ratings,3,For,9,NA,NA,NA,NA,NA,NA,NA,ACCEPT,NA,NA,batch9hes,batch9hes,39,3,1,Screen 1,continueButton,response_rating_scale_likert_active,5532.60000000149,NA,NA,Somewhat Agree,1,0,1,0,NA,NA,NA,NA,1,statements,"Peer pressure. my friends have taken it, so I believe I should too.",1,17/05/2021 12:51,17/05/2021 13:05,836,Rarely,A few times a year,33,Female,-99,"Undergraduate degree (BSc, BA)",86,3,Against,For
6,1658936296826,27/07/2022 15:38:16,1658936296743,1,27/07/2022 16:38:16,94050,2,task-xidh,NA,23334940,6847706,NA,complete,NA,62e15b9da0604d7f3eb0c8f2,computer,Desktop or Laptop,Windows 10,Chrome 103.0.0.0,2560x1440,2560x1297,NA,ITT Ratings,3,For,9,NA,NA,NA,NA,NA,NA,NA,ACCEPT,NA,NA,batch9hes,batch9hes,61,4,1,Screen 1,continueButton,response_rating_scale_likert_active,4224.299999998882,NA,NA,Strongly Agree,1,0,1,0,NA,NA,NA,NA,1,statements,The vaccine has gone through 3 trials where it was tested on thousands of people before coming into the market,1,17/05/2021 12:51,17/05/2021 13:08,1010,Rarely,Rarely,31,Female,-99,"Postgraduate degree (MSc, MA, MPhil)",90,1,Against,For
7,1658936302031,27/07/2022 15:38:22,1658936301917,1,27/07/2022 16:38:21,94050,2,task-xidh,NA,23334940,6847706,NA,complete,NA,62e15b9da0604d7f3eb0c8f2,computer,Desktop or Laptop,Windows 10,Chrome 103.0.0.0,2560x1440,2560x1297,NA,ITT Ratings,3,For,9,NA,NA,NA,NA,NA,NA,NA,ACCEPT,NA,NA,batch9hes,batch9hes,34,5,1,Screen 1,continueButton,response_rating_scale_likert_active,5159.89999999851,NA,NA,Strongly Disagree,1,0,1,0,NA,NA,NA,NA,1,statements,The vaccines are new and haven't been tested for long enough to know the long term side-effects.,1,17/05/2021 12:51,17/05/2021 13:05,836,Rarely,A few times a year,33,Female,-99,"Undergraduate degree (BSc, BA)",86,1,Against,Against
8,1658936305443,27/07/2022 15:38:25,1658936305357,1,27/07/2022 16:38:25,94050,2,task-xidh,NA,23334940,6847706,NA,complete,NA,62e15b9da0604d7f3eb0c8f2,computer,Desktop or Laptop,Windows 10,Chrome 103.0.0.0,2560x1440,2560x1297,NA,ITT Ratings,3,For,9,NA,NA,NA,NA,NA,NA,NA,ACCEPT,NA,NA,batch9hes,batch9hes,26,6,1,Screen 1,continueButton,response_rating_scale_likert_active,3424.7000000011176,NA,NA,Somewhat Agree,1,0,1,0,NA,NA,NA,NA,1,statements,Want to be safe around other people,1,17/05/2021 12:56,17/05/2021 13:02,334,Rarely,Rarely,29,Female,-99,Vocational Training / Apprenticeship,84,2,Against,For
9,1658936307628,27/07/2022 15:38:27,1658936307543,1,27/07/2022 16:38:27,94050,2,task-xidh,NA,23334940,6847706,NA,complete,NA,62e15b9da0604d7f3eb0c8f2,computer,Desktop or Laptop,Windows 10,Chrome 103.0.0.0,2560x1440,2560x1297,NA,ITT Ratings,3,For,9,NA,NA,NA,NA,NA,NA,NA,ACCEPT,NA,NA,batch9hes,batch9hes,33,7,1,Screen 1,continueButton,response_rating_scale_likert_active,2171.89999999851,NA,NA,Neither Agree nor Disagree,1,0,1,0,NA,NA,NA,NA,1,statements,government told me to,1,17/05/2021 12:56,17/05/2021 13:03,426,Most weeks,Most weeks,37,Female,-99,"Undergraduate degree (BSc, BA)",85,3,Against,For
10,1658936309958,27/07/2022 15:38:29,1658936309873,1,27/07/2022 16:38:29,94050,2,task-xidh,NA,23334940,6847706,NA,complete,NA,62e15b9da0604d7f3eb0c8f2,computer,Desktop or Laptop,Windows 10,Chrome 103.0.0.0,2560x1440,2560x1297,NA,ITT Ratings,3,For,9,NA,NA,NA,NA,NA,NA,NA,ACCEPT,NA,NA,batch9hes,batch9hes,21,8,1,Screen 1,continueButton,response_rating_scale_likert_active,2315.9000000003725,NA,NA,Somewhat Disagree,1,0,1,0,NA,NA,NA,NA,1,statements,To be safe from any infections,1,17/05/2021 12:50,17/05/2021 13:00,608,Rarely,Rarely,32,Male,-99,GCSEs,83,3,Against,For
11,1658936313263,27/07/2022 15:38:33,1658936313179,1,27/07/2022 16:38:33,94050,2,task-xidh,NA,23334940,6847706,NA,complete,NA,62e15b9da0604d7f3eb0c8f2,computer,Desktop or Laptop,Windows 10,Chrome 103.0.0.0,2560x1440,2560x1297,NA,ITT Ratings,3,For,9,NA,NA,NA,NA,NA,NA,NA,ACCEPT,NA,NA,batch9hes,batch9hes,54,9,1,Screen 1,continueButton,response_rating_scale_likert_active,3292.800000000745,NA,NA,Strongly Disagree,1,0,1,0,NA,NA,NA,NA,1,statements,The vaccines will not work,1,17/05/2021 12:55,17/05/2021 13:08,764,Most months,Most weeks,40,Female,-99,A levels,89,3,Against,Against
12,1658936314973,27/07/2022 15:38:34,1658936314888,1,27/07/2022 16:38:34,94050,2,task-xidh,NA,23334940,6847706,NA,complete,NA,62e15b9da0604d7f3eb0c8f2,computer,Desktop or Laptop,Windows 10,Chrome 103.0.0.0,2560x1440,2560x1297,NA,ITT Ratings,3,For,9,NA,NA,NA,NA,NA,NA,NA,ACCEPT,NA,NA,batch9hes,batch9hes,48,10,1,Screen 1,continueButton,response_rating_scale_likert_active,1694.0999999996277,NA,NA,Strongly Disagree,1,0,1,0,NA,NA,NA,NA,1,statements,It's a way of controlling people,1,17/05/2021 12:59,17/05/2021 13:08,529,Most weeks,Most weeks,18,Female,-99,A levels,88,3,Against,Against
13,1658936317162,27/07/2022 15:38:37,1658936317077,1,27/07/2022 16:38:37,94050,2,task-xidh,NA,23334940,6847706,NA,complete,NA,62e15b9da0604d7f3eb0c8f2,computer,Desktop or Laptop,Windows 10,Chrome 103.0.0.0,2560x1440,2560x1297,NA,ITT Ratings,3,For,9,NA,NA,NA,NA,NA,NA,NA,ACCEPT,NA,NA,batch9hes,batch9hes,27,11,1,Screen 1,continueButton,response_rating_scale_likert_active,2171.9000000003725,NA,NA,Agree,1,0,1,0,NA,NA,NA,NA,1,statements,Want to travel abroad,1,17/05/2021 12:56,17/05/2021 13:02,334,Rarely,Rarely,29,Female,-99,Vocational Training / Apprenticeship,84,3,Against,For
14,1658936324860,27/07/2022 15:38:44,1658936324777,1,27/07/2022 16:38:44,94050,2,task-xidh,NA,23334940,6847706,NA,complete,NA,62e15b9da0604d7f3eb0c8f2,computer,Desktop or Laptop,Windows 10,Chrome 103.0.0.0,2560x1440,2560x1297,NA,ITT Ratings,3,For,9,NA,NA,NA,NA,NA,NA,NA,ACCEPT,NA,NA,batch9hes,batch9hes,62,12,1,Screen 1,continueButton,response_rating_scale_likert_active,7684,NA,NA,Agree,1,0,1,0,NA,NA,NA,NA,1,statements,"The vaccine only gives you minor side effects such as fatigue, fever",1,17/05/2021 12:51,17/05/2021 13:08,1010,Rarely,Rarely,31,Female,-99,"Postgraduate degree (MSc, MA, MPhil)",90,2,Against,For
15,1658936327440,27/07/2022 15:38:47,1658936327338,1,27/07/2022 16:38:47,94050,2,task-xidh,NA,23334940,6847706,NA,complete,NA,62e15b9da0604d7f3eb0c8f2,computer,Desktop or Laptop,Windows 10,Chrome 103.0.0.0,2560x1440,2560x1297,NA,ITT Ratings,3,For,9,NA,NA,NA,NA,NA,NA,NA,ACCEPT,NA,NA,batch9hes,batch9hes,10,13,1,Screen 1,continueButton,response_rating_scale_likert_active,2547.39999999851,NA,NA,Strongly Disagree,1,0,1,0,NA,NA,NA,NA,1,statements,I don't trust the vaccination and the intentions,1,17/05/2021 12:51,17/05/2021 12:58,428,Most weeks,Most months,20,Female,-99,A levels,82,1,Against,Against
16,1658936330129,27/07/2022 15:38:50,1658936330037,1,27/07/2022 16:38:50,94050,2,task-xidh,NA,23334940,6847706,NA,complete,NA,62e15b9da0604d7f3eb0c8f2,computer,Desktop or Laptop,Windows 10,Chrome 103.0.0.0,2560x1440,2560x1297,NA,ITT Ratings,3,For,9,NA,NA,NA,NA,NA,NA,NA,ACCEPT,NA,NA,batch9hes,batch9hes,57,14,1,Screen 1,continueButton,response_rating_scale_likert_active,2686.9000000003725,NA,NA,Somewhat Agree,1,0,1,0,NA,NA,NA,NA,1,statements,It's reccomended that we take the vaccine.,1,17/05/2021 12:55,17/05/2021 13:08,764,Most months,Most weeks,40,Female,-99,A levels,89,3,Against,For
17,1658936333562,27/07/2022 15:38:53,1658936333471,1,27/07/2022 16:38:53,94050,2,task-xidh,NA,23334940,6847706,NA,complete,NA,62e15b9da0604d7f3eb0c8f2,computer,Desktop or Laptop,Windows 10,Chrome 103.0.0.0,2560x1440,2560x1297,NA,ITT Ratings,3,For,9,NA,NA,NA,NA,NA,NA,NA,ACCEPT,NA,NA,batch9hes,batch9hes,50,15,1,Screen 1,continueButton,response_rating_scale_likert_active,3419.800000000745,NA,NA,Somewhat Agree,1,0,1,0,NA,NA,NA,NA,1,statements,"Not to wear a mask, live life like before",1,17/05/2021 12:59,17/05/2021 13:08,529,Most weeks,Most weeks,18,Female,-99,A levels,88,2,Against,For
18,1658936338790,27/07/2022 15:38:58,1658936338707,1,27/07/2022 16:38:58,94050,2,task-xidh,NA,23334940,6847706,NA,complete,NA,62e15b9da0604d7f3eb0c8f2,computer,Desktop or Laptop,Windows 10,Chrome 103.0.0.0,2560x1440,2560x1297,NA,ITT Ratings,3,For,9,NA,NA,NA,NA,NA,NA,NA,ACCEPT,NA,NA,batch9hes,batch9hes,3,16,1,Screen 1,continueButton,response_rating_scale_likert_active,5223.199999999255,NA,NA,Somewhat Disagree,1,0,1,0,NA,NA,NA,NA,1,statements,We would like to check you are reading each argument carefully. Please select 'Somewhat Disagree' for this answer,1,NA,NA,NA,NA,NA,NA,NA,NA,NA,NA,check2,NA,NA
19,1658936340904,27/07/2022 15:39:00,1658936340809,1,27/07/2022 16:39:00,94050,2,task-xidh,NA,23334940,6847706,NA,complete,NA,62e15b9da0604d7f3eb0c8f2,computer,Desktop or Laptop,Windows 10,Chrome 103.0.0.0,2560x1440,2560x1297,NA,ITT Ratings,3,For,9,NA,NA,NA,NA,NA,NA,NA,ACCEPT,NA,NA,batch9hes,batch9hes,13,17,1,Screen 1,continueButton,response_rating_scale_likert_active,2090.5,NA,NA,Strongly Disagree,1,0,1,0,NA,NA,NA,NA,1,statements,I won't catch the virus,1,17/05/2021 12:51,17/05/2021 12:58,428,Most weeks,Most months,20,Female,-99,A levels,82,1,Against,For
20,1658936343354,27/07/2022 15:39:03,1658936343259,1,27/07/2022 16:39:03,94050,2,task-xidh,NA,23334940,6847706,NA,complete,NA,62e15b9da0604d7f3eb0c8f2,computer,Desktop or Laptop,Windows 10,Chrome 103.0.0.0,2560x1440,2560x1297,NA,ITT Ratings,3,For,9,NA,NA,NA,NA,NA,NA,NA,ACCEPT,NA,NA,batch9hes,batch9hes,18,18,1,Screen 1,continueButton,response_rating_scale_likert_active,2436.699999999255,NA,NA,Somewhat Agree,1,0,1,0,NA,NA,NA,NA,1,statements,I don't like taking vaccines,1,17/05/2021 12:50,17/05/2021 13:00,608,Rarely,Rarely,32,Male,-99,GCSEs,83,3,Against,Against
21,1658936346297,27/07/2022 15:39:06,1658936346215,1,27/07/2022 16:39:06,94050,2,task-xidh,NA,23334940,6847706,NA,complete,NA,62e15b9da0604d7f3eb0c8f2,computer,Desktop or Laptop,Windows 10,Chrome 103.0.0.0,2560x1440,2560x1297,NA,ITT Ratings,3,For,9,NA,NA,NA,NA,NA,NA,NA,ACCEPT,NA,NA,batch9hes,batch9hes,32,19,1,Screen 1,continueButton,response_rating_scale_likert_active,2940.9000000003725,NA,NA,Somewhat Agree,1,0,1,0,NA,NA,NA,NA,1,statements,reduce the spread to others,1,17/05/2021 12:56,17/05/2021 13:03,426,Most weeks,Most weeks,37,Female,-99,"Undergraduate degree (BSc, BA)",85,2,Against,For
22,1658936349176,27/07/2022 15:39:09,1658936349084,1,27/07/2022 16:39:09,94050,2,task-xidh,NA,23334940,6847706,NA,complete,NA,62e15b9da0604d7f3eb0c8f2,computer,Desktop or Laptop,Windows 10,Chrome 103.0.0.0,2560x1440,2560x1297,NA,ITT Ratings,3,For,9,NA,NA,NA,NA,NA,NA,NA,ACCEPT,NA,NA,batch9hes,batch9hes,2,20,1,Screen 1,continueButton,response_rating_scale_likert_active,2856.800000000745,NA,NA,Somewhat Agree,1,0,1,0,NA,NA,NA,NA,1,statements,We would like to check you are reading each argument carefully. Please select 'Somewhat Agree' for this answer,1,NA,NA,NA,NA,NA,NA,NA,NA,NA,NA,check1,NA,NA
23,1658936353663,27/07/2022 15:39:13,1658936353577,1,27/07/2022 16:39:13,94050,2,task-xidh,NA,23334940,6847706,NA,complete,NA,62e15b9da0604d7f3eb0c8f2,computer,Desktop or Laptop,Windows 10,Chrome 103.0.0.0,2560x1440,2560x1297,NA,ITT Ratings,3,For,9,NA,NA,NA,NA,NA,NA,NA,ACCEPT,NA,NA,batch9hes,batch9hes,17,21,1,Screen 1,continueButton,response_rating_scale_likert_active,4480.199999999255,NA,NA,Neither Agree nor Disagree,1,0,1,0,NA,NA,NA,NA,1,statements,What if something happens to you,1,17/05/2021 12:50,17/05/2021 13:00,608,Rarely,Rarely,32,Male,-99,GCSEs,83,2,Against,Against
24,1658936358003,27/07/2022 15:39:18,1658936357921,1,27/07/2022 16:39:17,94050,2,task-xidh,NA,23334940,6847706,NA,complete,NA,62e15b9da0604d7f3eb0c8f2,computer,Desktop or Laptop,Windows 10,Chrome 103.0.0.0,2560x1440,2560x1297,NA,ITT Ratings,3,For,9,NA,NA,NA,NA,NA,NA,NA,ACCEPT,NA,NA,batch9hes,batch9hes,45,22,1,Screen 1,continueButton,response_rating_scale_likert_active,4332,NA,NA,Neither Agree nor Disagree,1,0,1,0,NA,NA,NA,NA,1,statements,Doctors won't administer something that would cause harm,1,17/05/2021 13:02,17/05/2021 13:07,303,Rarely,Most weeks,47,Female,-99,"Postgraduate degree (MSc, MA, MPhil)",87,3,Against,For
25,1658936363549,27/07/2022 15:39:23,1658936363462,1,27/07/2022 16:39:23,94050,2,task-xidh,NA,23334940,6847706,NA,complete,NA,62e15b9da0604d7f3eb0c8f2,computer,Desktop or Laptop,Windows 10,Chrome 103.0.0.0,2560x1440,2560x1297,NA,ITT Ratings,3,For,9,NA,NA,NA,NA,NA,NA,NA,ACCEPT,NA,NA,batch9hes,batch9hes,19,23,1,Screen 1,continueButton,response_rating_scale_likert_active,5528.5999999996275,NA,NA,Neither Agree nor Disagree,1,0,1,0,NA,NA,NA,NA,1,statements,To prevent from COVID-19,1,17/05/2021 12:50,17/05/2021 13:00,608,Rarely,Rarely,32,Male,-99,GCSEs,83,1,Against,For
26,1658936365019,27/07/2022 15:39:25,1658936364925,1,27/07/2022 16:39:24,94050,2,task-xidh,NA,23334940,6847706,NA,complete,NA,62e15b9da0604d7f3eb0c8f2,computer,Desktop or Laptop,Windows 10,Chrome 103.0.0.0,2560x1440,2560x1297,NA,ITT Ratings,3,For,9,NA,NA,NA,NA,NA,NA,NA,ACCEPT,NA,NA,batch9hes,batch9hes,49,24,1,Screen 1,continueButton,response_rating_scale_likert_active,1448.4000000003723,NA,NA,Somewhat Agree,1,0,1,0,NA,NA,NA,NA,1,statements,To be able to do things,1,17/05/2021 12:59,17/05/2021 13:08,529,Most weeks,Most weeks,18,Female,-99,A levels,88,1,Against,For
27,1658936366858,27/07/2022 15:39:26,1658936366772,1,27/07/2022 16:39:26,94050,2,task-xidh,NA,23334940,6847706,NA,complete,NA,62e15b9da0604d7f3eb0c8f2,computer,Desktop or Laptop,Windows 10,Chrome 103.0.0.0,2560x1440,2560x1297,NA,ITT Ratings,3,For,9,NA,NA,NA,NA,NA,NA,NA,ACCEPT,NA,NA,batch9hes,batch9hes,11,25,1,Screen 1,continueButton,response_rating_scale_likert_active,1835.699999999255,NA,NA,Somewhat Agree,1,0,1,0,NA,NA,NA,NA,1,statements,I don't like having vaccinations,1,17/05/2021 12:51,17/05/2021 12:58,428,Most weeks,Most months,20,Female,-99,A levels,82,2,Against,Against
28,1658936369644,27/07/2022 15:39:29,1658936369557,1,27/07/2022 16:39:29,94050,2,task-xidh,NA,23334940,6847706,NA,complete,NA,62e15b9da0604d7f3eb0c8f2,computer,Desktop or Laptop,Windows 10,Chrome 103.0.0.0,2560x1440,2560x1297,NA,ITT Ratings,3,For,9,NA,NA,NA,NA,NA,NA,NA,ACCEPT,NA,NA,batch9hes,batch9hes,7,26,1,Screen 1,continueButton,response_rating_scale_likert_active,2771.7999999988824,NA,NA,Somewhat Agree,1,0,1,0,NA,NA,NA,NA,1,statements,It will mean shops can open,1,17/05/2021 12:50,17/05/2021 12:55,305,Never,Never,32,Female,-99,"Postgraduate degree (MSc, MA, MPhil)",81,1,Against,For
29,1658936374258,27/07/2022 15:39:34,1658936374173,1,27/07/2022 16:39:34,94050,2,task-xidh,NA,23334940,6847706,NA,complete,NA,62e15b9da0604d7f3eb0c8f2,computer,Desktop or Laptop,Windows 10,Chrome 103.0.0.0,2560x1440,2560x1297,NA,ITT Ratings,3,For,9,NA,NA,NA,NA,NA,NA,NA,ACCEPT,NA,NA,batch9hes,batch9hes,46,27,1,Screen 1,continueButton,response_rating_scale_likert_active,4604.5,NA,NA,Somewhat Disagree,1,0,1,0,NA,NA,NA,NA,1,statements,The side effect of people around the world have been horrific,1,17/05/2021 12:59,17/05/2021 13:08,529,Most weeks,Most weeks,18,Female,-99,A levels,88,1,Against,Against
30,1658936377464,27/07/2022 15:39:37,1658936377355,1,27/07/2022 16:39:37,94050,2,task-xidh,NA,23334940,6847706,NA,complete,NA,62e15b9da0604d7f3eb0c8f2,computer,Desktop or Laptop,Windows 10,Chrome 103.0.0.0,2560x1440,2560x1297,NA,ITT Ratings,3,For,9,NA,NA,NA,NA,NA,NA,NA,ACCEPT,NA,NA,batch9hes,batch9hes,15,28,1,Screen 1,continueButton,response_rating_scale_likert_active,3167.89999999851,NA,NA,Somewhat Agree,1,0,1,0,NA,NA,NA,NA,1,statements,I want everything to go back to normal,1,17/05/2021 12:51,17/05/2021 12:58,428,Most weeks,Most months,20,Female,-99,A levels,82,3,Against,For
31,1658936379179,27/07/2022 15:39:39,1658936379097,1,27/07/2022 16:39:39,94050,2,task-xidh,NA,23334940,6847706,NA,complete,NA,62e15b9da0604d7f3eb0c8f2,computer,Desktop or Laptop,Windows 10,Chrome 103.0.0.0,2560x1440,2560x1297,NA,ITT Ratings,3,For,9,NA,NA,NA,NA,NA,NA,NA,ACCEPT,NA,NA,batch9hes,batch9hes,52,29,1,Screen 1,continueButton,response_rating_scale_likert_active,1727.9000000003723,NA,NA,Strongly Disagree,1,0,1,0,NA,NA,NA,NA,1,statements,I do not believe in Covid 19,1,17/05/2021 12:55,17/05/2021 13:08,764,Most months,Most weeks,40,Female,-99,A levels,89,1,Against,Against
32,1658936381360,27/07/2022 15:39:41,1658936381269,1,27/07/2022 16:39:41,94050,2,task-xidh,NA,23334940,6847706,NA,complete,NA,62e15b9da0604d7f3eb0c8f2,computer,Desktop or Laptop,Windows 10,Chrome 103.0.0.0,2560x1440,2560x1297,NA,ITT Ratings,3,For,9,NA,NA,NA,NA,NA,NA,NA,ACCEPT,NA,NA,batch9hes,batch9hes,58,30,1,Screen 1,continueButton,response_rating_scale_likert_active,2158.300000000745,NA,NA,Strongly Disagree,1,0,1,0,NA,NA,NA,NA,1,statements,The vaccine was formed to quickly,1,17/05/2021 12:51,17/05/2021 13:08,1010,Rarely,Rarely,31,Female,-99,"Postgraduate degree (MSc, MA, MPhil)",90,1,Against,Against
33,1658936385529,27/07/2022 15:39:45,1658936385449,1,27/07/2022 16:39:45,94050,2,task-xidh,NA,23334940,6847706,NA,complete,NA,62e15b9da0604d7f3eb0c8f2,computer,Desktop or Laptop,Windows 10,Chrome 103.0.0.0,2560x1440,2560x1297,NA,ITT Ratings,3,For,9,NA,NA,NA,NA,NA,NA,NA,ACCEPT,NA,NA,batch9hes,batch9hes,20,31,1,Screen 1,continueButton,response_rating_scale_likert_active,4169.4000000003725,NA,NA,Agree,1,0,1,0,NA,NA,NA,NA,1,statements,To be able to travel abroad,1,17/05/2021 12:50,17/05/2021 13:00,608,Rarely,Rarely,32,Male,-99,GCSEs,83,2,Against,For
34,1658936389467,27/07/2022 15:39:49,1658936389379,1,27/07/2022 16:39:49,94050,2,task-xidh,NA,23334940,6847706,NA,complete,NA,62e15b9da0604d7f3eb0c8f2,computer,Desktop or Laptop,Windows 10,Chrome 103.0.0.0,2560x1440,2560x1297,NA,ITT Ratings,3,For,9,NA,NA,NA,NA,NA,NA,NA,ACCEPT,NA,NA,batch9hes,batch9hes,36,32,1,Screen 1,continueButton,response_rating_scale_likert_active,3917.599999999627,NA,NA,Disagree,1,0,1,0,NA,NA,NA,NA,1,statements,"I do not trust the pharmaceutical companies producing the vaccines, nor the government, who are pushing them.",1,17/05/2021 12:51,17/05/2021 13:05,836,Rarely,A few times a year,33,Female,-99,"Undergraduate degree (BSc, BA)",86,3,Against,Against
35,1658936396246,27/07/2022 15:39:56,1658936396157,1,27/07/2022 16:39:56,94050,2,task-xidh,NA,23334940,6847706,NA,complete,NA,62e15b9da0604d7f3eb0c8f2,computer,Desktop or Laptop,Windows 10,Chrome 103.0.0.0,2560x1440,2560x1297,NA,ITT Ratings,3,For,9,NA,NA,NA,NA,NA,NA,NA,ACCEPT,NA,NA,batch9hes,batch9hes,43,33,1,Screen 1,continueButton,response_rating_scale_likert_active,6763.799999998882,NA,NA,Somewhat Disagree,1,0,1,0,NA,NA,NA,NA,1,statements,I believe everything the government and MSM tells me without question,1,17/05/2021 13:02,17/05/2021 13:07,303,Rarely,Most weeks,47,Female,-99,"Postgraduate degree (MSc, MA, MPhil)",87,1,Against,For
36,1658936401989,27/07/2022 15:40:01,1658936401901,1,27/07/2022 16:40:01,94050,2,task-xidh,NA,23334940,6847706,NA,complete,NA,62e15b9da0604d7f3eb0c8f2,computer,Desktop or Laptop,Windows 10,Chrome 103.0.0.0,2560x1440,2560x1297,NA,ITT Ratings,3,For,9,NA,NA,NA,NA,NA,NA,NA,ACCEPT,NA,NA,batch9hes,batch9hes,4,34,1,Screen 1,continueButton,response_rating_scale_likert_active,5730.699999999255,NA,NA,Disagree,1,0,1,0,NA,NA,NA,NA,1,statements,It is not safe to take as there have been adverse effects,1,17/05/2021 12:50,17/05/2021 12:55,305,Never,Never,32,Female,-99,"Postgraduate degree (MSc, MA, MPhil)",81,1,Against,Against
37,1658936408189,27/07/2022 15:40:08,1658936408091,1,27/07/2022 16:40:08,94050,2,task-xidh,NA,23334940,6847706,NA,complete,NA,62e15b9da0604d7f3eb0c8f2,computer,Desktop or Laptop,Windows 10,Chrome 103.0.0.0,2560x1440,2560x1297,NA,ITT Ratings,3,For,9,NA,NA,NA,NA,NA,NA,NA,ACCEPT,NA,NA,batch9hes,batch9hes,47,35,1,Screen 1,continueButton,response_rating_scale_likert_active,6113.199999999255,NA,NA,Disagree,1,0,1,0,NA,NA,NA,NA,1,statements,Not enough time to ensure safety and Covid isnÈt as bad as the flu,1,17/05/2021 12:59,17/05/2021 13:08,529,Most weeks,Most weeks,18,Female,-99,A levels,88,2,Against,Against
38,1658936411003,27/07/2022 15:40:11,1658936410918,1,27/07/2022 16:40:10,94050,2,task-xidh,NA,23334940,6847706,NA,complete,NA,62e15b9da0604d7f3eb0c8f2,computer,Desktop or Laptop,Windows 10,Chrome 103.0.0.0,2560x1440,2560x1297,NA,ITT Ratings,3,For,9,NA,NA,NA,NA,NA,NA,NA,ACCEPT,NA,NA,batch9hes,batch9hes,60,36,1,Screen 1,continueButton,response_rating_scale_likert_active,2815.300000000745,NA,NA,Disagree,1,0,1,0,NA,NA,NA,NA,1,statements,There is no evidence to show how effective it is,1,17/05/2021 12:51,17/05/2021 13:08,1010,Rarely,Rarely,31,Female,-99,"Postgraduate degree (MSc, MA, MPhil)",90,3,Against,Against
39,1658936415177,27/07/2022 15:40:15,1658936415093,1,27/07/2022 16:40:15,94050,2,task-xidh,NA,23334940,6847706,NA,complete,NA,62e15b9da0604d7f3eb0c8f2,computer,Desktop or Laptop,Windows 10,Chrome 103.0.0.0,2560x1440,2560x1297,NA,ITT Ratings,3,For,9,NA,NA,NA,NA,NA,NA,NA,ACCEPT,NA,NA,batch9hes,batch9hes,5,37,1,Screen 1,continueButton,response_rating_scale_likert_active,4159.800000000745,NA,NA,Neither Agree nor Disagree,1,0,1,0,NA,NA,NA,NA,1,statements,People get blood clots from it so it's unsafe to have,1,17/05/2021 12:50,17/05/2021 12:55,305,Never,Never,32,Female,-99,"Postgraduate degree (MSc, MA, MPhil)",81,2,Against,Against
40,1658936423868,27/07/2022 15:40:23,1658936423772,1,27/07/2022 16:40:23,94050,2,task-xidh,NA,23334940,6847706,NA,complete,NA,62e15b9da0604d7f3eb0c8f2,computer,Desktop or Laptop,Windows 10,Chrome 103.0.0.0,2560x1440,2560x1297,NA,ITT Ratings,3,For,9,NA,NA,NA,NA,NA,NA,NA,ACCEPT,NA,NA,batch9hes,batch9hes,63,38,1,Screen 1,continueButton,response_rating_scale_likert_active,8667.5,NA,NA,Neither Agree nor Disagree,1,0,1,0,NA,NA,NA,NA,1,statements,The  pharmaceutical companies make no profit from this they genuinely want to help,1,17/05/2021 12:51,17/05/2021 13:08,1010,Rarely,Rarely,31,Female,-99,"Postgraduate degree (MSc, MA, MPhil)",90,3,Against,For
41,1658936427288,27/07/2022 15:40:27,1658936427205,1,27/07/2022 16:40:27,94050,2,task-xidh,NA,23334940,6847706,NA,complete,NA,62e15b9da0604d7f3eb0c8f2,computer,Desktop or Laptop,Windows 10,Chrome 103.0.0.0,2560x1440,2560x1297,NA,ITT Ratings,3,For,9,NA,NA,NA,NA,NA,NA,NA,ACCEPT,NA,NA,batch9hes,batch9hes,12,39,1,Screen 1,continueButton,response_rating_scale_likert_active,3417.5999999996275,NA,NA,Neither Agree nor Disagree,1,0,1,0,NA,NA,NA,NA,1,statements,Fear of COVID and the whole ordeal,1,17/05/2021 12:51,17/05/2021 12:58,428,Most weeks,Most months,20,Female,-99,A levels,82,3,Against,Against
42,1658936430260,27/07/2022 15:40:30,1658936430165,1,27/07/2022 16:40:30,94050,2,task-xidh,NA,23334940,6847706,NA,complete,NA,62e15b9da0604d7f3eb0c8f2,computer,Desktop or Laptop,Windows 10,Chrome 103.0.0.0,2560x1440,2560x1297,NA,ITT Ratings,3,For,9,NA,NA,NA,NA,NA,NA,NA,ACCEPT,NA,NA,batch9hes,batch9hes,59,40,1,Screen 1,continueButton,response_rating_scale_likert_active,2948.300000000745,NA,NA,Somewhat Agree,1,0,1,0,NA,NA,NA,NA,1,statements,Some people have experienced bad side effects even death,1,17/05/2021 12:51,17/05/2021 13:08,1010,Rarely,Rarely,31,Female,-99,"Postgraduate degree (MSc, MA, MPhil)",90,2,Against,Against
43,1658936432450,27/07/2022 15:40:32,1658936432366,1,27/07/2022 16:40:32,94050,2,task-xidh,NA,23334940,6847706,NA,complete,NA,62e15b9da0604d7f3eb0c8f2,computer,Desktop or Laptop,Windows 10,Chrome 103.0.0.0,2560x1440,2560x1297,NA,ITT Ratings,3,For,9,NA,NA,NA,NA,NA,NA,NA,ACCEPT,NA,NA,batch9hes,batch9hes,53,41,1,Screen 1,continueButton,response_rating_scale_likert_active,2185.699999999255,NA,NA,Agree,1,0,1,0,NA,NA,NA,NA,1,statements,I trust my own immune system,1,17/05/2021 12:55,17/05/2021 13:08,764,Most months,Most weeks,40,Female,-99,A levels,89,2,Against,Against
44,1658936440985,27/07/2022 15:40:40,1658936440896,1,27/07/2022 16:40:40,94050,2,task-xidh,NA,23334940,6847706,NA,complete,NA,62e15b9da0604d7f3eb0c8f2,computer,Desktop or Laptop,Windows 10,Chrome 103.0.0.0,2560x1440,2560x1297,NA,ITT Ratings,3,For,9,NA,NA,NA,NA,NA,NA,NA,ACCEPT,NA,NA,batch9hes,batch9hes,55,42,1,Screen 1,continueButton,response_rating_scale_likert_active,8518,NA,NA,Neither Agree nor Disagree,1,0,1,0,NA,NA,NA,NA,1,statements,It's selfish not to get one. Think of others.,1,17/05/2021 12:55,17/05/2021 13:08,764,Most months,Most weeks,40,Female,-99,A levels,89,1,Against,For
45,1658936445836,27/07/2022 15:40:45,1658936445753,1,27/07/2022 16:40:45,94050,2,task-xidh,NA,23334940,6847706,NA,complete,NA,62e15b9da0604d7f3eb0c8f2,computer,Desktop or Laptop,Windows 10,Chrome 103.0.0.0,2560x1440,2560x1297,NA,ITT Ratings,3,For,9,NA,NA,NA,NA,NA,NA,NA,ACCEPT,NA,NA,batch9hes,batch9hes,42,43,1,Screen 1,continueButton,response_rating_scale_likert_active,4842.800000000745,NA,NA,Disagree,1,0,1,0,NA,NA,NA,NA,1,statements,They are still undergoing clinical trials and given the side effects and deaths from these vaccines to date these trials should have been stopped months ago,1,17/05/2021 13:02,17/05/2021 13:07,303,Rarely,Most weeks,47,Female,-99,"Postgraduate degree (MSc, MA, MPhil)",87,3,Against,Against
46,1658936450447,27/07/2022 15:40:50,1658936450349,1,27/07/2022 16:40:50,94050,2,task-xidh,NA,23334940,6847706,NA,complete,NA,62e15b9da0604d7f3eb0c8f2,computer,Desktop or Laptop,Windows 10,Chrome 103.0.0.0,2560x1440,2560x1297,NA,ITT Ratings,3,For,9,NA,NA,NA,NA,NA,NA,NA,ACCEPT,NA,NA,batch9hes,batch9hes,16,44,1,Screen 1,continueButton,response_rating_scale_likert_active,4581.800000000745,NA,NA,Disagree,1,0,1,0,NA,NA,NA,NA,1,statements,Taking the vaccine is not safe,1,17/05/2021 12:50,17/05/2021 13:00,608,Rarely,Rarely,32,Male,-99,GCSEs,83,1,Against,Against
47,1658936471699,27/07/2022 15:41:11,1658936471607,1,27/07/2022 16:41:11,94050,2,task-xidh,NA,23334940,6847706,NA,complete,NA,62e15b9da0604d7f3eb0c8f2,computer,Desktop or Laptop,Windows 10,Chrome 103.0.0.0,2560x1440,2560x1297,NA,ITT Ratings,3,For,9,NA,NA,NA,NA,NA,NA,NA,ACCEPT,NA,NA,batch9hes,batch9hes,22,45,1,Screen 1,continueButton,response_rating_scale_likert_active,21246.099999999627,NA,NA,Disagree,1,0,1,0,NA,NA,NA,NA,1,statements,Not enough trials on different people and ages,1,17/05/2021 12:56,17/05/2021 13:02,334,Rarely,Rarely,29,Female,-99,Vocational Training / Apprenticeship,84,1,Against,Against
48,1658936478178,27/07/2022 15:41:18,1658936478087,1,27/07/2022 16:41:18,94050,2,task-xidh,NA,23334940,6847706,NA,complete,NA,62e15b9da0604d7f3eb0c8f2,computer,Desktop or Laptop,Windows 10,Chrome 103.0.0.0,2560x1440,2560x1297,NA,ITT Ratings,3,For,9,NA,NA,NA,NA,NA,NA,NA,ACCEPT,NA,NA,batch9hes,batch9hes,41,46,1,Screen 1,continueButton,response_rating_scale_likert_active,6467.300000000745,NA,NA,Somewhat Disagree,1,0,1,0,NA,NA,NA,NA,1,statements,They are approved under emergency use authorisation only and are not approved,1,17/05/2021 13:02,17/05/2021 13:07,303,Rarely,Most weeks,47,Female,-99,"Postgraduate degree (MSc, MA, MPhil)",87,2,Against,Against
49,1658936480531,27/07/2022 15:41:20,1658936480439,1,27/07/2022 16:41:20,94050,2,task-xidh,NA,23334940,6847706,NA,complete,NA,62e15b9da0604d7f3eb0c8f2,computer,Desktop or Laptop,Windows 10,Chrome 103.0.0.0,2560x1440,2560x1297,NA,ITT Ratings,3,For,9,NA,NA,NA,NA,NA,NA,NA,ACCEPT,NA,NA,batch9hes,batch9hes,9,47,1,Screen 1,continueButton,response_rating_scale_likert_active,2340.5,NA,NA,Neither Agree nor Disagree,1,0,1,0,NA,NA,NA,NA,1,statements,It is the only way to open up society,1,17/05/2021 12:50,17/05/2021 12:55,305,Never,Never,32,Female,-99,"Postgraduate degree (MSc, MA, MPhil)",81,3,Against,For
50,1658936482702,27/07/2022 15:41:22,1658936482615,1,27/07/2022 16:41:22,94050,2,task-xidh,NA,23334940,6847706,NA,complete,NA,62e15b9da0604d7f3eb0c8f2,computer,Desktop or Laptop,Windows 10,Chrome 103.0.0.0,2560x1440,2560x1297,NA,ITT Ratings,3,For,9,NA,NA,NA,NA,NA,NA,NA,ACCEPT,NA,NA,batch9hes,batch9hes,23,48,1,Screen 1,continueButton,response_rating_scale_likert_active,2163.199999999255,NA,NA,Disagree,1,0,1,0,NA,NA,NA,NA,1,statements,Rushed vaccine and pushed on people to have it,1,17/05/2021 12:56,17/05/2021 13:02,334,Rarely,Rarely,29,Female,-99,Vocational Training / Apprenticeship,84,2,Against,Against
51,1658936485869,27/07/2022 15:41:25,1658936485775,1,27/07/2022 16:41:25,94050,2,task-xidh,NA,23334940,6847706,NA,complete,NA,62e15b9da0604d7f3eb0c8f2,computer,Desktop or Laptop,Windows 10,Chrome 103.0.0.0,2560x1440,2560x1297,NA,ITT Ratings,3,For,9,NA,NA,NA,NA,NA,NA,NA,ACCEPT,NA,NA,batch9hes,batch9hes,38,49,1,Screen 1,continueButton,response_rating_scale_likert_active,3147.9000000003725,NA,NA,Somewhat Disagree,1,0,1,0,NA,NA,NA,NA,1,statements,"I believe it's selfish to not take it, so comply.",1,17/05/2021 12:51,17/05/2021 13:05,836,Rarely,A few times a year,33,Female,-99,"Undergraduate degree (BSc, BA)",86,2,Against,For
52,1658936490098,27/07/2022 15:41:30,1658936490007,1,27/07/2022 16:41:30,94050,2,task-xidh,NA,23334940,6847706,NA,complete,NA,62e15b9da0604d7f3eb0c8f2,computer,Desktop or Laptop,Windows 10,Chrome 103.0.0.0,2560x1440,2560x1297,NA,ITT Ratings,3,For,9,NA,NA,NA,NA,NA,NA,NA,ACCEPT,NA,NA,batch9hes,batch9hes,8,50,1,Screen 1,continueButton,response_rating_scale_likert_active,4219.5,NA,NA,Somewhat Disagree,1,0,1,0,NA,NA,NA,NA,1,statements,It will mean that we can stop wearing masks,1,17/05/2021 12:50,17/05/2021 12:55,305,Never,Never,32,Female,-99,"Postgraduate degree (MSc, MA, MPhil)",81,2,Against,For
53,1658936492631,27/07/2022 15:41:32,1658936492541,1,27/07/2022 16:41:32,94050,2,task-xidh,NA,23334940,6847706,NA,complete,NA,62e15b9da0604d7f3eb0c8f2,computer,Desktop or Laptop,Windows 10,Chrome 103.0.0.0,2560x1440,2560x1297,NA,ITT Ratings,3,For,9,NA,NA,NA,NA,NA,NA,NA,ACCEPT,NA,NA,batch9hes,batch9hes,24,51,1,Screen 1,continueButton,response_rating_scale_likert_active,2521.7000000011176,NA,NA,Disagree,1,0,1,0,NA,NA,NA,NA,1,statements,Not enough proof Covid-19 was as bad as the world made out,1,17/05/2021 12:56,17/05/2021 13:02,334,Rarely,Rarely,29,Female,-99,Vocational Training / Apprenticeship,84,3,Against,Against
54,1658936497145,27/07/2022 15:41:37,1658936497057,1,27/07/2022 16:41:37,94050,2,task-xidh,NA,23334940,6847706,NA,complete,NA,62e15b9da0604d7f3eb0c8f2,computer,Desktop or Laptop,Windows 10,Chrome 103.0.0.0,2560x1440,2560x1297,NA,ITT Ratings,3,For,9,NA,NA,NA,NA,NA,NA,NA,ACCEPT,NA,NA,batch9hes,batch9hes,44,52,1,Screen 1,continueButton,response_rating_scale_likert_active,4503.700000001118,NA,NA,Agree,1,0,1,0,NA,NA,NA,NA,1,statements,"They said that they are safe and effective, so they must be, why would they lie?",1,17/05/2021 13:02,17/05/2021 13:07,303,Rarely,Most weeks,47,Female,-99,"Postgraduate degree (MSc, MA, MPhil)",87,2,Against,For
55,1658936500236,27/07/2022 15:41:40,1658936500141,1,27/07/2022 16:41:40,94050,2,task-xidh,NA,23334940,6847706,NA,complete,NA,62e15b9da0604d7f3eb0c8f2,computer,Desktop or Laptop,Windows 10,Chrome 103.0.0.0,2560x1440,2560x1297,NA,ITT Ratings,3,For,9,NA,NA,NA,NA,NA,NA,NA,ACCEPT,NA,NA,batch9hes,batch9hes,6,53,1,Screen 1,continueButton,response_rating_scale_likert_active,3072.0999999996275,NA,NA,Disagree,1,0,1,0,NA,NA,NA,NA,1,statements,There wasn't enough time to develop it,1,17/05/2021 12:50,17/05/2021 12:55,305,Never,Never,32,Female,-99,"Postgraduate degree (MSc, MA, MPhil)",81,3,Against,Against
56,1658936502549,27/07/2022 15:41:42,1658936502457,1,27/07/2022 16:41:42,94050,2,task-xidh,NA,23334940,6847706,NA,complete,NA,62e15b9da0604d7f3eb0c8f2,computer,Desktop or Laptop,Windows 10,Chrome 103.0.0.0,2560x1440,2560x1297,NA,ITT Ratings,3,For,9,NA,NA,NA,NA,NA,NA,NA,ACCEPT,NA,NA,batch9hes,batch9hes,31,54,1,Screen 1,continueButton,response_rating_scale_likert_active,2302.5,NA,NA,Agree,1,0,1,0,NA,NA,NA,NA,1,statements,I am concerned I will get covid and die,1,17/05/2021 12:56,17/05/2021 13:03,426,Most weeks,Most weeks,37,Female,-99,"Undergraduate degree (BSc, BA)",85,1,Against,For
57,1658936507538,27/07/2022 15:41:47,1658936507455,1,27/07/2022 16:41:47,94050,2,task-xidh,NA,23334940,6847706,NA,complete,NA,62e15b9da0604d7f3eb0c8f2,computer,Desktop or Laptop,Windows 10,Chrome 103.0.0.0,2560x1440,2560x1297,NA,ITT Ratings,3,For,9,NA,NA,NA,NA,NA,NA,NA,ACCEPT,NA,NA,batch9hes,batch9hes,30,55,1,Screen 1,continueButton,response_rating_scale_likert_active,4982.199999999255,NA,NA,Somewhat Disagree,1,0,1,0,NA,NA,NA,NA,1,statements,risk vs benefit - benefits don't outweigh the risks associated,1,17/05/2021 12:56,17/05/2021 13:03,426,Most weeks,Most weeks,37,Female,-99,"Undergraduate degree (BSc, BA)",85,3,Against,Against
58,1658936514103,27/07/2022 15:41:54,1658936514011,1,27/07/2022 16:41:54,94050,2,task-xidh,NA,23334940,6847706,NA,complete,NA,62e15b9da0604d7f3eb0c8f2,computer,Desktop or Laptop,Windows 10,Chrome 103.0.0.0,2560x1440,2560x1297,NA,ITT Ratings,3,For,9,NA,NA,NA,NA,NA,NA,NA,ACCEPT,NA,NA,batch9hes,batch9hes,37,56,1,Screen 1,continueButton,response_rating_scale_likert_active,6542.9000000003725,NA,NA,Somewhat Agree,1,0,1,0,NA,NA,NA,NA,1,statements,"I want to feel immune and get back to my normal, everyday life ASAP.",1,17/05/2021 12:51,17/05/2021 13:05,836,Rarely,A few times a year,33,Female,-99,"Undergraduate degree (BSc, BA)",86,1,Against,For
59,1658936516286,27/07/2022 15:41:56,1658936516193,1,27/07/2022 16:41:56,94050,2,task-xidh,NA,23334940,6847706,NA,complete,NA,62e15b9da0604d7f3eb0c8f2,computer,Desktop or Laptop,Windows 10,Chrome 103.0.0.0,2560x1440,2560x1297,NA,ITT Ratings,3,For,9,NA,NA,NA,NA,NA,NA,NA,ACCEPT,NA,NA,batch9hes,batch9hes,25,57,1,Screen 1,continueButton,response_rating_scale_likert_active,2163.0999999996275,NA,NA,Somewhat Agree,1,0,1,0,NA,NA,NA,NA,1,statements,Want to safe for myself,1,17/05/2021 12:56,17/05/2021 13:02,334,Rarely,Rarely,29,Female,-99,Vocational Training / Apprenticeship,84,1,Against,For
60,1658936519540,27/07/2022 15:41:59,1658936519451,1,27/07/2022 16:41:59,94050,2,task-xidh,NA,23334940,6847706,NA,complete,NA,62e15b9da0604d7f3eb0c8f2,computer,Desktop or Laptop,Windows 10,Chrome 103.0.0.0,2560x1440,2560x1297,NA,ITT Ratings,3,For,9,NA,NA,NA,NA,NA,NA,NA,ACCEPT,NA,NA,batch9hes,batch9hes,29,58,1,Screen 1,continueButton,response_rating_scale_likert_active,3246.199999999255,NA,NA,Neither Agree nor Disagree,1,0,1,0,NA,NA,NA,NA,1,statements,trial period ongoing until 2023,1,17/05/2021 12:56,17/05/2021 13:03,426,Most weeks,Most weeks,37,Female,-99,"Undergraduate degree (BSc, BA)",85,2,Against,Against
61,1658936526281,27/07/2022 15:42:06,1658936526189,1,27/07/2022 16:42:06,94050,2,task-xidh,NA,23334940,6847706,NA,complete,NA,62e15b9da0604d7f3eb0c8f2,computer,Desktop or Laptop,Windows 10,Chrome 103.0.0.0,2560x1440,2560x1297,NA,ITT Ratings,3,For,9,NA,NA,NA,NA,NA,NA,NA,ACCEPT,NA,NA,batch9hes,batch9hes,28,59,1,Screen 1,continueButton,response_rating_scale_likert_active,6724.5999999996275,NA,NA,Neither Agree nor Disagree,1,0,1,0,NA,NA,NA,NA,1,statements,there have been more deaths from adverse reactions to vaccines from this vaccine than any others within the last 20 years,1,17/05/2021 12:56,17/05/2021 13:03,426,Most weeks,Most weeks,37,Female,-99,"Undergraduate degree (BSc, BA)",85,1,Against,Against
62,1658936529669,27/07/2022 15:42:09,1658936529585,1,27/07/2022 16:42:09,94050,2,task-xidh,NA,23334940,6847706,NA,complete,NA,62e15b9da0604d7f3eb0c8f2,computer,Desktop or Laptop,Windows 10,Chrome 103.0.0.0,2560x1440,2560x1297,NA,ITT Ratings,3,For,9,NA,NA,NA,NA,NA,NA,NA,ACCEPT,NA,NA,batch9hes,batch9hes,14,60,1,Screen 1,continueButton,response_rating_scale_likert_active,3383.5,NA,NA,Agree,1,0,1,0,NA,NA,NA,NA,1,statements,I can feel relaxed about COVID,1,17/05/2021 12:51,17/05/2021 12:58,428,Most weeks,Most months,20,Female,-99,A levels,82,2,Against,For
63,1658936531312,27/07/2022 15:42:11,1658936531219,1,27/07/2022 16:42:11,94050,2,task-xidh,NA,23334940,6847706,NA,complete,NA,62e15b9da0604d7f3eb0c8f2,computer,Desktop or Laptop,Windows 10,Chrome 103.0.0.0,2560x1440,2560x1297,NA,ITT Ratings,3,For,9,NA,NA,NA,NA,NA,NA,NA,ACCEPT,NA,NA,batch9hes,batch9hes,40,61,1,Screen 1,continueButton,response_rating_scale_likert_active,1623.800000000745,NA,NA,Somewhat Disagree,1,0,1,0,NA,NA,NA,NA,1,statements,There is no need for it,1,17/05/2021 13:02,17/05/2021 13:07,303,Rarely,Most weeks,47,Female,-99,"Postgraduate degree (MSc, MA, MPhil)",87,1,Against,Against
64,1658936537701,27/07/2022 15:42:17,1658936537618,1,27/07/2022 16:42:17,94050,2,task-xidh,NA,23334940,6847706,NA,complete,NA,62e15b9da0604d7f3eb0c8f2,computer,Desktop or Laptop,Windows 10,Chrome 103.0.0.0,2560x1440,2560x1297,NA,ITT Ratings,3,For,9,NA,NA,NA,NA,NA,NA,NA,ACCEPT,NA,NA,batch9hes,batch9hes,35,62,1,Screen 1,continueButton,response_rating_scale_likert_active,6390.5,NA,NA,Strongly Disagree,1,0,1,0,NA,NA,NA,NA,1,statements,I do not want to put foreign substances into my body and would rather rely on building my immune system naturally.,1,17/05/2021 12:51,17/05/2021 13:05,836,Rarely,A few times a year,33,Female,-99,"Undergraduate degree (BSc, BA)",86,2,Against,Against
65,1658936537790,27/07/2022 15:42:17,1658936537626,1,27/07/2022 16:42:17,94050,2,task-xidh,NA,23334940,6847706,NA,complete,NA,62e15b9da0604d7f3eb0c8f2,computer,Desktop or Laptop,Windows 10,Chrome 103.0.0.0,2560x1440,2560x1297,NA,ITT Ratings,3,For,9,NA,NA,NA,NA,NA,NA,NA,ACCEPT,NA,NA,batch9hes,NA,NA,END TASK,NA,NA,NA,NA,276923,NA,NA,NA,NA,0,1,0,NA,NA,NA,NA,NA,NA,NA,NA,NA,NA,NA,NA,NA,NA,NA,NA,NA,NA,NA,NA,NA
1,1658936311800,27/07/2022 15:38:31,1658936311570,1,27/07/2022 16:38:31,94050,2,task-xidh,NA,23334956,6847713,NA,complete,NA,62e15bd48a1671669f158e0c,mobile,Apple iPhone,iOS 15.5,Chrome 103.0.5060.63,390x844,844x334,NA,ITT Ratings,3,For,9,NA,NA,NA,NA,NA,NA,NA,ACCEPT,NA,NA,batch9hes,NA,NA,BEGIN TASK,NA,NA,NA,NA,NA,NA,NA,NA,NA,0,1,0,NA,NA,NA,NA,NA,NA,NA,NA,NA,NA,NA,NA,NA,NA,NA,NA,NA,NA,NA,NA,NA
2,1658936318127,27/07/2022 15:38:38,1658936317954,1,27/07/2022 16:38:37,94050,2,task-xidh,NA,23334956,6847713,NA,complete,NA,62e15bd48a1671669f158e0c,mobile,Apple iPhone,iOS 15.5,Chrome 103.0.5060.63,390x844,750x334,NA,ITT Ratings,3,For,9,NA,NA,NA,NA,NA,NA,NA,ACCEPT,NA,NA,batch9hes,batch9hes,1,1,1,Screen 1,advancementZone,continue_button,6348,NA,NA,NA,NA,0,1,0,NA,NA,NA,NA,NA,instructions,NA,NA,NA,NA,NA,NA,NA,NA,NA,NA,NA,NA,NA,NA,NA
3,1658936321926,27/07/2022 15:38:41,1658936321736,1,27/07/2022 16:38:41,94050,2,task-xidh,NA,23334956,6847713,NA,complete,NA,62e15bd48a1671669f158e0c,mobile,Apple iPhone,iOS 15.5,Chrome 103.0.5060.63,390x844,750x334,NA,ITT Ratings,3,For,9,NA,NA,NA,NA,NA,NA,NA,ACCEPT,NA,NA,batch9hes,batch9hes,11,1,1,Screen 1,continueButton,response_rating_scale_likert_active,3761,NA,NA,Strongly Disagree,1,0,1,0,NA,NA,NA,NA,1,statements,I don't like having vaccinations,1,17/05/2021 12:51,17/05/2021 12:58,428,Most weeks,Most months,20,Female,-99,A levels,82,2,Against,Against
4,1658936326838,27/07/2022 15:38:46,1658936326665,1,27/07/2022 16:38:46,94050,2,task-xidh,NA,23334956,6847713,NA,complete,NA,62e15bd48a1671669f158e0c,mobile,Apple iPhone,iOS 15.5,Chrome 103.0.5060.63,390x844,750x334,NA,ITT Ratings,3,For,9,NA,NA,NA,NA,NA,NA,NA,ACCEPT,NA,NA,batch9hes,batch9hes,23,2,1,Screen 1,continueButton,response_rating_scale_likert_active,4911.000000000002,NA,NA,Strongly Disagree,1,0,1,0,NA,NA,NA,NA,1,statements,Rushed vaccine and pushed on people to have it,1,17/05/2021 12:56,17/05/2021 13:02,334,Rarely,Rarely,29,Female,-99,Vocational Training / Apprenticeship,84,2,Against,Against
5,1658936330098,27/07/2022 15:38:50,1658936329894,1,27/07/2022 16:38:49,94050,2,task-xidh,NA,23334956,6847713,NA,complete,NA,62e15bd48a1671669f158e0c,mobile,Apple iPhone,iOS 15.5,Chrome 103.0.5060.63,390x844,750x334,NA,ITT Ratings,3,For,9,NA,NA,NA,NA,NA,NA,NA,ACCEPT,NA,NA,batch9hes,batch9hes,62,3,1,Screen 1,continueButton,response_rating_scale_likert_active,3212,NA,NA,Somewhat Agree,1,0,1,0,NA,NA,NA,NA,1,statements,"The vaccine only gives you minor side effects such as fatigue, fever",1,17/05/2021 12:51,17/05/2021 13:08,1010,Rarely,Rarely,31,Female,-99,"Postgraduate degree (MSc, MA, MPhil)",90,2,Against,For
6,1658936334102,27/07/2022 15:38:54,1658936333909,1,27/07/2022 16:38:53,94050,2,task-xidh,NA,23334956,6847713,NA,complete,NA,62e15bd48a1671669f158e0c,mobile,Apple iPhone,iOS 15.5,Chrome 103.0.5060.63,390x844,750x334,NA,ITT Ratings,3,For,9,NA,NA,NA,NA,NA,NA,NA,ACCEPT,NA,NA,batch9hes,batch9hes,3,4,1,Screen 1,continueButton,response_rating_scale_likert_active,3995,NA,NA,Somewhat Disagree,1,0,1,0,NA,NA,NA,NA,1,statements,We would like to check you are reading each argument carefully. Please select 'Somewhat Disagree' for this answer,1,NA,NA,NA,NA,NA,NA,NA,NA,NA,NA,check2,NA,NA
7,1658936335928,27/07/2022 15:38:55,1658936335723,1,27/07/2022 16:38:55,94050,2,task-xidh,NA,23334956,6847713,NA,complete,NA,62e15bd48a1671669f158e0c,mobile,Apple iPhone,iOS 15.5,Chrome 103.0.5060.63,390x844,750x334,NA,ITT Ratings,3,For,9,NA,NA,NA,NA,NA,NA,NA,ACCEPT,NA,NA,batch9hes,batch9hes,31,5,1,Screen 1,continueButton,response_rating_scale_likert_active,1794.9999999999964,NA,NA,Strongly Disagree,1,0,1,0,NA,NA,NA,NA,1,statements,I am concerned I will get covid and die,1,17/05/2021 12:56,17/05/2021 13:03,426,Most weeks,Most weeks,37,Female,-99,"Undergraduate degree (BSc, BA)",85,1,Against,For
8,1658936341052,27/07/2022 15:39:01,1658936340853,1,27/07/2022 16:39:00,94050,2,task-xidh,NA,23334956,6847713,NA,complete,NA,62e15bd48a1671669f158e0c,mobile,Apple iPhone,iOS 15.5,Chrome 103.0.5060.63,390x844,750x334,NA,ITT Ratings,3,For,9,NA,NA,NA,NA,NA,NA,NA,ACCEPT,NA,NA,batch9hes,batch9hes,41,6,1,Screen 1,continueButton,response_rating_scale_likert_active,5112,NA,NA,Disagree,1,0,1,0,NA,NA,NA,NA,1,statements,They are approved under emergency use authorisation only and are not approved,1,17/05/2021 13:02,17/05/2021 13:07,303,Rarely,Most weeks,47,Female,-99,"Postgraduate degree (MSc, MA, MPhil)",87,2,Against,Against
9,1658936343406,27/07/2022 15:39:03,1658936343186,1,27/07/2022 16:39:03,94050,2,task-xidh,NA,23334956,6847713,NA,complete,NA,62e15bd48a1671669f158e0c,mobile,Apple iPhone,iOS 15.5,Chrome 103.0.5060.63,390x844,750x334,NA,ITT Ratings,3,For,9,NA,NA,NA,NA,NA,NA,NA,ACCEPT,NA,NA,batch9hes,batch9hes,36,7,1,Screen 1,continueButton,response_rating_scale_likert_active,2317,NA,NA,Strongly Disagree,1,0,1,0,NA,NA,NA,NA,1,statements,"I do not trust the pharmaceutical companies producing the vaccines, nor the government, who are pushing them.",1,17/05/2021 12:51,17/05/2021 13:05,836,Rarely,A few times a year,33,Female,-99,"Undergraduate degree (BSc, BA)",86,3,Against,Against
10,1658936348016,27/07/2022 15:39:08,1658936347866,1,27/07/2022 16:39:07,94050,2,task-xidh,NA,23334956,6847713,NA,complete,NA,62e15bd48a1671669f158e0c,mobile,Apple iPhone,iOS 15.5,Chrome 103.0.5060.63,390x844,750x334,NA,ITT Ratings,3,For,9,NA,NA,NA,NA,NA,NA,NA,ACCEPT,NA,NA,batch9hes,batch9hes,59,8,1,Screen 1,continueButton,response_rating_scale_likert_active,4666.000000000007,NA,NA,Disagree,1,0,1,0,NA,NA,NA,NA,1,statements,Some people have experienced bad side effects even death,1,17/05/2021 12:51,17/05/2021 13:08,1010,Rarely,Rarely,31,Female,-99,"Postgraduate degree (MSc, MA, MPhil)",90,2,Against,Against
11,1658936350889,27/07/2022 15:39:10,1658936350679,1,27/07/2022 16:39:10,94050,2,task-xidh,NA,23334956,6847713,NA,complete,NA,62e15bd48a1671669f158e0c,mobile,Apple iPhone,iOS 15.5,Chrome 103.0.5060.63,390x844,750x334,NA,ITT Ratings,3,For,9,NA,NA,NA,NA,NA,NA,NA,ACCEPT,NA,NA,batch9hes,batch9hes,39,9,1,Screen 1,continueButton,response_rating_scale_likert_active,2797,NA,NA,Strongly Disagree,1,0,1,0,NA,NA,NA,NA,1,statements,"Peer pressure. my friends have taken it, so I believe I should too.",1,17/05/2021 12:51,17/05/2021 13:05,836,Rarely,A few times a year,33,Female,-99,"Undergraduate degree (BSc, BA)",86,3,Against,For
12,1658936352742,27/07/2022 15:39:12,1658936352548,1,27/07/2022 16:39:12,94050,2,task-xidh,NA,23334956,6847713,NA,complete,NA,62e15bd48a1671669f158e0c,mobile,Apple iPhone,iOS 15.5,Chrome 103.0.5060.63,390x844,750x334,NA,ITT Ratings,3,For,9,NA,NA,NA,NA,NA,NA,NA,ACCEPT,NA,NA,batch9hes,batch9hes,58,10,1,Screen 1,continueButton,response_rating_scale_likert_active,1853,NA,NA,Disagree,1,0,1,0,NA,NA,NA,NA,1,statements,The vaccine was formed to quickly,1,17/05/2021 12:51,17/05/2021 13:08,1010,Rarely,Rarely,31,Female,-99,"Postgraduate degree (MSc, MA, MPhil)",90,1,Against,Against
13,1658936354063,27/07/2022 15:39:14,1658936353861,1,27/07/2022 16:39:13,94050,2,task-xidh,NA,23334956,6847713,NA,complete,NA,62e15bd48a1671669f158e0c,mobile,Apple iPhone,iOS 15.5,Chrome 103.0.5060.63,390x844,750x334,NA,ITT Ratings,3,For,9,NA,NA,NA,NA,NA,NA,NA,ACCEPT,NA,NA,batch9hes,batch9hes,40,11,1,Screen 1,continueButton,response_rating_scale_likert_active,1299,NA,NA,Strongly Disagree,1,0,1,0,NA,NA,NA,NA,1,statements,There is no need for it,1,17/05/2021 13:02,17/05/2021 13:07,303,Rarely,Most weeks,47,Female,-99,"Postgraduate degree (MSc, MA, MPhil)",87,1,Against,Against
14,1658936356023,27/07/2022 15:39:16,1658936355861,1,27/07/2022 16:39:15,94050,2,task-xidh,NA,23334956,6847713,NA,complete,NA,62e15bd48a1671669f158e0c,mobile,Apple iPhone,iOS 15.5,Chrome 103.0.5060.63,390x844,750x334,NA,ITT Ratings,3,For,9,NA,NA,NA,NA,NA,NA,NA,ACCEPT,NA,NA,batch9hes,batch9hes,14,12,1,Screen 1,continueButton,response_rating_scale_likert_active,1977,NA,NA,Somewhat Agree,1,0,1,0,NA,NA,NA,NA,1,statements,I can feel relaxed about COVID,1,17/05/2021 12:51,17/05/2021 12:58,428,Most weeks,Most months,20,Female,-99,A levels,82,2,Against,For
15,1658936359788,27/07/2022 15:39:19,1658936359574,1,27/07/2022 16:39:19,94050,2,task-xidh,NA,23334956,6847713,NA,complete,NA,62e15bd48a1671669f158e0c,mobile,Apple iPhone,iOS 15.5,Chrome 103.0.5060.63,390x844,750x334,NA,ITT Ratings,3,For,9,NA,NA,NA,NA,NA,NA,NA,ACCEPT,NA,NA,batch9hes,batch9hes,32,13,1,Screen 1,continueButton,response_rating_scale_likert_active,3698,NA,NA,Agree,1,0,1,0,NA,NA,NA,NA,1,statements,reduce the spread to others,1,17/05/2021 12:56,17/05/2021 13:03,426,Most weeks,Most weeks,37,Female,-99,"Undergraduate degree (BSc, BA)",85,2,Against,For
16,1658936362159,27/07/2022 15:39:22,1658936361922,1,27/07/2022 16:39:21,94050,2,task-xidh,NA,23334956,6847713,NA,complete,NA,62e15bd48a1671669f158e0c,mobile,Apple iPhone,iOS 15.5,Chrome 103.0.5060.63,390x844,750x334,NA,ITT Ratings,3,For,9,NA,NA,NA,NA,NA,NA,NA,ACCEPT,NA,NA,batch9hes,batch9hes,57,14,1,Screen 1,continueButton,response_rating_scale_likert_active,2334,NA,NA,Agree,1,0,1,0,NA,NA,NA,NA,1,statements,It's reccomended that we take the vaccine.,1,17/05/2021 12:55,17/05/2021 13:08,764,Most months,Most weeks,40,Female,-99,A levels,89,3,Against,For
17,1658936364811,27/07/2022 15:39:24,1658936364551,1,27/07/2022 16:39:24,94050,2,task-xidh,NA,23334956,6847713,NA,complete,NA,62e15bd48a1671669f158e0c,mobile,Apple iPhone,iOS 15.5,Chrome 103.0.5060.63,390x844,750x334,NA,ITT Ratings,3,For,9,NA,NA,NA,NA,NA,NA,NA,ACCEPT,NA,NA,batch9hes,batch9hes,4,15,1,Screen 1,continueButton,response_rating_scale_likert_active,2614.0000000000073,NA,NA,Disagree,1,0,1,0,NA,NA,NA,NA,1,statements,It is not safe to take as there have been adverse effects,1,17/05/2021 12:50,17/05/2021 12:55,305,Never,Never,32,Female,-99,"Postgraduate degree (MSc, MA, MPhil)",81,1,Against,Against
18,1658936367385,27/07/2022 15:39:27,1658936367269,1,27/07/2022 16:39:27,94050,2,task-xidh,NA,23334956,6847713,NA,complete,NA,62e15bd48a1671669f158e0c,mobile,Apple iPhone,iOS 15.5,Chrome 103.0.5060.63,390x844,750x334,NA,ITT Ratings,3,For,9,NA,NA,NA,NA,NA,NA,NA,ACCEPT,NA,NA,batch9hes,batch9hes,56,16,1,Screen 1,continueButton,response_rating_scale_likert_active,2703,NA,NA,Neither Agree nor Disagree,1,0,1,0,NA,NA,NA,NA,1,statements,I do not want to get covid19,1,17/05/2021 12:55,17/05/2021 13:08,764,Most months,Most weeks,40,Female,-99,A levels,89,2,Against,For
19,1658936369639,27/07/2022 15:39:29,1658936369399,1,27/07/2022 16:39:29,94050,2,task-xidh,NA,23334956,6847713,NA,complete,NA,62e15bd48a1671669f158e0c,mobile,Apple iPhone,iOS 15.5,Chrome 103.0.5060.63,390x844,750x334,NA,ITT Ratings,3,For,9,NA,NA,NA,NA,NA,NA,NA,ACCEPT,NA,NA,batch9hes,batch9hes,7,17,1,Screen 1,continueButton,response_rating_scale_likert_active,2116,NA,NA,Neither Agree nor Disagree,1,0,1,0,NA,NA,NA,NA,1,statements,It will mean shops can open,1,17/05/2021 12:50,17/05/2021 12:55,305,Never,Never,32,Female,-99,"Postgraduate degree (MSc, MA, MPhil)",81,1,Against,For
20,1658936371573,27/07/2022 15:39:31,1658936371429,1,27/07/2022 16:39:31,94050,2,task-xidh,NA,23334956,6847713,NA,complete,NA,62e15bd48a1671669f158e0c,mobile,Apple iPhone,iOS 15.5,Chrome 103.0.5060.63,390x844,750x334,NA,ITT Ratings,3,For,9,NA,NA,NA,NA,NA,NA,NA,ACCEPT,NA,NA,batch9hes,batch9hes,6,18,1,Screen 1,continueButton,response_rating_scale_likert_active,2013,NA,NA,Disagree,1,0,1,0,NA,NA,NA,NA,1,statements,There wasn't enough time to develop it,1,17/05/2021 12:50,17/05/2021 12:55,305,Never,Never,32,Female,-99,"Postgraduate degree (MSc, MA, MPhil)",81,3,Against,Against
21,1658936376049,27/07/2022 15:39:36,1658936375927,1,27/07/2022 16:39:35,94050,2,task-xidh,NA,23334956,6847713,NA,complete,NA,62e15bd48a1671669f158e0c,mobile,Apple iPhone,iOS 15.5,Chrome 103.0.5060.63,390x844,750x334,NA,ITT Ratings,3,For,9,NA,NA,NA,NA,NA,NA,NA,ACCEPT,NA,NA,batch9hes,batch9hes,9,19,1,Screen 1,continueButton,response_rating_scale_likert_active,4485,NA,NA,Somewhat Agree,1,0,1,0,NA,NA,NA,NA,1,statements,It is the only way to open up society,1,17/05/2021 12:50,17/05/2021 12:55,305,Never,Never,32,Female,-99,"Postgraduate degree (MSc, MA, MPhil)",81,3,Against,For
22,1658936379658,27/07/2022 15:39:39,1658936379527,1,27/07/2022 16:39:39,94050,2,task-xidh,NA,23334956,6847713,NA,complete,NA,62e15bd48a1671669f158e0c,mobile,Apple iPhone,iOS 15.5,Chrome 103.0.5060.63,390x844,750x334,NA,ITT Ratings,3,For,9,NA,NA,NA,NA,NA,NA,NA,ACCEPT,NA,NA,batch9hes,batch9hes,47,20,1,Screen 1,continueButton,response_rating_scale_likert_active,3580,NA,NA,Strongly Disagree,1,0,1,0,NA,NA,NA,NA,1,statements,Not enough time to ensure safety and Covid isnÈt as bad as the flu,1,17/05/2021 12:59,17/05/2021 13:08,529,Most weeks,Most weeks,18,Female,-99,A levels,88,2,Against,Against
23,1658936385809,27/07/2022 15:39:45,1658936385620,1,27/07/2022 16:39:45,94050,2,task-xidh,NA,23334956,6847713,NA,complete,NA,62e15bd48a1671669f158e0c,mobile,Apple iPhone,iOS 15.5,Chrome 103.0.5060.63,390x844,750x334,NA,ITT Ratings,3,For,9,NA,NA,NA,NA,NA,NA,NA,ACCEPT,NA,NA,batch9hes,batch9hes,43,21,1,Screen 1,continueButton,response_rating_scale_likert_active,6078,NA,NA,Strongly Disagree,1,0,1,0,NA,NA,NA,NA,1,statements,I believe everything the government and MSM tells me without question,1,17/05/2021 13:02,17/05/2021 13:07,303,Rarely,Most weeks,47,Female,-99,"Postgraduate degree (MSc, MA, MPhil)",87,1,Against,For
24,1658936386929,27/07/2022 15:39:46,1658936386738,1,27/07/2022 16:39:46,94050,2,task-xidh,NA,23334956,6847713,NA,complete,NA,62e15bd48a1671669f158e0c,mobile,Apple iPhone,iOS 15.5,Chrome 103.0.5060.63,390x844,750x334,NA,ITT Ratings,3,For,9,NA,NA,NA,NA,NA,NA,NA,ACCEPT,NA,NA,batch9hes,batch9hes,33,22,1,Screen 1,continueButton,response_rating_scale_likert_active,1103,NA,NA,Strongly Disagree,1,0,1,0,NA,NA,NA,NA,1,statements,government told me to,1,17/05/2021 12:56,17/05/2021 13:03,426,Most weeks,Most weeks,37,Female,-99,"Undergraduate degree (BSc, BA)",85,3,Against,For
25,1658936391641,27/07/2022 15:39:51,1658936391468,1,27/07/2022 16:39:51,94050,2,task-xidh,NA,23334956,6847713,NA,complete,NA,62e15bd48a1671669f158e0c,mobile,Apple iPhone,iOS 15.5,Chrome 103.0.5060.63,390x844,750x334,NA,ITT Ratings,3,For,9,NA,NA,NA,NA,NA,NA,NA,ACCEPT,NA,NA,batch9hes,batch9hes,37,23,1,Screen 1,continueButton,response_rating_scale_likert_active,4712.000000000015,NA,NA,Somewhat Agree,1,0,1,0,NA,NA,NA,NA,1,statements,"I want to feel immune and get back to my normal, everyday life ASAP.",1,17/05/2021 12:51,17/05/2021 13:05,836,Rarely,A few times a year,33,Female,-99,"Undergraduate degree (BSc, BA)",86,1,Against,For
26,1658936394204,27/07/2022 15:39:54,1658936393982,1,27/07/2022 16:39:53,94050,2,task-xidh,NA,23334956,6847713,NA,complete,NA,62e15bd48a1671669f158e0c,mobile,Apple iPhone,iOS 15.5,Chrome 103.0.5060.63,390x844,750x334,NA,ITT Ratings,3,For,9,NA,NA,NA,NA,NA,NA,NA,ACCEPT,NA,NA,batch9hes,batch9hes,16,24,1,Screen 1,continueButton,response_rating_scale_likert_active,2499.0000000000146,NA,NA,Strongly Disagree,1,0,1,0,NA,NA,NA,NA,1,statements,Taking the vaccine is not safe,1,17/05/2021 12:50,17/05/2021 13:00,608,Rarely,Rarely,32,Male,-99,GCSEs,83,1,Against,Against
27,1658936396145,27/07/2022 15:39:56,1658936395980,1,27/07/2022 16:39:55,94050,2,task-xidh,NA,23334956,6847713,NA,complete,NA,62e15bd48a1671669f158e0c,mobile,Apple iPhone,iOS 15.5,Chrome 103.0.5060.63,390x844,750x334,NA,ITT Ratings,3,For,9,NA,NA,NA,NA,NA,NA,NA,ACCEPT,NA,NA,batch9hes,batch9hes,34,25,1,Screen 1,continueButton,response_rating_scale_likert_active,1982.0000000000143,NA,NA,Disagree,1,0,1,0,NA,NA,NA,NA,1,statements,The vaccines are new and haven't been tested for long enough to know the long term side-effects.,1,17/05/2021 12:51,17/05/2021 13:05,836,Rarely,A few times a year,33,Female,-99,"Undergraduate degree (BSc, BA)",86,1,Against,Against
28,1658936414691,27/07/2022 15:40:14,1658936414453,1,27/07/2022 16:40:14,94050,2,task-xidh,NA,23334956,6847713,NA,complete,NA,62e15bd48a1671669f158e0c,mobile,Apple iPhone,iOS 15.5,Chrome 103.0.5060.63,390x844,750x334,NA,ITT Ratings,3,For,9,NA,NA,NA,NA,NA,NA,NA,ACCEPT,NA,NA,batch9hes,batch9hes,2,26,1,Screen 1,continueButton,response_rating_scale_likert_active,18456.000000000015,NA,NA,Somewhat Agree,1,0,1,0,NA,NA,NA,NA,1,statements,We would like to check you are reading each argument carefully. Please select 'Somewhat Agree' for this answer,1,NA,NA,NA,NA,NA,NA,NA,NA,NA,NA,check1,NA,NA
29,1658936416225,27/07/2022 15:40:16,1658936416082,1,27/07/2022 16:40:16,94050,2,task-xidh,NA,23334956,6847713,NA,complete,NA,62e15bd48a1671669f158e0c,mobile,Apple iPhone,iOS 15.5,Chrome 103.0.5060.63,390x844,750x334,NA,ITT Ratings,3,For,9,NA,NA,NA,NA,NA,NA,NA,ACCEPT,NA,NA,batch9hes,batch9hes,27,27,1,Screen 1,continueButton,response_rating_scale_likert_active,1607.9999999999854,NA,NA,Somewhat Agree,1,0,1,0,NA,NA,NA,NA,1,statements,Want to travel abroad,1,17/05/2021 12:56,17/05/2021 13:02,334,Rarely,Rarely,29,Female,-99,Vocational Training / Apprenticeship,84,3,Against,For
30,1658936418976,27/07/2022 15:40:18,1658936418793,1,27/07/2022 16:40:18,94050,2,task-xidh,NA,23334956,6847713,NA,complete,NA,62e15bd48a1671669f158e0c,mobile,Apple iPhone,iOS 15.5,Chrome 103.0.5060.63,390x844,750x334,NA,ITT Ratings,3,For,9,NA,NA,NA,NA,NA,NA,NA,ACCEPT,NA,NA,batch9hes,batch9hes,35,28,1,Screen 1,continueButton,response_rating_scale_likert_active,2696,NA,NA,Strongly Disagree,1,0,1,0,NA,NA,NA,NA,1,statements,I do not want to put foreign substances into my body and would rather rely on building my immune system naturally.,1,17/05/2021 12:51,17/05/2021 13:05,836,Rarely,A few times a year,33,Female,-99,"Undergraduate degree (BSc, BA)",86,2,Against,Against
31,1658936420821,27/07/2022 15:40:20,1658936420592,1,27/07/2022 16:40:20,94050,2,task-xidh,NA,23334956,6847713,NA,complete,NA,62e15bd48a1671669f158e0c,mobile,Apple iPhone,iOS 15.5,Chrome 103.0.5060.63,390x844,750x334,NA,ITT Ratings,3,For,9,NA,NA,NA,NA,NA,NA,NA,ACCEPT,NA,NA,batch9hes,batch9hes,10,29,1,Screen 1,continueButton,response_rating_scale_likert_active,1782,NA,NA,Strongly Disagree,1,0,1,0,NA,NA,NA,NA,1,statements,I don't trust the vaccination and the intentions,1,17/05/2021 12:51,17/05/2021 12:58,428,Most weeks,Most months,20,Female,-99,A levels,82,1,Against,Against
32,1658936424933,27/07/2022 15:40:24,1658936424692,1,27/07/2022 16:40:24,94050,2,task-xidh,NA,23334956,6847713,NA,complete,NA,62e15bd48a1671669f158e0c,mobile,Apple iPhone,iOS 15.5,Chrome 103.0.5060.63,390x844,750x334,NA,ITT Ratings,3,For,9,NA,NA,NA,NA,NA,NA,NA,ACCEPT,NA,NA,batch9hes,batch9hes,26,30,1,Screen 1,continueButton,response_rating_scale_likert_active,4086,NA,NA,Agree,1,0,1,0,NA,NA,NA,NA,1,statements,Want to be safe around other people,1,17/05/2021 12:56,17/05/2021 13:02,334,Rarely,Rarely,29,Female,-99,Vocational Training / Apprenticeship,84,2,Against,For
33,1658936426155,27/07/2022 15:40:26,1658936425972,1,27/07/2022 16:40:25,94050,2,task-xidh,NA,23334956,6847713,NA,complete,NA,62e15bd48a1671669f158e0c,mobile,Apple iPhone,iOS 15.5,Chrome 103.0.5060.63,390x844,750x334,NA,ITT Ratings,3,For,9,NA,NA,NA,NA,NA,NA,NA,ACCEPT,NA,NA,batch9hes,batch9hes,15,31,1,Screen 1,continueButton,response_rating_scale_likert_active,1260,NA,NA,Somewhat Agree,1,0,1,0,NA,NA,NA,NA,1,statements,I want everything to go back to normal,1,17/05/2021 12:51,17/05/2021 12:58,428,Most weeks,Most months,20,Female,-99,A levels,82,3,Against,For
34,1658936431075,27/07/2022 15:40:31,1658936430920,1,27/07/2022 16:40:30,94050,2,task-xidh,NA,23334956,6847713,NA,complete,NA,62e15bd48a1671669f158e0c,mobile,Apple iPhone,iOS 15.5,Chrome 103.0.5060.63,390x844,750x334,NA,ITT Ratings,3,For,9,NA,NA,NA,NA,NA,NA,NA,ACCEPT,NA,NA,batch9hes,batch9hes,61,32,1,Screen 1,continueButton,response_rating_scale_likert_active,4931.999999999985,NA,NA,Agree,1,0,1,0,NA,NA,NA,NA,1,statements,The vaccine has gone through 3 trials where it was tested on thousands of people before coming into the market,1,17/05/2021 12:51,17/05/2021 13:08,1010,Rarely,Rarely,31,Female,-99,"Postgraduate degree (MSc, MA, MPhil)",90,1,Against,For
35,1658936432819,27/07/2022 15:40:32,1658936432654,1,27/07/2022 16:40:32,94050,2,task-xidh,NA,23334956,6847713,NA,complete,NA,62e15bd48a1671669f158e0c,mobile,Apple iPhone,iOS 15.5,Chrome 103.0.5060.63,390x844,750x334,NA,ITT Ratings,3,For,9,NA,NA,NA,NA,NA,NA,NA,ACCEPT,NA,NA,batch9hes,batch9hes,19,33,1,Screen 1,continueButton,response_rating_scale_likert_active,1717,NA,NA,Agree,1,0,1,0,NA,NA,NA,NA,1,statements,To prevent from COVID-19,1,17/05/2021 12:50,17/05/2021 13:00,608,Rarely,Rarely,32,Male,-99,GCSEs,83,1,Against,For
