Event.Index,UTC.Timestamp,UTC.Date,Local.Timestamp,Local.Timezone,Local.Date,Experiment.ID,Experiment.Version,Tree.Node.Key,Repeat.Key,Schedule.ID,Participant.Private.ID,Participant.Starting.Group,Participant.Status,Participant.Completion.Code,Participant.External.Session.ID,Participant.Device.Type,Participant.Device,Participant.OS,Participant.Browser,Participant.Monitor.Size,Participant.Viewport.Size,Checkpoint,Task.Name,Task.Version,branch.69an,randomiser.8vg2,quota.bqtt,quota.rycs,quota.wtfi,quota.usve,quota.zgic,quota.f3yz,quota.r9vy,quota.tfqq,quota.3dga,quota.dtj6,Spreadsheet,Spreadsheet.Name,Spreadsheet.Row,Trial.Number,Screen.Number,Screen.Name,Zone.Name,Zone.Type,Reaction.Time,Reaction.Onset,Response.Type,Response,Attempt,Correct,Incorrect,Dishonest,X.Coordinate,Y.Coordinate,Timed.Out,randomise_blocks,randomise_trials,display,Arguments,ShowProgressBar,StartDate,EndDate,Duration,discuss_1,read_1,age,gender,gender_4_TEXT,edu,ID,arg_ID,Position,Arg_Position
1,1658935586637,27/07/2022 15:26:26,1658935586486,1,27/07/2022 16:26:26,94050,2,task-s8ki,NA,23334589,6847593,NA,complete,NA,62e158dc842136a7fb99a215,computer,Desktop or Laptop,Mac OS 10.15.7,Chrome 103.0.0.0,1280x800,1280x721,NA,ITT Ratings,3,For,6,NA,NA,NA,NA,ACCEPT,NA,NA,NA,NA,NA,batch6hes,NA,NA,BEGIN TASK,NA,NA,NA,NA,NA,NA,NA,NA,NA,0,1,0,NA,NA,NA,NA,NA,NA,NA,NA,NA,NA,NA,NA,NA,NA,NA,NA,NA,NA,NA,NA,NA
2,1658935596151,27/07/2022 15:26:36,1658935596033,1,27/07/2022 16:26:36,94050,2,task-s8ki,NA,23334589,6847593,NA,complete,NA,62e158dc842136a7fb99a215,computer,Desktop or Laptop,Mac OS 10.15.7,Chrome 103.0.0.0,1280x800,1280x721,NA,ITT Ratings,3,For,6,NA,NA,NA,NA,ACCEPT,NA,NA,NA,NA,NA,batch6hes,batch6hes,1,1,1,Screen 1,advancementZone,continue_button,9502.5,NA,NA,NA,NA,0,1,0,NA,NA,NA,NA,NA,instructions,NA,NA,NA,NA,NA,NA,NA,NA,NA,NA,NA,NA,NA,NA,NA
3,1658935609357,27/07/2022 15:26:49,1658935609219,1,27/07/2022 16:26:49,94050,2,task-s8ki,NA,23334589,6847593,NA,complete,NA,62e158dc842136a7fb99a215,computer,Desktop or Laptop,Mac OS 10.15.7,Chrome 103.0.0.0,1280x800,1280x721,NA,ITT Ratings,3,For,6,NA,NA,NA,NA,ACCEPT,NA,NA,NA,NA,NA,batch6hes,batch6hes,9,1,1,Screen 1,continueButton,response_rating_scale_likert_active,13169.700000001118,NA,NA,Agree,1,0,1,0,NA,NA,NA,NA,1,statements,I want to get back to 'normal'.,1,17/05/2021 11:27,17/05/2021 11:58,1838,Rarely,Most days,59,Female,-99,"Undergraduate degree (BSc, BA)",51,3,Against,For
4,1658935614419,27/07/2022 15:26:54,1658935614296,1,27/07/2022 16:26:54,94050,2,task-s8ki,NA,23334589,6847593,NA,complete,NA,62e158dc842136a7fb99a215,computer,Desktop or Laptop,Mac OS 10.15.7,Chrome 103.0.0.0,1280x800,1280x721,NA,ITT Ratings,3,For,6,NA,NA,NA,NA,ACCEPT,NA,NA,NA,NA,NA,batch6hes,batch6hes,55,2,1,Screen 1,continueButton,response_rating_scale_likert_active,5054.4000000003725,NA,NA,Strongly Agree,1,0,1,0,NA,NA,NA,NA,1,statements,I want to help by being vaccinated,1,17/05/2021 11:59,17/05/2021 12:15,955,Most months,Rarely,58,Female,-99,"GCSEs,A levels",59,1,Against,For
5,1658935624464,27/07/2022 15:27:04,1658935624350,1,27/07/2022 16:27:04,94050,2,task-s8ki,NA,23334589,6847593,NA,complete,NA,62e158dc842136a7fb99a215,computer,Desktop or Laptop,Mac OS 10.15.7,Chrome 103.0.0.0,1280x800,1280x721,NA,ITT Ratings,3,For,6,NA,NA,NA,NA,ACCEPT,NA,NA,NA,NA,NA,batch6hes,batch6hes,41,3,1,Screen 1,continueButton,response_rating_scale_likert_active,10041,NA,NA,Somewhat Disagree,1,0,1,0,NA,NA,NA,NA,1,statements,Vaccines developed too quickly so not safe or trustworthy,1,17/05/2021 11:49,17/05/2021 12:07,1067,Most weeks,Most months,29,Female,-99,"Undergraduate degree (BSc, BA)",57,2,Against,Against
6,1658935629902,27/07/2022 15:27:09,1658935629783,1,27/07/2022 16:27:09,94050,2,task-s8ki,NA,23334589,6847593,NA,complete,NA,62e158dc842136a7fb99a215,computer,Desktop or Laptop,Mac OS 10.15.7,Chrome 103.0.0.0,1280x800,1280x721,NA,ITT Ratings,3,For,6,NA,NA,NA,NA,ACCEPT,NA,NA,NA,NA,NA,batch6hes,batch6hes,28,4,1,Screen 1,continueButton,response_rating_scale_likert_active,5418.5999999996275,NA,NA,Somewhat Disagree,1,0,1,0,NA,NA,NA,NA,1,statements,People have died from taking the vaccine who would otherwise still be here today.,1,17/05/2021 11:40,17/05/2021 12:02,1360,Rarely,Rarely,49,Female,-99,"Undergraduate degree (BSc, BA)",55,1,Against,Against
7,1658935637844,27/07/2022 15:27:17,1658935637728,1,27/07/2022 16:27:17,94050,2,task-s8ki,NA,23334589,6847593,NA,complete,NA,62e158dc842136a7fb99a215,computer,Desktop or Laptop,Mac OS 10.15.7,Chrome 103.0.0.0,1280x800,1280x721,NA,ITT Ratings,3,For,6,NA,NA,NA,NA,ACCEPT,NA,NA,NA,NA,NA,batch6hes,batch6hes,29,5,1,Screen 1,continueButton,response_rating_scale_likert_active,7930.4000000003725,NA,NA,Agree,1,0,1,0,NA,NA,NA,NA,1,statements,"We don't yet know if there are any long term side effect of the vaccine, or how long it will stay effective, there just hasn't been time to test any of this.",1,17/05/2021 11:40,17/05/2021 12:02,1360,Rarely,Rarely,49,Female,-99,"Undergraduate degree (BSc, BA)",55,2,Against,Against
8,1658935642795,27/07/2022 15:27:22,1658935642686,1,27/07/2022 16:27:22,94050,2,task-s8ki,NA,23334589,6847593,NA,complete,NA,62e158dc842136a7fb99a215,computer,Desktop or Laptop,Mac OS 10.15.7,Chrome 103.0.0.0,1280x800,1280x721,NA,ITT Ratings,3,For,6,NA,NA,NA,NA,ACCEPT,NA,NA,NA,NA,NA,batch6hes,batch6hes,25,6,1,Screen 1,continueButton,response_rating_scale_likert_active,4943.0999999996275,NA,NA,Strongly Agree,1,0,1,0,NA,NA,NA,NA,1,statements,Its a deadly disease,1,17/05/2021 11:50,17/05/2021 12:02,717,Most days,Most days,47,Female,-99,"Undergraduate degree (BSc, BA)",54,1,Against,For
9,1658935646766,27/07/2022 15:27:26,1658935646648,1,27/07/2022 16:27:26,94050,2,task-s8ki,NA,23334589,6847593,NA,complete,NA,62e158dc842136a7fb99a215,computer,Desktop or Laptop,Mac OS 10.15.7,Chrome 103.0.0.0,1280x800,1280x721,NA,ITT Ratings,3,For,6,NA,NA,NA,NA,ACCEPT,NA,NA,NA,NA,NA,batch6hes,batch6hes,42,7,1,Screen 1,continueButton,response_rating_scale_likert_active,3948.2000000011176,NA,NA,Disagree,1,0,1,0,NA,NA,NA,NA,1,statements,Don't believe COVID-19 is real,1,17/05/2021 11:49,17/05/2021 12:07,1067,Most weeks,Most months,29,Female,-99,"Undergraduate degree (BSc, BA)",57,3,Against,Against
10,1658935658124,27/07/2022 15:27:38,1658935658006,1,27/07/2022 16:27:38,94050,2,task-s8ki,NA,23334589,6847593,NA,complete,NA,62e158dc842136a7fb99a215,computer,Desktop or Laptop,Mac OS 10.15.7,Chrome 103.0.0.0,1280x800,1280x721,NA,ITT Ratings,3,For,6,NA,NA,NA,NA,ACCEPT,NA,NA,NA,NA,NA,batch6hes,batch6hes,53,8,1,Screen 1,continueButton,response_rating_scale_likert_active,11344,NA,NA,Somewhat Agree,1,0,1,0,NA,NA,NA,NA,1,statements,Worried about the side effects that could happen,1,17/05/2021 11:59,17/05/2021 12:15,955,Most months,Rarely,58,Female,-99,"GCSEs,A levels",59,2,Against,Against
11,1658935668796,27/07/2022 15:27:48,1658935668608,1,27/07/2022 16:27:48,94050,2,task-s8ki,NA,23334589,6847593,NA,complete,NA,62e158dc842136a7fb99a215,computer,Desktop or Laptop,Mac OS 10.15.7,Chrome 103.0.0.0,1280x800,1280x721,NA,ITT Ratings,3,For,6,NA,NA,NA,NA,ACCEPT,NA,NA,NA,NA,NA,batch6hes,batch6hes,20,9,1,Screen 1,continueButton,response_rating_scale_likert_active,10315.5,NA,NA,Neither Agree nor Disagree,1,0,1,0,NA,NA,NA,NA,1,statements,All my friends have got it so IÈm getting it,1,17/05/2021 11:52,17/05/2021 12:02,580,Most days,Most days,33,Male,-99,GCSEs,53,2,Against,For
12,1658935672610,27/07/2022 15:27:52,1658935672491,1,27/07/2022 16:27:52,94050,2,task-s8ki,NA,23334589,6847593,NA,complete,NA,62e158dc842136a7fb99a215,computer,Desktop or Laptop,Mac OS 10.15.7,Chrome 103.0.0.0,1280x800,1280x721,NA,ITT Ratings,3,For,6,NA,NA,NA,NA,ACCEPT,NA,NA,NA,NA,NA,batch6hes,batch6hes,54,10,1,Screen 1,continueButton,response_rating_scale_likert_active,3870.800000000745,NA,NA,Strongly Disagree,1,0,1,0,NA,NA,NA,NA,1,statements,If enough other people get vaccinated I won't need it,1,17/05/2021 11:59,17/05/2021 12:15,955,Most months,Rarely,58,Female,-99,"GCSEs,A levels",59,3,Against,Against
13,1658935683102,27/07/2022 15:28:03,1658935682988,1,27/07/2022 16:28:02,94050,2,task-s8ki,NA,23334589,6847593,NA,complete,NA,62e158dc842136a7fb99a215,computer,Desktop or Laptop,Mac OS 10.15.7,Chrome 103.0.0.0,1280x800,1280x721,NA,ITT Ratings,3,For,6,NA,NA,NA,NA,ACCEPT,NA,NA,NA,NA,NA,batch6hes,batch6hes,23,11,1,Screen 1,continueButton,response_rating_scale_likert_active,10484.5,NA,NA,Somewhat Disagree,1,0,1,0,NA,NA,NA,NA,1,statements,The vaccines haven't been thoroughly tested so the side effects are as yet unknown,1,17/05/2021 11:50,17/05/2021 12:02,717,Most days,Most days,47,Female,-99,"Undergraduate degree (BSc, BA)",54,2,Against,Against
14,1658935688901,27/07/2022 15:28:08,1658935688788,1,27/07/2022 16:28:08,94050,2,task-s8ki,NA,23334589,6847593,NA,complete,NA,62e158dc842136a7fb99a215,computer,Desktop or Laptop,Mac OS 10.15.7,Chrome 103.0.0.0,1280x800,1280x721,NA,ITT Ratings,3,For,6,NA,NA,NA,NA,ACCEPT,NA,NA,NA,NA,NA,batch6hes,batch6hes,32,12,1,Screen 1,continueButton,response_rating_scale_likert_active,5786.0999999996275,NA,NA,Disagree,1,0,1,0,NA,NA,NA,NA,1,statements,I feel as if I have to or other people will judge me.,1,17/05/2021 11:40,17/05/2021 12:02,1360,Rarely,Rarely,49,Female,-99,"Undergraduate degree (BSc, BA)",55,2,Against,For
15,1658935697045,27/07/2022 15:28:17,1658935696924,1,27/07/2022 16:28:16,94050,2,task-s8ki,NA,23334589,6847593,NA,complete,NA,62e158dc842136a7fb99a215,computer,Desktop or Laptop,Mac OS 10.15.7,Chrome 103.0.0.0,1280x800,1280x721,NA,ITT Ratings,3,For,6,NA,NA,NA,NA,ACCEPT,NA,NA,NA,NA,NA,batch6hes,batch6hes,33,13,1,Screen 1,continueButton,response_rating_scale_likert_active,8123.700000001118,NA,NA,Agree,1,0,1,0,NA,NA,NA,NA,1,statements,Most people haven't had any serious side effects.,1,17/05/2021 11:40,17/05/2021 12:02,1360,Rarely,Rarely,49,Female,-99,"Undergraduate degree (BSc, BA)",55,3,Against,For
16,1658935699769,27/07/2022 15:28:19,1658935699651,1,27/07/2022 16:28:19,94050,2,task-s8ki,NA,23334589,6847593,NA,complete,NA,62e158dc842136a7fb99a215,computer,Desktop or Laptop,Mac OS 10.15.7,Chrome 103.0.0.0,1280x800,1280x721,NA,ITT Ratings,3,For,6,NA,NA,NA,NA,ACCEPT,NA,NA,NA,NA,NA,batch6hes,batch6hes,49,14,1,Screen 1,continueButton,response_rating_scale_likert_active,2713.5,NA,NA,Agree,1,0,1,0,NA,NA,NA,NA,1,statements,Want to get back to normal,1,17/05/2021 12:07,17/05/2021 12:14,400,Most weeks,Rarely,28,Female,-99,"Undergraduate degree (BSc, BA)",58,1,Against,For
17,1658935704553,27/07/2022 15:28:24,1658935704438,1,27/07/2022 16:28:24,94050,2,task-s8ki,NA,23334589,6847593,NA,complete,NA,62e158dc842136a7fb99a215,computer,Desktop or Laptop,Mac OS 10.15.7,Chrome 103.0.0.0,1280x800,1280x721,NA,ITT Ratings,3,For,6,NA,NA,NA,NA,ACCEPT,NA,NA,NA,NA,NA,batch6hes,batch6hes,22,15,1,Screen 1,continueButton,response_rating_scale_likert_active,4774.0999999996275,NA,NA,Disagree,1,0,1,0,NA,NA,NA,NA,1,statements,I rely on my natural immunity,1,17/05/2021 11:50,17/05/2021 12:02,717,Most days,Most days,47,Female,-99,"Undergraduate degree (BSc, BA)",54,1,Against,Against
18,1658935712089,27/07/2022 15:28:32,1658935711970,1,27/07/2022 16:28:31,94050,2,task-s8ki,NA,23334589,6847593,NA,complete,NA,62e158dc842136a7fb99a215,computer,Desktop or Laptop,Mac OS 10.15.7,Chrome 103.0.0.0,1280x800,1280x721,NA,ITT Ratings,3,For,6,NA,NA,NA,NA,ACCEPT,NA,NA,NA,NA,NA,batch6hes,batch6hes,59,16,1,Screen 1,continueButton,response_rating_scale_likert_active,7520.5,NA,NA,Agree,1,0,1,0,NA,NA,NA,NA,1,statements,Don't know what the long term side effects of the vaccine are,1,17/05/2021 12:02,17/05/2021 12:17,926,Rarely,A few times a year,30,Female,-99,"Undergraduate degree (BSc, BA)",60,2,Against,Against
19,1658935719565,27/07/2022 15:28:39,1658935719446,1,27/07/2022 16:28:39,94050,2,task-s8ki,NA,23334589,6847593,NA,complete,NA,62e158dc842136a7fb99a215,computer,Desktop or Laptop,Mac OS 10.15.7,Chrome 103.0.0.0,1280x800,1280x721,NA,ITT Ratings,3,For,6,NA,NA,NA,NA,ACCEPT,NA,NA,NA,NA,NA,batch6hes,batch6hes,18,17,1,Screen 1,continueButton,response_rating_scale_likert_active,7463,NA,NA,Somewhat Disagree,1,0,1,0,NA,NA,NA,NA,1,statements,If it's so effective then why do we have to wear masks and social distance,1,17/05/2021 11:52,17/05/2021 12:02,580,Most days,Most days,33,Male,-99,GCSEs,53,3,Against,Against
20,1658935724299,27/07/2022 15:28:44,1658935724184,1,27/07/2022 16:28:44,94050,2,task-s8ki,NA,23334589,6847593,NA,complete,NA,62e158dc842136a7fb99a215,computer,Desktop or Laptop,Mac OS 10.15.7,Chrome 103.0.0.0,1280x800,1280x721,NA,ITT Ratings,3,For,6,NA,NA,NA,NA,ACCEPT,NA,NA,NA,NA,NA,batch6hes,batch6hes,37,18,1,Screen 1,continueButton,response_rating_scale_likert_active,4725.800000000745,NA,NA,Strongly Agree,1,0,1,0,NA,NA,NA,NA,1,statements,Lessen severity of symptoms for myself,1,17/05/2021 11:56,17/05/2021 12:05,555,A few times a year,A few times a year,25,Female,-99,A levels,56,1,Against,For
21,1658935731278,27/07/2022 15:28:51,1658935731170,1,27/07/2022 16:28:51,94050,2,task-s8ki,NA,23334589,6847593,NA,complete,NA,62e158dc842136a7fb99a215,computer,Desktop or Laptop,Mac OS 10.15.7,Chrome 103.0.0.0,1280x800,1280x721,NA,ITT Ratings,3,For,6,NA,NA,NA,NA,ACCEPT,NA,NA,NA,NA,NA,batch6hes,batch6hes,7,19,1,Screen 1,continueButton,response_rating_scale_likert_active,6972.300000000745,NA,NA,Neither Agree nor Disagree,1,0,1,0,NA,NA,NA,NA,1,statements,I'm worried about catching the coronavirus.,1,17/05/2021 11:27,17/05/2021 11:58,1838,Rarely,Most days,59,Female,-99,"Undergraduate degree (BSc, BA)",51,1,Against,For
22,1658935735305,27/07/2022 15:28:55,1658935735186,1,27/07/2022 16:28:55,94050,2,task-s8ki,NA,23334589,6847593,NA,complete,NA,62e158dc842136a7fb99a215,computer,Desktop or Laptop,Mac OS 10.15.7,Chrome 103.0.0.0,1280x800,1280x721,NA,ITT Ratings,3,For,6,NA,NA,NA,NA,ACCEPT,NA,NA,NA,NA,NA,batch6hes,batch6hes,36,20,1,Screen 1,continueButton,response_rating_scale_likert_active,4003.099999999627,NA,NA,Somewhat Agree,1,0,1,0,NA,NA,NA,NA,1,statements,Don't know how long immunity lasts,1,17/05/2021 11:56,17/05/2021 12:05,555,A few times a year,A few times a year,25,Female,-99,A levels,56,3,Against,Against
23,1658935740817,27/07/2022 15:29:00,1658935740709,1,27/07/2022 16:29:00,94050,2,task-s8ki,NA,23334589,6847593,NA,complete,NA,62e158dc842136a7fb99a215,computer,Desktop or Laptop,Mac OS 10.15.7,Chrome 103.0.0.0,1280x800,1280x721,NA,ITT Ratings,3,For,6,NA,NA,NA,NA,ACCEPT,NA,NA,NA,NA,NA,batch6hes,batch6hes,40,21,1,Screen 1,continueButton,response_rating_scale_likert_active,5510.0999999996275,NA,NA,Agree,1,0,1,0,NA,NA,NA,NA,1,statements,Doesn't stop transmission or infection,1,17/05/2021 11:49,17/05/2021 12:07,1067,Most weeks,Most months,29,Female,-99,"Undergraduate degree (BSc, BA)",57,1,Against,Against
24,1658935747618,27/07/2022 15:29:07,1658935747504,1,27/07/2022 16:29:07,94050,2,task-s8ki,NA,23334589,6847593,NA,complete,NA,62e158dc842136a7fb99a215,computer,Desktop or Laptop,Mac OS 10.15.7,Chrome 103.0.0.0,1280x800,1280x721,NA,ITT Ratings,3,For,6,NA,NA,NA,NA,ACCEPT,NA,NA,NA,NA,NA,batch6hes,batch6hes,5,22,1,Screen 1,continueButton,response_rating_scale_likert_active,6781.800000000745,NA,NA,Neither Agree nor Disagree,1,0,1,0,NA,NA,NA,NA,1,statements,"The vaccine trials have caused some very adverse reactions, ongoing complications, and even death. Some covid vaccine manufacturers have even stated these dangers themselves.",1,17/05/2021 11:27,17/05/2021 11:58,1838,Rarely,Most days,59,Female,-99,"Undergraduate degree (BSc, BA)",51,2,Against,Against
25,1658935747965,27/07/2022 15:29:07,1658935747855,1,27/07/2022 16:29:07,94050,2,task-s8ki,NA,23334589,6847593,NA,complete,NA,62e158dc842136a7fb99a215,computer,Desktop or Laptop,Mac OS 10.15.7,Chrome 103.0.0.0,1280x800,1280x721,NA,ITT Ratings,3,For,6,NA,NA,NA,NA,ACCEPT,NA,NA,NA,NA,NA,batch6hes,batch6hes,46,23,1,Screen 1,continueButton,response_rating_scale_likert_active,338.8999999985099,NA,NA,Neither Agree nor Disagree,1,0,1,0,NA,NA,NA,NA,1,statements,Don't know the long term effects on fertility,1,17/05/2021 12:07,17/05/2021 12:14,400,Most weeks,Rarely,28,Female,-99,"Undergraduate degree (BSc, BA)",58,1,Against,Against
26,1658935753353,27/07/2022 15:29:13,1658935753245,1,27/07/2022 16:29:13,94050,2,task-s8ki,NA,23334589,6847593,NA,complete,NA,62e158dc842136a7fb99a215,computer,Desktop or Laptop,Mac OS 10.15.7,Chrome 103.0.0.0,1280x800,1280x721,NA,ITT Ratings,3,For,6,NA,NA,NA,NA,ACCEPT,NA,NA,NA,NA,NA,batch6hes,batch6hes,11,24,1,Screen 1,continueButton,response_rating_scale_likert_active,5381.20000000298,NA,NA,Neither Agree nor Disagree,1,0,1,0,NA,NA,NA,NA,1,statements,The trials haven't run long enough to know the long term effects,1,17/05/2021 11:32,17/05/2021 12:00,1684,Rarely,Most months,43,Female,-99,"Undergraduate degree (BSc, BA)",52,2,Against,Against
27,1658935756379,27/07/2022 15:29:16,1658935756260,1,27/07/2022 16:29:16,94050,2,task-s8ki,NA,23334589,6847593,NA,complete,NA,62e158dc842136a7fb99a215,computer,Desktop or Laptop,Mac OS 10.15.7,Chrome 103.0.0.0,1280x800,1280x721,NA,ITT Ratings,3,For,6,NA,NA,NA,NA,ACCEPT,NA,NA,NA,NA,NA,batch6hes,batch6hes,50,25,1,Screen 1,continueButton,response_rating_scale_likert_active,3002.900000002235,NA,NA,Agree,1,0,1,0,NA,NA,NA,NA,1,statements,Have underlying health conditions,1,17/05/2021 12:07,17/05/2021 12:14,400,Most weeks,Rarely,28,Female,-99,"Undergraduate degree (BSc, BA)",58,2,Against,For
28,1658935760698,27/07/2022 15:29:20,1658935760564,1,27/07/2022 16:29:20,94050,2,task-s8ki,NA,23334589,6847593,NA,complete,NA,62e158dc842136a7fb99a215,computer,Desktop or Laptop,Mac OS 10.15.7,Chrome 103.0.0.0,1280x800,1280x721,NA,ITT Ratings,3,For,6,NA,NA,NA,NA,ACCEPT,NA,NA,NA,NA,NA,batch6hes,batch6hes,24,26,1,Screen 1,continueButton,response_rating_scale_likert_active,4291,NA,NA,Agree,1,0,1,0,NA,NA,NA,NA,1,statements,The vaccine does not give you full immunity ....you can still catch and transmit the virus after being vaccinated .,1,17/05/2021 11:50,17/05/2021 12:02,717,Most days,Most days,47,Female,-99,"Undergraduate degree (BSc, BA)",54,3,Against,Against
29,1658935767520,27/07/2022 15:29:27,1658935767409,1,27/07/2022 16:29:27,94050,2,task-s8ki,NA,23334589,6847593,NA,complete,NA,62e158dc842136a7fb99a215,computer,Desktop or Laptop,Mac OS 10.15.7,Chrome 103.0.0.0,1280x800,1280x721,NA,ITT Ratings,3,For,6,NA,NA,NA,NA,ACCEPT,NA,NA,NA,NA,NA,batch6hes,batch6hes,17,27,1,Screen 1,continueButton,response_rating_scale_likert_active,6833.300000000745,NA,NA,Neither Agree nor Disagree,1,0,1,0,NA,NA,NA,NA,1,statements,Big pharma taking 3.7billion in profits not giving it to everyone for free,1,17/05/2021 11:52,17/05/2021 12:02,580,Most days,Most days,33,Male,-99,GCSEs,53,2,Against,Against
30,1658935776140,27/07/2022 15:29:36,1658935776029,1,27/07/2022 16:29:36,94050,2,task-s8ki,NA,23334589,6847593,NA,complete,NA,62e158dc842136a7fb99a215,computer,Desktop or Laptop,Mac OS 10.15.7,Chrome 103.0.0.0,1280x800,1280x721,NA,ITT Ratings,3,For,6,NA,NA,NA,NA,ACCEPT,NA,NA,NA,NA,NA,batch6hes,batch6hes,16,28,1,Screen 1,continueButton,response_rating_scale_likert_active,8607.5,NA,NA,Somewhat Disagree,1,0,1,0,NA,NA,NA,NA,1,statements,Not tested enough not enough clinical trials,1,17/05/2021 11:52,17/05/2021 12:02,580,Most days,Most days,33,Male,-99,GCSEs,53,1,Against,Against
31,1658935781428,27/07/2022 15:29:41,1658935781282,1,27/07/2022 16:29:41,94050,2,task-s8ki,NA,23334589,6847593,NA,complete,NA,62e158dc842136a7fb99a215,computer,Desktop or Laptop,Mac OS 10.15.7,Chrome 103.0.0.0,1280x800,1280x721,NA,ITT Ratings,3,For,6,NA,NA,NA,NA,ACCEPT,NA,NA,NA,NA,NA,batch6hes,batch6hes,58,29,1,Screen 1,continueButton,response_rating_scale_likert_active,5240.5,NA,NA,Neither Agree nor Disagree,1,0,1,0,NA,NA,NA,NA,1,statements,Produced too quickly,1,17/05/2021 12:02,17/05/2021 12:17,926,Rarely,A few times a year,30,Female,-99,"Undergraduate degree (BSc, BA)",60,1,Against,Against
32,1658935783665,27/07/2022 15:29:43,1658935783553,1,27/07/2022 16:29:43,94050,2,task-s8ki,NA,23334589,6847593,NA,complete,NA,62e158dc842136a7fb99a215,computer,Desktop or Laptop,Mac OS 10.15.7,Chrome 103.0.0.0,1280x800,1280x721,NA,ITT Ratings,3,For,6,NA,NA,NA,NA,ACCEPT,NA,NA,NA,NA,NA,batch6hes,batch6hes,56,30,1,Screen 1,continueButton,response_rating_scale_likert_active,2259.89999999851,NA,NA,Agree,1,0,1,0,NA,NA,NA,NA,1,statements,I want to feel safer,1,17/05/2021 11:59,17/05/2021 12:15,955,Most months,Rarely,58,Female,-99,"GCSEs,A levels",59,2,Against,For
33,1658935791819,27/07/2022 15:29:51,1658935791708,1,27/07/2022 16:29:51,94050,2,task-s8ki,NA,23334589,6847593,NA,complete,NA,62e158dc842136a7fb99a215,computer,Desktop or Laptop,Mac OS 10.15.7,Chrome 103.0.0.0,1280x800,1280x721,NA,ITT Ratings,3,For,6,NA,NA,NA,NA,ACCEPT,NA,NA,NA,NA,NA,batch6hes,batch6hes,6,31,1,Screen 1,continueButton,response_rating_scale_likert_active,8145,NA,NA,Neither Agree nor Disagree,1,0,1,0,NA,NA,NA,NA,1,statements,"RNA vaccines are new, and past trials and tests with them on animals were unsuccessful, with many animal deaths from them. RNA vaccines can be dangerous and the long-term effects are unknown.",1,17/05/2021 11:27,17/05/2021 11:58,1838,Rarely,Most days,59,Female,-99,"Undergraduate degree (BSc, BA)",51,3,Against,Against
34,1658935795860,27/07/2022 15:29:55,1658935795744,1,27/07/2022 16:29:55,94050,2,task-s8ki,NA,23334589,6847593,NA,complete,NA,62e158dc842136a7fb99a215,computer,Desktop or Laptop,Mac OS 10.15.7,Chrome 103.0.0.0,1280x800,1280x721,NA,ITT Ratings,3,For,6,NA,NA,NA,NA,ACCEPT,NA,NA,NA,NA,NA,batch6hes,batch6hes,19,32,1,Screen 1,continueButton,response_rating_scale_likert_active,4024.10000000149,NA,NA,Neither Agree nor Disagree,1,0,1,0,NA,NA,NA,NA,1,statements,It's effective because the news told me so,1,17/05/2021 11:52,17/05/2021 12:02,580,Most days,Most days,33,Male,-99,GCSEs,53,1,Against,For
35,1658935800162,27/07/2022 15:30:00,1658935800049,1,27/07/2022 16:30:00,94050,2,task-s8ki,NA,23334589,6847593,NA,complete,NA,62e158dc842136a7fb99a215,computer,Desktop or Laptop,Mac OS 10.15.7,Chrome 103.0.0.0,1280x800,1280x721,NA,ITT Ratings,3,For,6,NA,NA,NA,NA,ACCEPT,NA,NA,NA,NA,NA,batch6hes,batch6hes,63,33,1,Screen 1,continueButton,response_rating_scale_likert_active,4291.699999999255,NA,NA,Agree,1,0,1,0,NA,NA,NA,NA,1,statements,get back to normal life,1,17/05/2021 12:02,17/05/2021 12:17,926,Rarely,A few times a year,30,Female,-99,"Undergraduate degree (BSc, BA)",60,3,Against,For
36,1658935804562,27/07/2022 15:30:04,1658935804447,1,27/07/2022 16:30:04,94050,2,task-s8ki,NA,23334589,6847593,NA,complete,NA,62e158dc842136a7fb99a215,computer,Desktop or Laptop,Mac OS 10.15.7,Chrome 103.0.0.0,1280x800,1280x721,NA,ITT Ratings,3,For,6,NA,NA,NA,NA,ACCEPT,NA,NA,NA,NA,NA,batch6hes,batch6hes,10,34,1,Screen 1,continueButton,response_rating_scale_likert_active,4385,NA,NA,Strongly Agree,1,0,1,0,NA,NA,NA,NA,1,statements,I don't do experimental drugs,1,17/05/2021 11:32,17/05/2021 12:00,1684,Rarely,Most months,43,Female,-99,"Undergraduate degree (BSc, BA)",52,1,Against,Against
37,1658935808788,27/07/2022 15:30:08,1658935808678,1,27/07/2022 16:30:08,94050,2,task-s8ki,NA,23334589,6847593,NA,complete,NA,62e158dc842136a7fb99a215,computer,Desktop or Laptop,Mac OS 10.15.7,Chrome 103.0.0.0,1280x800,1280x721,NA,ITT Ratings,3,For,6,NA,NA,NA,NA,ACCEPT,NA,NA,NA,NA,NA,batch6hes,batch6hes,14,35,1,Screen 1,continueButton,response_rating_scale_likert_active,4216.89999999851,NA,NA,Neither Agree nor Disagree,1,0,1,0,NA,NA,NA,NA,1,statements,"If I don't take it, I'll die from the disease.",1,17/05/2021 11:32,17/05/2021 12:00,1684,Rarely,Most months,43,Female,-99,"Undergraduate degree (BSc, BA)",52,2,Against,For
38,1658935812179,27/07/2022 15:30:12,1658935812063,1,27/07/2022 16:30:12,94050,2,task-s8ki,NA,23334589,6847593,NA,complete,NA,62e158dc842136a7fb99a215,computer,Desktop or Laptop,Mac OS 10.15.7,Chrome 103.0.0.0,1280x800,1280x721,NA,ITT Ratings,3,For,6,NA,NA,NA,NA,ACCEPT,NA,NA,NA,NA,NA,batch6hes,batch6hes,62,36,1,Screen 1,continueButton,response_rating_scale_likert_active,3372.60000000149,NA,NA,Strongly Agree,1,0,1,0,NA,NA,NA,NA,1,statements,looking after most vulnerable in society and protecting friends and family,1,17/05/2021 12:02,17/05/2021 12:17,926,Rarely,A few times a year,30,Female,-99,"Undergraduate degree (BSc, BA)",60,2,Against,For
39,1658935814399,27/07/2022 15:30:14,1658935814283,1,27/07/2022 16:30:14,94050,2,task-s8ki,NA,23334589,6847593,NA,complete,NA,62e158dc842136a7fb99a215,computer,Desktop or Laptop,Mac OS 10.15.7,Chrome 103.0.0.0,1280x800,1280x721,NA,ITT Ratings,3,For,6,NA,NA,NA,NA,ACCEPT,NA,NA,NA,NA,NA,batch6hes,batch6hes,43,37,1,Screen 1,continueButton,response_rating_scale_likert_active,2207.400000002235,NA,NA,Strongly Agree,1,0,1,0,NA,NA,NA,NA,1,statements,Lower infection and transmission rates,1,17/05/2021 11:49,17/05/2021 12:07,1067,Most weeks,Most months,29,Female,-99,"Undergraduate degree (BSc, BA)",57,1,Against,For
40,1658935818363,27/07/2022 15:30:18,1658935818248,1,27/07/2022 16:30:18,94050,2,task-s8ki,NA,23334589,6847593,NA,complete,NA,62e158dc842136a7fb99a215,computer,Desktop or Laptop,Mac OS 10.15.7,Chrome 103.0.0.0,1280x800,1280x721,NA,ITT Ratings,3,For,6,NA,NA,NA,NA,ACCEPT,NA,NA,NA,NA,NA,batch6hes,batch6hes,44,38,1,Screen 1,continueButton,response_rating_scale_likert_active,3952.400000002235,NA,NA,Strongly Agree,1,0,1,0,NA,NA,NA,NA,1,statements,reduce the impact of COVID-19 symptoms when contracted,1,17/05/2021 11:49,17/05/2021 12:07,1067,Most weeks,Most months,29,Female,-99,"Undergraduate degree (BSc, BA)",57,2,Against,For
41,1658935822686,27/07/2022 15:30:22,1658935822571,1,27/07/2022 16:30:22,94050,2,task-s8ki,NA,23334589,6847593,NA,complete,NA,62e158dc842136a7fb99a215,computer,Desktop or Laptop,Mac OS 10.15.7,Chrome 103.0.0.0,1280x800,1280x721,NA,ITT Ratings,3,For,6,NA,NA,NA,NA,ACCEPT,NA,NA,NA,NA,NA,batch6hes,batch6hes,61,39,1,Screen 1,continueButton,response_rating_scale_likert_active,4309.800000000745,NA,NA,Agree,1,0,1,0,NA,NA,NA,NA,1,statements,"Herd immunity if everyone does it, it will be more effective",1,17/05/2021 12:02,17/05/2021 12:17,926,Rarely,A few times a year,30,Female,-99,"Undergraduate degree (BSc, BA)",60,1,Against,For
42,1658935827337,27/07/2022 15:30:27,1658935827221,1,27/07/2022 16:30:27,94050,2,task-s8ki,NA,23334589,6847593,NA,complete,NA,62e158dc842136a7fb99a215,computer,Desktop or Laptop,Mac OS 10.15.7,Chrome 103.0.0.0,1280x800,1280x721,NA,ITT Ratings,3,For,6,NA,NA,NA,NA,ACCEPT,NA,NA,NA,NA,NA,batch6hes,batch6hes,26,40,1,Screen 1,continueButton,response_rating_scale_likert_active,4637.900000002235,NA,NA,Strongly Agree,1,0,1,0,NA,NA,NA,NA,1,statements,I want to do my bit to protect the vulnerable ...so I don't pass it on to others,1,17/05/2021 11:50,17/05/2021 12:02,717,Most days,Most days,47,Female,-99,"Undergraduate degree (BSc, BA)",54,2,Against,For
43,1658935831877,27/07/2022 15:30:31,1658935831768,1,27/07/2022 16:30:31,94050,2,task-s8ki,NA,23334589,6847593,NA,complete,NA,62e158dc842136a7fb99a215,computer,Desktop or Laptop,Mac OS 10.15.7,Chrome 103.0.0.0,1280x800,1280x721,NA,ITT Ratings,3,For,6,NA,NA,NA,NA,ACCEPT,NA,NA,NA,NA,NA,batch6hes,batch6hes,13,41,1,Screen 1,continueButton,response_rating_scale_likert_active,4532.800000000745,NA,NA,Disagree,1,0,1,0,NA,NA,NA,NA,1,statements,"Because everyone I know had it, i.e. peer pressure",1,17/05/2021 11:32,17/05/2021 12:00,1684,Rarely,Most months,43,Female,-99,"Undergraduate degree (BSc, BA)",52,1,Against,For
44,1658935839484,27/07/2022 15:30:39,1658935839365,1,27/07/2022 16:30:39,94050,2,task-s8ki,NA,23334589,6847593,NA,complete,NA,62e158dc842136a7fb99a215,computer,Desktop or Laptop,Mac OS 10.15.7,Chrome 103.0.0.0,1280x800,1280x721,NA,ITT Ratings,3,For,6,NA,NA,NA,NA,ACCEPT,NA,NA,NA,NA,NA,batch6hes,batch6hes,3,42,1,Screen 1,continueButton,response_rating_scale_likert_active,7585.800000000745,NA,NA,Somewhat Disagree,1,0,1,0,NA,NA,NA,NA,1,statements,We would like to check you are reading each argument carefully. Please select 'Somewhat Disagree' for this answer,1,NA,NA,NA,NA,NA,NA,NA,NA,NA,NA,check2,NA,NA
45,1658935849788,27/07/2022 15:30:49,1658935849673,1,27/07/2022 16:30:49,94050,2,task-s8ki,NA,23334589,6847593,NA,complete,NA,62e158dc842136a7fb99a215,computer,Desktop or Laptop,Mac OS 10.15.7,Chrome 103.0.0.0,1280x800,1280x721,NA,ITT Ratings,3,For,6,NA,NA,NA,NA,ACCEPT,NA,NA,NA,NA,NA,batch6hes,batch6hes,52,43,1,Screen 1,continueButton,response_rating_scale_likert_active,10295.5,NA,NA,Neither Agree nor Disagree,1,0,1,0,NA,NA,NA,NA,1,statements,The vaccine has not been tested for long enough,1,17/05/2021 11:59,17/05/2021 12:15,955,Most months,Rarely,58,Female,-99,"GCSEs,A levels",59,1,Against,Against
46,1658935853939,27/07/2022 15:30:53,1658935853823,1,27/07/2022 16:30:53,94050,2,task-s8ki,NA,23334589,6847593,NA,complete,NA,62e158dc842136a7fb99a215,computer,Desktop or Laptop,Mac OS 10.15.7,Chrome 103.0.0.0,1280x800,1280x721,NA,ITT Ratings,3,For,6,NA,NA,NA,NA,ACCEPT,NA,NA,NA,NA,NA,batch6hes,batch6hes,15,44,1,Screen 1,continueButton,response_rating_scale_likert_active,4136.29999999702,NA,NA,Somewhat Agree,1,0,1,0,NA,NA,NA,NA,1,statements,"Vaccines are good, regardless of how new or experimental they are",1,17/05/2021 11:32,17/05/2021 12:00,1684,Rarely,Most months,43,Female,-99,"Undergraduate degree (BSc, BA)",52,3,Against,For
47,1658935856425,27/07/2022 15:30:56,1658935856309,1,27/07/2022 16:30:56,94050,2,task-s8ki,NA,23334589,6847593,NA,complete,NA,62e158dc842136a7fb99a215,computer,Desktop or Laptop,Mac OS 10.15.7,Chrome 103.0.0.0,1280x800,1280x721,NA,ITT Ratings,3,For,6,NA,NA,NA,NA,ACCEPT,NA,NA,NA,NA,NA,batch6hes,batch6hes,38,45,1,Screen 1,continueButton,response_rating_scale_likert_active,2473.89999999851,NA,NA,Agree,1,0,1,0,NA,NA,NA,NA,1,statements,Lessen chance of spreading it,1,17/05/2021 11:56,17/05/2021 12:05,555,A few times a year,A few times a year,25,Female,-99,A levels,56,2,Against,For
48,1658935860644,27/07/2022 15:31:00,1658935860490,1,27/07/2022 16:31:00,94050,2,task-s8ki,NA,23334589,6847593,NA,complete,NA,62e158dc842136a7fb99a215,computer,Desktop or Laptop,Mac OS 10.15.7,Chrome 103.0.0.0,1280x800,1280x721,NA,ITT Ratings,3,For,6,NA,NA,NA,NA,ACCEPT,NA,NA,NA,NA,NA,batch6hes,batch6hes,2,46,1,Screen 1,continueButton,response_rating_scale_likert_active,4169,NA,NA,Somewhat Agree,1,0,1,0,NA,NA,NA,NA,1,statements,We would like to check you are reading each argument carefully. Please select 'Somewhat Agree' for this answer,1,NA,NA,NA,NA,NA,NA,NA,NA,NA,NA,check1,NA,NA
49,1658935864676,27/07/2022 15:31:04,1658935864567,1,27/07/2022 16:31:04,94050,2,task-s8ki,NA,23334589,6847593,NA,complete,NA,62e158dc842136a7fb99a215,computer,Desktop or Laptop,Mac OS 10.15.7,Chrome 103.0.0.0,1280x800,1280x721,NA,ITT Ratings,3,For,6,NA,NA,NA,NA,ACCEPT,NA,NA,NA,NA,NA,batch6hes,batch6hes,27,47,1,Screen 1,continueButton,response_rating_scale_likert_active,4061.39999999851,NA,NA,Strongly Agree,1,0,1,0,NA,NA,NA,NA,1,statements,"Even though it may not be fatal for everyone , people ca still suffer from long covid",1,17/05/2021 11:50,17/05/2021 12:02,717,Most days,Most days,47,Female,-99,"Undergraduate degree (BSc, BA)",54,3,Against,For
50,1658935870064,27/07/2022 15:31:10,1658935869944,1,27/07/2022 16:31:09,94050,2,task-s8ki,NA,23334589,6847593,NA,complete,NA,62e158dc842136a7fb99a215,computer,Desktop or Laptop,Mac OS 10.15.7,Chrome 103.0.0.0,1280x800,1280x721,NA,ITT Ratings,3,For,6,NA,NA,NA,NA,ACCEPT,NA,NA,NA,NA,NA,batch6hes,batch6hes,47,48,1,Screen 1,continueButton,response_rating_scale_likert_active,5366.10000000149,NA,NA,Somewhat Agree,1,0,1,0,NA,NA,NA,NA,1,statements,Don't know enough about it,1,17/05/2021 12:07,17/05/2021 12:14,400,Most weeks,Rarely,28,Female,-99,"Undergraduate degree (BSc, BA)",58,2,Against,Against
51,1658935873325,27/07/2022 15:31:13,1658935873202,1,27/07/2022 16:31:13,94050,2,task-s8ki,NA,23334589,6847593,NA,complete,NA,62e158dc842136a7fb99a215,computer,Desktop or Laptop,Mac OS 10.15.7,Chrome 103.0.0.0,1280x800,1280x721,NA,ITT Ratings,3,For,6,NA,NA,NA,NA,ACCEPT,NA,NA,NA,NA,NA,batch6hes,batch6hes,34,49,1,Screen 1,continueButton,response_rating_scale_likert_active,3246.60000000149,NA,NA,Somewhat Agree,1,0,1,0,NA,NA,NA,NA,1,statements,Don't know possible long term health complications,1,17/05/2021 11:56,17/05/2021 12:05,555,A few times a year,A few times a year,25,Female,-99,A levels,56,1,Against,Against
52,1658935880405,27/07/2022 15:31:20,1658935880290,1,27/07/2022 16:31:20,94050,2,task-s8ki,NA,23334589,6847593,NA,complete,NA,62e158dc842136a7fb99a215,computer,Desktop or Laptop,Mac OS 10.15.7,Chrome 103.0.0.0,1280x800,1280x721,NA,ITT Ratings,3,For,6,NA,NA,NA,NA,ACCEPT,NA,NA,NA,NA,NA,batch6hes,batch6hes,12,50,1,Screen 1,continueButton,response_rating_scale_likert_active,7074.29999999702,NA,NA,Neither Agree nor Disagree,1,0,1,0,NA,NA,NA,NA,1,statements,"Everyone, including the pharma companies aren't clear about possible side effects and the billion dollar shady pharma companies are immune from law suits from side effects or deaths.",1,17/05/2021 11:32,17/05/2021 12:00,1684,Rarely,Most months,43,Female,-99,"Undergraduate degree (BSc, BA)",52,3,Against,Against
53,1658935884354,27/07/2022 15:31:24,1658935884233,1,27/07/2022 16:31:24,94050,2,task-s8ki,NA,23334589,6847593,NA,complete,NA,62e158dc842136a7fb99a215,computer,Desktop or Laptop,Mac OS 10.15.7,Chrome 103.0.0.0,1280x800,1280x721,NA,ITT Ratings,3,For,6,NA,NA,NA,NA,ACCEPT,NA,NA,NA,NA,NA,batch6hes,batch6hes,51,51,1,Screen 1,continueButton,response_rating_scale_likert_active,3931.10000000149,NA,NA,Agree,1,0,1,0,NA,NA,NA,NA,1,statements,Have close family with underlying heath conditions,1,17/05/2021 12:07,17/05/2021 12:14,400,Most weeks,Rarely,28,Female,-99,"Undergraduate degree (BSc, BA)",58,3,Against,For
54,1658935891628,27/07/2022 15:31:31,1658935891509,1,27/07/2022 16:31:31,94050,2,task-s8ki,NA,23334589,6847593,NA,complete,NA,62e158dc842136a7fb99a215,computer,Desktop or Laptop,Mac OS 10.15.7,Chrome 103.0.0.0,1280x800,1280x721,NA,ITT Ratings,3,For,6,NA,NA,NA,NA,ACCEPT,NA,NA,NA,NA,NA,batch6hes,batch6hes,30,52,1,Screen 1,continueButton,response_rating_scale_likert_active,7261.699999999255,NA,NA,Somewhat Disagree,1,0,1,0,NA,NA,NA,NA,1,statements,"I can carry on keeping my distance from people, wearing a mask and using hand sanitiser and keep myself and my family safe that way. It's worked so far.",1,17/05/2021 11:40,17/05/2021 12:02,1360,Rarely,Rarely,49,Female,-99,"Undergraduate degree (BSc, BA)",55,3,Against,Against
55,1658935894302,27/07/2022 15:31:34,1658935894177,1,27/07/2022 16:31:34,94050,2,task-s8ki,NA,23334589,6847593,NA,complete,NA,62e158dc842136a7fb99a215,computer,Desktop or Laptop,Mac OS 10.15.7,Chrome 103.0.0.0,1280x800,1280x721,NA,ITT Ratings,3,For,6,NA,NA,NA,NA,ACCEPT,NA,NA,NA,NA,NA,batch6hes,batch6hes,31,53,1,Screen 1,continueButton,response_rating_scale_likert_active,2655.89999999851,NA,NA,Disagree,1,0,1,0,NA,NA,NA,NA,1,statements,It's what everybody else is doing.,1,17/05/2021 11:40,17/05/2021 12:02,1360,Rarely,Rarely,49,Female,-99,"Undergraduate degree (BSc, BA)",55,1,Against,For
56,1658935897343,27/07/2022 15:31:37,1658935897227,1,27/07/2022 16:31:37,94050,2,task-s8ki,NA,23334589,6847593,NA,complete,NA,62e158dc842136a7fb99a215,computer,Desktop or Laptop,Mac OS 10.15.7,Chrome 103.0.0.0,1280x800,1280x721,NA,ITT Ratings,3,For,6,NA,NA,NA,NA,ACCEPT,NA,NA,NA,NA,NA,batch6hes,batch6hes,35,54,1,Screen 1,continueButton,response_rating_scale_likert_active,3036.099999997765,NA,NA,Somewhat Agree,1,0,1,0,NA,NA,NA,NA,1,statements,Not effective against different strains,1,17/05/2021 11:56,17/05/2021 12:05,555,A few times a year,A few times a year,25,Female,-99,A levels,56,2,Against,Against
57,1658935902485,27/07/2022 15:31:42,1658935902372,1,27/07/2022 16:31:42,94050,2,task-s8ki,NA,23334589,6847593,NA,complete,NA,62e158dc842136a7fb99a215,computer,Desktop or Laptop,Mac OS 10.15.7,Chrome 103.0.0.0,1280x800,1280x721,NA,ITT Ratings,3,For,6,NA,NA,NA,NA,ACCEPT,NA,NA,NA,NA,NA,batch6hes,batch6hes,48,55,1,Screen 1,continueButton,response_rating_scale_likert_active,5132.199999999255,NA,NA,Disagree,1,0,1,0,NA,NA,NA,NA,1,statements,Not a risk group for covid,1,17/05/2021 12:07,17/05/2021 12:14,400,Most weeks,Rarely,28,Female,-99,"Undergraduate degree (BSc, BA)",58,3,Against,Against
58,1658935906216,27/07/2022 15:31:46,1658935906095,1,27/07/2022 16:31:46,94050,2,task-s8ki,NA,23334589,6847593,NA,complete,NA,62e158dc842136a7fb99a215,computer,Desktop or Laptop,Mac OS 10.15.7,Chrome 103.0.0.0,1280x800,1280x721,NA,ITT Ratings,3,For,6,NA,NA,NA,NA,ACCEPT,NA,NA,NA,NA,NA,batch6hes,batch6hes,57,56,1,Screen 1,continueButton,response_rating_scale_likert_active,3711.199999999255,NA,NA,Agree,1,0,1,0,NA,NA,NA,NA,1,statements,It's the only way out of this pandemic,1,17/05/2021 11:59,17/05/2021 12:15,955,Most months,Rarely,58,Female,-99,"GCSEs,A levels",59,3,Against,For
59,1658935909773,27/07/2022 15:31:49,1658935909629,1,27/07/2022 16:31:49,94050,2,task-s8ki,NA,23334589,6847593,NA,complete,NA,62e158dc842136a7fb99a215,computer,Desktop or Laptop,Mac OS 10.15.7,Chrome 103.0.0.0,1280x800,1280x721,NA,ITT Ratings,3,For,6,NA,NA,NA,NA,ACCEPT,NA,NA,NA,NA,NA,batch6hes,batch6hes,4,57,1,Screen 1,continueButton,response_rating_scale_likert_active,3521.699999999255,NA,NA,Neither Agree nor Disagree,1,0,1,0,NA,NA,NA,NA,1,statements,The vaccine was never tested to the gold standard.,1,17/05/2021 11:27,17/05/2021 11:58,1838,Rarely,Most days,59,Female,-99,"Undergraduate degree (BSc, BA)",51,1,Against,Against
60,1658935914097,27/07/2022 15:31:54,1658935913988,1,27/07/2022 16:31:53,94050,2,task-s8ki,NA,23334589,6847593,NA,complete,NA,62e158dc842136a7fb99a215,computer,Desktop or Laptop,Mac OS 10.15.7,Chrome 103.0.0.0,1280x800,1280x721,NA,ITT Ratings,3,For,6,NA,NA,NA,NA,ACCEPT,NA,NA,NA,NA,NA,batch6hes,batch6hes,21,58,1,Screen 1,continueButton,response_rating_scale_likert_active,4348,NA,NA,Disagree,1,0,1,0,NA,NA,NA,NA,1,statements,I believe everything I hear,1,17/05/2021 11:52,17/05/2021 12:02,580,Most days,Most days,33,Male,-99,GCSEs,53,3,Against,For
61,1658935916629,27/07/2022 15:31:56,1658935916514,1,27/07/2022 16:31:56,94050,2,task-s8ki,NA,23334589,6847593,NA,complete,NA,62e158dc842136a7fb99a215,computer,Desktop or Laptop,Mac OS 10.15.7,Chrome 103.0.0.0,1280x800,1280x721,NA,ITT Ratings,3,For,6,NA,NA,NA,NA,ACCEPT,NA,NA,NA,NA,NA,batch6hes,batch6hes,45,59,1,Screen 1,continueButton,response_rating_scale_likert_active,2513.199999999255,NA,NA,Agree,1,0,1,0,NA,NA,NA,NA,1,statements,Help society to get back to normal,1,17/05/2021 11:49,17/05/2021 12:07,1067,Most weeks,Most months,29,Female,-99,"Undergraduate degree (BSc, BA)",57,3,Against,For
62,1658935920842,27/07/2022 15:32:00,1658935920732,1,27/07/2022 16:32:00,94050,2,task-s8ki,NA,23334589,6847593,NA,complete,NA,62e158dc842136a7fb99a215,computer,Desktop or Laptop,Mac OS 10.15.7,Chrome 103.0.0.0,1280x800,1280x721,NA,ITT Ratings,3,For,6,NA,NA,NA,NA,ACCEPT,NA,NA,NA,NA,NA,batch6hes,batch6hes,8,60,1,Screen 1,continueButton,response_rating_scale_likert_active,4206.39999999851,NA,NA,Strongly Agree,1,0,1,0,NA,NA,NA,NA,1,statements,I want to be able to go out and about without worrying.,1,17/05/2021 11:27,17/05/2021 11:58,1838,Rarely,Most days,59,Female,-99,"Undergraduate degree (BSc, BA)",51,2,Against,For
63,1658935923334,27/07/2022 15:32:03,1658935923226,1,27/07/2022 16:32:03,94050,2,task-s8ki,NA,23334589,6847593,NA,complete,NA,62e158dc842136a7fb99a215,computer,Desktop or Laptop,Mac OS 10.15.7,Chrome 103.0.0.0,1280x800,1280x721,NA,ITT Ratings,3,For,6,NA,NA,NA,NA,ACCEPT,NA,NA,NA,NA,NA,batch6hes,batch6hes,39,61,1,Screen 1,continueButton,response_rating_scale_likert_active,2484.199999999255,NA,NA,Agree,1,0,1,0,NA,NA,NA,NA,1,statements,Go 'back to normal',1,17/05/2021 11:56,17/05/2021 12:05,555,A few times a year,A few times a year,25,Female,-99,A levels,56,3,Against,For
64,1658935926512,27/07/2022 15:32:06,1658935926399,1,27/07/2022 16:32:06,94050,2,task-s8ki,NA,23334589,6847593,NA,complete,NA,62e158dc842136a7fb99a215,computer,Desktop or Laptop,Mac OS 10.15.7,Chrome 103.0.0.0,1280x800,1280x721,NA,ITT Ratings,3,For,6,NA,NA,NA,NA,ACCEPT,NA,NA,NA,NA,NA,batch6hes,batch6hes,60,62,1,Screen 1,continueButton,response_rating_scale_likert_active,3163.900000002235,NA,NA,Agree,1,0,1,0,NA,NA,NA,NA,1,statements,"Even after the vaccine, you are not guaranteed immunity.",1,17/05/2021 12:02,17/05/2021 12:17,926,Rarely,A few times a year,30,Female,-99,"Undergraduate degree (BSc, BA)",60,3,Against,Against
65,1658935926581,27/07/2022 15:32:06,1658935926405,1,27/07/2022 16:32:06,94050,2,task-s8ki,NA,23334589,6847593,NA,complete,NA,62e158dc842136a7fb99a215,computer,Desktop or Laptop,Mac OS 10.15.7,Chrome 103.0.0.0,1280x800,1280x721,NA,ITT Ratings,3,For,6,NA,NA,NA,NA,ACCEPT,NA,NA,NA,NA,NA,batch6hes,NA,NA,END TASK,NA,NA,NA,NA,339919,NA,NA,NA,NA,0,1,0,NA,NA,NA,NA,NA,NA,NA,NA,NA,NA,NA,NA,NA,NA,NA,NA,NA,NA,NA,NA,NA
1,1658935890848,27/07/2022 15:31:30,1658935891312,1,27/07/2022 16:31:31,94050,2,task-s8ki,NA,23334776,6847645,NA,complete,NA,62e15a29652d735ea8fc3e4c,computer,Desktop or Laptop,Mac OS 10.15.6,Safari 15.5,768x1024,1024x665,NA,ITT Ratings,3,For,6,NA,NA,NA,NA,ACCEPT,NA,NA,NA,NA,NA,batch6hes,NA,NA,BEGIN TASK,NA,NA,NA,NA,NA,NA,NA,NA,NA,0,1,0,NA,NA,NA,NA,NA,NA,NA,NA,NA,NA,NA,NA,NA,NA,NA,NA,NA,NA,NA,NA,NA
2,1658935895336,27/07/2022 15:31:35,1658935895835,1,27/07/2022 16:31:35,94050,2,task-s8ki,NA,23334776,6847645,NA,complete,NA,62e15a29652d735ea8fc3e4c,computer,Desktop or Laptop,Mac OS 10.15.6,Safari 15.5,768x1024,1024x665,NA,ITT Ratings,3,For,6,NA,NA,NA,NA,ACCEPT,NA,NA,NA,NA,NA,batch6hes,batch6hes,1,1,1,Screen 1,advancementZone,continue_button,4173,NA,NA,NA,NA,0,1,0,NA,NA,NA,NA,NA,instructions,NA,NA,NA,NA,NA,NA,NA,NA,NA,NA,NA,NA,NA,NA,NA
3,1658935901431,27/07/2022 15:31:41,1658935901932,1,27/07/2022 16:31:41,94050,2,task-s8ki,NA,23334776,6847645,NA,complete,NA,62e15a29652d735ea8fc3e4c,computer,Desktop or Laptop,Mac OS 10.15.6,Safari 15.5,768x1024,1024x665,NA,ITT Ratings,3,For,6,NA,NA,NA,NA,ACCEPT,NA,NA,NA,NA,NA,batch6hes,batch6hes,3,1,1,Screen 1,continueButton,response_rating_scale_likert_active,6047,NA,NA,Somewhat Disagree,1,0,1,0,NA,NA,NA,NA,1,statements,We would like to check you are reading each argument carefully. Please select 'Somewhat Disagree' for this answer,1,NA,NA,NA,NA,NA,NA,NA,NA,NA,NA,check2,NA,NA
4,1658935915799,27/07/2022 15:31:55,1658935916303,1,27/07/2022 16:31:56,94050,2,task-s8ki,NA,23334776,6847645,NA,complete,NA,62e15a29652d735ea8fc3e4c,computer,Desktop or Laptop,Mac OS 10.15.6,Safari 15.5,768x1024,1024x665,NA,ITT Ratings,3,For,6,NA,NA,NA,NA,ACCEPT,NA,NA,NA,NA,NA,batch6hes,batch6hes,32,2,1,Screen 1,continueButton,response_rating_scale_likert_active,14319.999999999998,NA,NA,Somewhat Agree,1,0,1,0,NA,NA,NA,NA,1,statements,I feel as if I have to or other people will judge me.,1,17/05/2021 11:40,17/05/2021 12:02,1360,Rarely,Rarely,49,Female,-99,"Undergraduate degree (BSc, BA)",55,2,Against,For
5,1658935922680,27/07/2022 15:32:02,1658935923197,1,27/07/2022 16:32:03,94050,2,task-s8ki,NA,23334776,6847645,NA,complete,NA,62e15a29652d735ea8fc3e4c,computer,Desktop or Laptop,Mac OS 10.15.6,Safari 15.5,768x1024,1024x665,NA,ITT Ratings,3,For,6,NA,NA,NA,NA,ACCEPT,NA,NA,NA,NA,NA,batch6hes,batch6hes,62,3,1,Screen 1,continueButton,response_rating_scale_likert_active,6853,NA,NA,Agree,1,0,1,0,NA,NA,NA,NA,1,statements,looking after most vulnerable in society and protecting friends and family,1,17/05/2021 12:02,17/05/2021 12:17,926,Rarely,A few times a year,30,Female,-99,"Undergraduate degree (BSc, BA)",60,2,Against,For
6,1658935926599,27/07/2022 15:32:06,1658935927076,1,27/07/2022 16:32:07,94050,2,task-s8ki,NA,23334776,6847645,NA,complete,NA,62e15a29652d735ea8fc3e4c,computer,Desktop or Laptop,Mac OS 10.15.6,Safari 15.5,768x1024,1024x665,NA,ITT Ratings,3,For,6,NA,NA,NA,NA,ACCEPT,NA,NA,NA,NA,NA,batch6hes,batch6hes,23,4,1,Screen 1,continueButton,response_rating_scale_likert_active,3837,NA,NA,Somewhat Agree,1,0,1,0,NA,NA,NA,NA,1,statements,The vaccines haven't been thoroughly tested so the side effects are as yet unknown,1,17/05/2021 11:50,17/05/2021 12:02,717,Most days,Most days,47,Female,-99,"Undergraduate degree (BSc, BA)",54,2,Against,Against
7,1658935933639,27/07/2022 15:32:13,1658935934015,1,27/07/2022 16:32:14,94050,2,task-s8ki,NA,23334776,6847645,NA,complete,NA,62e15a29652d735ea8fc3e4c,computer,Desktop or Laptop,Mac OS 10.15.6,Safari 15.5,768x1024,1024x665,NA,ITT Ratings,3,For,6,NA,NA,NA,NA,ACCEPT,NA,NA,NA,NA,NA,batch6hes,batch6hes,45,5,1,Screen 1,continueButton,response_rating_scale_likert_active,6898,NA,NA,Agree,1,0,1,0,NA,NA,NA,NA,1,statements,Help society to get back to normal,1,17/05/2021 11:49,17/05/2021 12:07,1067,Most weeks,Most months,29,Female,-99,"Undergraduate degree (BSc, BA)",57,3,Against,For
8,1658935936530,27/07/2022 15:32:16,1658935937036,1,27/07/2022 16:32:17,94050,2,task-s8ki,NA,23334776,6847645,NA,complete,NA,62e15a29652d735ea8fc3e4c,computer,Desktop or Laptop,Mac OS 10.15.6,Safari 15.5,768x1024,1024x665,NA,ITT Ratings,3,For,6,NA,NA,NA,NA,ACCEPT,NA,NA,NA,NA,NA,batch6hes,batch6hes,36,6,1,Screen 1,continueButton,response_rating_scale_likert_active,2977.0000000000073,NA,NA,Strongly Agree,1,0,1,0,NA,NA,NA,NA,1,statements,Don't know how long immunity lasts,1,17/05/2021 11:56,17/05/2021 12:05,555,A few times a year,A few times a year,25,Female,-99,A levels,56,3,Against,Against
9,1658935942473,27/07/2022 15:32:22,1658935942986,1,27/07/2022 16:32:22,94050,2,task-s8ki,NA,23334776,6847645,NA,complete,NA,62e15a29652d735ea8fc3e4c,computer,Desktop or Laptop,Mac OS 10.15.6,Safari 15.5,768x1024,1024x665,NA,ITT Ratings,3,For,6,NA,NA,NA,NA,ACCEPT,NA,NA,NA,NA,NA,batch6hes,batch6hes,13,7,1,Screen 1,continueButton,response_rating_scale_likert_active,5912,NA,NA,Disagree,1,0,1,0,NA,NA,NA,NA,1,statements,"Because everyone I know had it, i.e. peer pressure",1,17/05/2021 11:32,17/05/2021 12:00,1684,Rarely,Most months,43,Female,-99,"Undergraduate degree (BSc, BA)",52,1,Against,For
10,1658935945327,27/07/2022 15:32:25,1658935945721,1,27/07/2022 16:32:25,94050,2,task-s8ki,NA,23334776,6847645,NA,complete,NA,62e15a29652d735ea8fc3e4c,computer,Desktop or Laptop,Mac OS 10.15.6,Safari 15.5,768x1024,1024x665,NA,ITT Ratings,3,For,6,NA,NA,NA,NA,ACCEPT,NA,NA,NA,NA,NA,batch6hes,batch6hes,54,8,1,Screen 1,continueButton,response_rating_scale_likert_active,2698,NA,NA,Disagree,1,0,1,0,NA,NA,NA,NA,1,statements,If enough other people get vaccinated I won't need it,1,17/05/2021 11:59,17/05/2021 12:15,955,Most months,Rarely,58,Female,-99,"GCSEs,A levels",59,3,Against,Against
11,1658935948637,27/07/2022 15:32:28,1658935949131,1,27/07/2022 16:32:29,94050,2,task-s8ki,NA,23334776,6847645,NA,complete,NA,62e15a29652d735ea8fc3e4c,computer,Desktop or Laptop,Mac OS 10.15.6,Safari 15.5,768x1024,1024x665,NA,ITT Ratings,3,For,6,NA,NA,NA,NA,ACCEPT,NA,NA,NA,NA,NA,batch6hes,batch6hes,34,9,1,Screen 1,continueButton,response_rating_scale_likert_active,3375,NA,NA,Somewhat Agree,1,0,1,0,NA,NA,NA,NA,1,statements,Don't know possible long term health complications,1,17/05/2021 11:56,17/05/2021 12:05,555,A few times a year,A few times a year,25,Female,-99,A levels,56,1,Against,Against
12,1658935951794,27/07/2022 15:32:31,1658935952254,1,27/07/2022 16:32:32,94050,2,task-s8ki,NA,23334776,6847645,NA,complete,NA,62e15a29652d735ea8fc3e4c,computer,Desktop or Laptop,Mac OS 10.15.6,Safari 15.5,768x1024,1024x665,NA,ITT Ratings,3,For,6,NA,NA,NA,NA,ACCEPT,NA,NA,NA,NA,NA,batch6hes,batch6hes,37,10,1,Screen 1,continueButton,response_rating_scale_likert_active,3088,NA,NA,Agree,1,0,1,0,NA,NA,NA,NA,1,statements,Lessen severity of symptoms for myself,1,17/05/2021 11:56,17/05/2021 12:05,555,A few times a year,A few times a year,25,Female,-99,A levels,56,1,Against,For
13,1658935954224,27/07/2022 15:32:34,1658935954676,1,27/07/2022 16:32:34,94050,2,task-s8ki,NA,23334776,6847645,NA,complete,NA,62e15a29652d735ea8fc3e4c,computer,Desktop or Laptop,Mac OS 10.15.6,Safari 15.5,768x1024,1024x665,NA,ITT Ratings,3,For,6,NA,NA,NA,NA,ACCEPT,NA,NA,NA,NA,NA,batch6hes,batch6hes,52,11,1,Screen 1,continueButton,response_rating_scale_likert_active,2383,NA,NA,Somewhat Agree,1,0,1,0,NA,NA,NA,NA,1,statements,The vaccine has not been tested for long enough,1,17/05/2021 11:59,17/05/2021 12:15,955,Most months,Rarely,58,Female,-99,"GCSEs,A levels",59,1,Against,Against
14,1658935957582,27/07/2022 15:32:37,1658935958047,1,27/07/2022 16:32:38,94050,2,task-s8ki,NA,23334776,6847645,NA,complete,NA,62e15a29652d735ea8fc3e4c,computer,Desktop or Laptop,Mac OS 10.15.6,Safari 15.5,768x1024,1024x665,NA,ITT Ratings,3,For,6,NA,NA,NA,NA,ACCEPT,NA,NA,NA,NA,NA,batch6hes,batch6hes,9,12,1,Screen 1,continueButton,response_rating_scale_likert_active,3336.9999999999927,NA,NA,Somewhat Agree,1,0,1,0,NA,NA,NA,NA,1,statements,I want to get back to 'normal'.,1,17/05/2021 11:27,17/05/2021 11:58,1838,Rarely,Most days,59,Female,-99,"Undergraduate degree (BSc, BA)",51,3,Against,For
15,1658935960905,27/07/2022 15:32:40,1658935961428,1,27/07/2022 16:32:41,94050,2,task-s8ki,NA,23334776,6847645,NA,complete,NA,62e15a29652d735ea8fc3e4c,computer,Desktop or Laptop,Mac OS 10.15.6,Safari 15.5,768x1024,1024x665,NA,ITT Ratings,3,For,6,NA,NA,NA,NA,ACCEPT,NA,NA,NA,NA,NA,batch6hes,batch6hes,55,13,1,Screen 1,continueButton,response_rating_scale_likert_active,3346,NA,NA,Agree,1,0,1,0,NA,NA,NA,NA,1,statements,I want to help by being vaccinated,1,17/05/2021 11:59,17/05/2021 12:15,955,Most months,Rarely,58,Female,-99,"GCSEs,A levels",59,1,Against,For
16,1658935964353,27/07/2022 15:32:44,1658935964842,1,27/07/2022 16:32:44,94050,2,task-s8ki,NA,23334776,6847645,NA,complete,NA,62e15a29652d735ea8fc3e4c,computer,Desktop or Laptop,Mac OS 10.15.6,Safari 15.5,768x1024,1024x665,NA,ITT Ratings,3,For,6,NA,NA,NA,NA,ACCEPT,NA,NA,NA,NA,NA,batch6hes,batch6hes,21,14,1,Screen 1,continueButton,response_rating_scale_likert_active,3380.9999999999854,NA,NA,Disagree,1,0,1,0,NA,NA,NA,NA,1,statements,I believe everything I hear,1,17/05/2021 11:52,17/05/2021 12:02,580,Most days,Most days,33,Male,-99,GCSEs,53,3,Against,For
17,1658935967572,27/07/2022 15:32:47,1658935968066,1,27/07/2022 16:32:48,94050,2,task-s8ki,NA,23334776,6847645,NA,complete,NA,62e15a29652d735ea8fc3e4c,computer,Desktop or Laptop,Mac OS 10.15.6,Safari 15.5,768x1024,1024x665,NA,ITT Ratings,3,For,6,NA,NA,NA,NA,ACCEPT,NA,NA,NA,NA,NA,batch6hes,batch6hes,43,15,1,Screen 1,continueButton,response_rating_scale_likert_active,3190.0000000000146,NA,NA,Somewhat Agree,1,0,1,0,NA,NA,NA,NA,1,statements,Lower infection and transmission rates,1,17/05/2021 11:49,17/05/2021 12:07,1067,Most weeks,Most months,29,Female,-99,"Undergraduate degree (BSc, BA)",57,1,Against,For
18,1658935973580,27/07/2022 15:32:53,1658935974083,1,27/07/2022 16:32:54,94050,2,task-s8ki,NA,23334776,6847645,NA,complete,NA,62e15a29652d735ea8fc3e4c,computer,Desktop or Laptop,Mac OS 10.15.6,Safari 15.5,768x1024,1024x665,NA,ITT Ratings,3,For,6,NA,NA,NA,NA,ACCEPT,NA,NA,NA,NA,NA,batch6hes,batch6hes,26,16,1,Screen 1,continueButton,response_rating_scale_likert_active,5982.000000000015,NA,NA,Disagree,1,0,1,0,NA,NA,NA,NA,1,statements,I want to do my bit to protect the vulnerable ...so I don't pass it on to others,1,17/05/2021 11:50,17/05/2021 12:02,717,Most days,Most days,47,Female,-99,"Undergraduate degree (BSc, BA)",54,2,Against,For
19,1658935976693,27/07/2022 15:32:56,1658935977225,1,27/07/2022 16:32:57,94050,2,task-s8ki,NA,23334776,6847645,NA,complete,NA,62e15a29652d735ea8fc3e4c,computer,Desktop or Laptop,Mac OS 10.15.6,Safari 15.5,768x1024,1024x665,NA,ITT Ratings,3,For,6,NA,NA,NA,NA,ACCEPT,NA,NA,NA,NA,NA,batch6hes,batch6hes,59,17,1,Screen 1,continueButton,response_rating_scale_likert_active,3105,NA,NA,Somewhat Agree,1,0,1,0,NA,NA,NA,NA,1,statements,Don't know what the long term side effects of the vaccine are,1,17/05/2021 12:02,17/05/2021 12:17,926,Rarely,A few times a year,30,Female,-99,"Undergraduate degree (BSc, BA)",60,2,Against,Against
20,1658935982088,27/07/2022 15:33:02,1658935982593,1,27/07/2022 16:33:02,94050,2,task-s8ki,NA,23334776,6847645,NA,complete,NA,62e15a29652d735ea8fc3e4c,computer,Desktop or Laptop,Mac OS 10.15.6,Safari 15.5,768x1024,1024x665,NA,ITT Ratings,3,For,6,NA,NA,NA,NA,ACCEPT,NA,NA,NA,NA,NA,batch6hes,batch6hes,24,18,1,Screen 1,continueButton,response_rating_scale_likert_active,5336,NA,NA,Agree,1,0,1,0,NA,NA,NA,NA,1,statements,The vaccine does not give you full immunity ....you can still catch and transmit the virus after being vaccinated .,1,17/05/2021 11:50,17/05/2021 12:02,717,Most days,Most days,47,Female,-99,"Undergraduate degree (BSc, BA)",54,3,Against,Against
21,1658935985020,27/07/2022 15:33:05,1658935985496,1,27/07/2022 16:33:05,94050,2,task-s8ki,NA,23334776,6847645,NA,complete,NA,62e15a29652d735ea8fc3e4c,computer,Desktop or Laptop,Mac OS 10.15.6,Safari 15.5,768x1024,1024x665,NA,ITT Ratings,3,For,6,NA,NA,NA,NA,ACCEPT,NA,NA,NA,NA,NA,batch6hes,batch6hes,11,19,1,Screen 1,continueButton,response_rating_scale_likert_active,2869,NA,NA,Somewhat Agree,1,0,1,0,NA,NA,NA,NA,1,statements,The trials haven't run long enough to know the long term effects,1,17/05/2021 11:32,17/05/2021 12:00,1684,Rarely,Most months,43,Female,-99,"Undergraduate degree (BSc, BA)",52,2,Against,Against
22,1658935988693,27/07/2022 15:33:08,1658935989214,1,27/07/2022 16:33:09,94050,2,task-s8ki,NA,23334776,6847645,NA,complete,NA,62e15a29652d735ea8fc3e4c,computer,Desktop or Laptop,Mac OS 10.15.6,Safari 15.5,768x1024,1024x665,NA,ITT Ratings,3,For,6,NA,NA,NA,NA,ACCEPT,NA,NA,NA,NA,NA,batch6hes,batch6hes,56,20,1,Screen 1,continueButton,response_rating_scale_likert_active,3687,NA,NA,Somewhat Agree,1,0,1,0,NA,NA,NA,NA,1,statements,I want to feel safer,1,17/05/2021 11:59,17/05/2021 12:15,955,Most months,Rarely,58,Female,-99,"GCSEs,A levels",59,2,Against,For
23,1658935993872,27/07/2022 15:33:13,1658935994398,1,27/07/2022 16:33:14,94050,2,task-s8ki,NA,23334776,6847645,NA,complete,NA,62e15a29652d735ea8fc3e4c,computer,Desktop or Laptop,Mac OS 10.15.6,Safari 15.5,768x1024,1024x665,NA,ITT Ratings,3,For,6,NA,NA,NA,NA,ACCEPT,NA,NA,NA,NA,NA,batch6hes,batch6hes,57,21,1,Screen 1,continueButton,response_rating_scale_likert_active,5154,NA,NA,Disagree,1,0,1,0,NA,NA,NA,NA,1,statements,It's the only way out of this pandemic,1,17/05/2021 11:59,17/05/2021 12:15,955,Most months,Rarely,58,Female,-99,"GCSEs,A levels",59,3,Against,For
24,1658936001086,27/07/2022 15:33:21,1658936001514,1,27/07/2022 16:33:21,94050,2,task-s8ki,NA,23334776,6847645,NA,complete,NA,62e15a29652d735ea8fc3e4c,computer,Desktop or Laptop,Mac OS 10.15.6,Safari 15.5,768x1024,1024x665,NA,ITT Ratings,3,For,6,NA,NA,NA,NA,ACCEPT,NA,NA,NA,NA,NA,batch6hes,batch6hes,19,22,1,Screen 1,continueButton,response_rating_scale_likert_active,7077.999999999985,NA,NA,Disagree,1,0,1,0,NA,NA,NA,NA,1,statements,It's effective because the news told me so,1,17/05/2021 11:52,17/05/2021 12:02,580,Most days,Most days,33,Male,-99,GCSEs,53,1,Against,For
25,1658936003626,27/07/2022 15:33:23,1658936004151,1,27/07/2022 16:33:24,94050,2,task-s8ki,NA,23334776,6847645,NA,complete,NA,62e15a29652d735ea8fc3e4c,computer,Desktop or Laptop,Mac OS 10.15.6,Safari 15.5,768x1024,1024x665,NA,ITT Ratings,3,For,6,NA,NA,NA,NA,ACCEPT,NA,NA,NA,NA,NA,batch6hes,batch6hes,4,23,1,Screen 1,continueButton,response_rating_scale_likert_active,2605,NA,NA,Somewhat Agree,1,0,1,0,NA,NA,NA,NA,1,statements,The vaccine was never tested to the gold standard.,1,17/05/2021 11:27,17/05/2021 11:58,1838,Rarely,Most days,59,Female,-99,"Undergraduate degree (BSc, BA)",51,1,Against,Against
26,1658936007177,27/07/2022 15:33:27,1658936007684,1,27/07/2022 16:33:27,94050,2,task-s8ki,NA,23334776,6847645,NA,complete,NA,62e15a29652d735ea8fc3e4c,computer,Desktop or Laptop,Mac OS 10.15.6,Safari 15.5,768x1024,1024x665,NA,ITT Ratings,3,For,6,NA,NA,NA,NA,ACCEPT,NA,NA,NA,NA,NA,batch6hes,batch6hes,25,24,1,Screen 1,continueButton,response_rating_scale_likert_active,3500.9999999999854,NA,NA,Somewhat Agree,1,0,1,0,NA,NA,NA,NA,1,statements,Its a deadly disease,1,17/05/2021 11:50,17/05/2021 12:02,717,Most days,Most days,47,Female,-99,"Undergraduate degree (BSc, BA)",54,1,Against,For
27,1658936009927,27/07/2022 15:33:29,1658936010443,1,27/07/2022 16:33:30,94050,2,task-s8ki,NA,23334776,6847645,NA,complete,NA,62e15a29652d735ea8fc3e4c,computer,Desktop or Laptop,Mac OS 10.15.6,Safari 15.5,768x1024,1024x665,NA,ITT Ratings,3,For,6,NA,NA,NA,NA,ACCEPT,NA,NA,NA,NA,NA,batch6hes,batch6hes,20,25,1,Screen 1,continueButton,response_rating_scale_likert_active,2719,NA,NA,Disagree,1,0,1,0,NA,NA,NA,NA,1,statements,All my friends have got it so IÈm getting it,1,17/05/2021 11:52,17/05/2021 12:02,580,Most days,Most days,33,Male,-99,GCSEs,53,2,Against,For
28,1658936014156,27/07/2022 15:33:34,1658936014684,1,27/07/2022 16:33:34,94050,2,task-s8ki,NA,23334776,6847645,NA,complete,NA,62e15a29652d735ea8fc3e4c,computer,Desktop or Laptop,Mac OS 10.15.6,Safari 15.5,768x1024,1024x665,NA,ITT Ratings,3,For,6,NA,NA,NA,NA,ACCEPT,NA,NA,NA,NA,NA,batch6hes,batch6hes,46,26,1,Screen 1,continueButton,response_rating_scale_likert_active,4205.999999999985,NA,NA,Agree,1,0,1,0,NA,NA,NA,NA,1,statements,Don't know the long term effects on fertility,1,17/05/2021 12:07,17/05/2021 12:14,400,Most weeks,Rarely,28,Female,-99,"Undergraduate degree (BSc, BA)",58,1,Against,Against
29,1658936016392,27/07/2022 15:33:36,1658936016845,1,27/07/2022 16:33:36,94050,2,task-s8ki,NA,23334776,6847645,NA,complete,NA,62e15a29652d735ea8fc3e4c,computer,Desktop or Laptop,Mac OS 10.15.6,Safari 15.5,768x1024,1024x665,NA,ITT Ratings,3,For,6,NA,NA,NA,NA,ACCEPT,NA,NA,NA,NA,NA,batch6hes,batch6hes,49,27,1,Screen 1,continueButton,response_rating_scale_likert_active,2125,NA,NA,Somewhat Agree,1,0,1,0,NA,NA,NA,NA,1,statements,Want to get back to normal,1,17/05/2021 12:07,17/05/2021 12:14,400,Most weeks,Rarely,28,Female,-99,"Undergraduate degree (BSc, BA)",58,1,Against,For
30,1658936020039,27/07/2022 15:33:40,1658936020524,1,27/07/2022 16:33:40,94050,2,task-s8ki,NA,23334776,6847645,NA,complete,NA,62e15a29652d735ea8fc3e4c,computer,Desktop or Laptop,Mac OS 10.15.6,Safari 15.5,768x1024,1024x665,NA,ITT Ratings,3,For,6,NA,NA,NA,NA,ACCEPT,NA,NA,NA,NA,NA,batch6hes,batch6hes,2,28,1,Screen 1,continueButton,response_rating_scale_likert_active,3641.0000000000146,NA,NA,Somewhat Agree,1,0,1,0,NA,NA,NA,NA,1,statements,We would like to check you are reading each argument carefully. Please select 'Somewhat Agree' for this answer,1,NA,NA,NA,NA,NA,NA,NA,NA,NA,NA,check1,NA,NA
31,1658936022472,27/07/2022 15:33:42,1658936022891,1,27/07/2022 16:33:42,94050,2,task-s8ki,NA,23334776,6847645,NA,complete,NA,62e15a29652d735ea8fc3e4c,computer,Desktop or Laptop,Mac OS 10.15.6,Safari 15.5,768x1024,1024x665,NA,ITT Ratings,3,For,6,NA,NA,NA,NA,ACCEPT,NA,NA,NA,NA,NA,batch6hes,batch6hes,50,29,1,Screen 1,continueButton,response_rating_scale_likert_active,2335,NA,NA,Disagree,1,0,1,0,NA,NA,NA,NA,1,statements,Have underlying health conditions,1,17/05/2021 12:07,17/05/2021 12:14,400,Most weeks,Rarely,28,Female,-99,"Undergraduate degree (BSc, BA)",58,2,Against,For
32,1658936026339,27/07/2022 15:33:46,1658936026810,1,27/07/2022 16:33:46,94050,2,task-s8ki,NA,23334776,6847645,NA,complete,NA,62e15a29652d735ea8fc3e4c,computer,Desktop or Laptop,Mac OS 10.15.6,Safari 15.5,768x1024,1024x665,NA,ITT Ratings,3,For,6,NA,NA,NA,NA,ACCEPT,NA,NA,NA,NA,NA,batch6hes,batch6hes,33,30,1,Screen 1,continueButton,response_rating_scale_likert_active,3887.999999999971,NA,NA,Agree,1,0,1,0,NA,NA,NA,NA,1,statements,Most people haven't had any serious side effects.,1,17/05/2021 11:40,17/05/2021 12:02,1360,Rarely,Rarely,49,Female,-99,"Undergraduate degree (BSc, BA)",55,3,Against,For
33,1658936036422,27/07/2022 15:33:56,1658936036950,1,27/07/2022 16:33:56,94050,2,task-s8ki,NA,23334776,6847645,NA,complete,NA,62e15a29652d735ea8fc3e4c,computer,Desktop or Laptop,Mac OS 10.15.6,Safari 15.5,768x1024,1024x665,NA,ITT Ratings,3,For,6,NA,NA,NA,NA,ACCEPT,NA,NA,NA,NA,NA,batch6hes,batch6hes,6,31,1,Screen 1,continueButton,response_rating_scale_likert_active,10107,NA,NA,Disagree,1,0,1,0,NA,NA,NA,NA,1,statements,"RNA vaccines are new, and past trials and tests with them on animals were unsuccessful, with many animal deaths from them. RNA vaccines can be dangerous and the long-term effects are unknown.",1,17/05/2021 11:27,17/05/2021 11:58,1838,Rarely,Most days,59,Female,-99,"Undergraduate degree (BSc, BA)",51,3,Against,Against
34,1658936084357,27/07/2022 15:34:44,1658936084595,1,27/07/2022 16:34:44,94050,2,task-s8ki,NA,23334776,6847645,NA,complete,NA,62e15a29652d735ea8fc3e4c,computer,Desktop or Laptop,Mac OS 10.15.6,Safari 15.5,768x1024,1024x665,NA,ITT Ratings,3,For,6,NA,NA,NA,NA,ACCEPT,NA,NA,NA,NA,NA,batch6hes,batch6hes,61,32,1,Screen 1,continueButton,response_rating_scale_likert_active,47614,NA,NA,Somewhat Agree,1,0,1,0,NA,NA,NA,NA,1,statements,"Herd immunity if everyone does it, it will be more effective",1,17/05/2021 12:02,17/05/2021 12:17,926,Rarely,A few times a year,30,Female,-99,"Undergraduate degree (BSc, BA)",60,1,Against,For
35,1658936087319,27/07/2022 15:34:47,1658936087835,1,27/07/2022 16:34:47,94050,2,task-s8ki,NA,23334776,6847645,NA,complete,NA,62e15a29652d735ea8fc3e4c,computer,Desktop or Laptop,Mac OS 10.15.6,Safari 15.5,768x1024,1024x665,NA,ITT Ratings,3,For,6,NA,NA,NA,NA,ACCEPT,NA,NA,NA,NA,NA,batch6hes,batch6hes,31,33,1,Screen 1,continueButton,response_rating_scale_likert_active,3209,NA,NA,Somewhat Agree,1,0,1,0,NA,NA,NA,NA,1,statements,It's what everybody else is doing.,1,17/05/2021 11:40,17/05/2021 12:02,1360,Rarely,Rarely,49,Female,-99,"Undergraduate degree (BSc, BA)",55,1,Against,For
36,1658936090256,27/07/2022 15:34:50,1658936090778,1,27/07/2022 16:34:50,94050,2,task-s8ki,NA,23334776,6847645,NA,complete,NA,62e15a29652d735ea8fc3e4c,computer,Desktop or Laptop,Mac OS 10.15.6,Safari 15.5,768x1024,1024x665,NA,ITT Ratings,3,For,6,NA,NA,NA,NA,ACCEPT,NA,NA,NA,NA,NA,batch6hes,batch6hes,16,34,1,Screen 1,continueButton,response_rating_scale_likert_active,2911,NA,NA,Somewhat Agree,1,0,1,0,NA,NA,NA,NA,1,statements,Not tested enough not enough clinical trials,1,17/05/2021 11:52,17/05/2021 12:02,580,Most days,Most days,33,Male,-99,GCSEs,53,1,Against,Against
37,1658936097176,27/07/2022 15:34:57,1658936097680,1,27/07/2022 16:34:57,94050,2,task-s8ki,NA,23334776,6847645,NA,complete,NA,62e15a29652d735ea8fc3e4c,computer,Desktop or Laptop,Mac OS 10.15.6,Safari 15.5,768x1024,1024x665,NA,ITT Ratings,3,For,6,NA,NA,NA,NA,ACCEPT,NA,NA,NA,NA,NA,batch6hes,batch6hes,18,35,1,Screen 1,continueButton,response_rating_scale_likert_active,6871,NA,NA,Somewhat Agree,1,0,1,0,NA,NA,NA,NA,1,statements,If it's so effective then why do we have to wear masks and social distance,1,17/05/2021 11:52,17/05/2021 12:02,580,Most days,Most days,33,Male,-99,GCSEs,53,3,Against,Against
38,1658936099186,27/07/2022 15:34:59,1658936099636,1,27/07/2022 16:34:59,94050,2,task-s8ki,NA,23334776,6847645,NA,complete,NA,62e15a29652d735ea8fc3e4c,computer,Desktop or Laptop,Mac OS 10.15.6,Safari 15.5,768x1024,1024x665,NA,ITT Ratings,3,For,6,NA,NA,NA,NA,ACCEPT,NA,NA,NA,NA,NA,batch6hes,batch6hes,38,36,1,Screen 1,continueButton,response_rating_scale_likert_active,1925,NA,NA,Agree,1,0,1,0,NA,NA,NA,NA,1,statements,Lessen chance of spreading it,1,17/05/2021 11:56,17/05/2021 12:05,555,A few times a year,A few times a year,25,Female,-99,A levels,56,2,Against,For
39,1658936101541,27/07/2022 15:35:01,1658936102012,1,27/07/2022 16:35:02,94050,2,task-s8ki,NA,23334776,6847645,NA,complete,NA,62e15a29652d735ea8fc3e4c,computer,Desktop or Laptop,Mac OS 10.15.6,Safari 15.5,768x1024,1024x665,NA,ITT Ratings,3,For,6,NA,NA,NA,NA,ACCEPT,NA,NA,NA,NA,NA,batch6hes,batch6hes,60,37,1,Screen 1,continueButton,response_rating_scale_likert_active,2344,NA,NA,Agree,1,0,1,0,NA,NA,NA,NA,1,statements,"Even after the vaccine, you are not guaranteed immunity.",1,17/05/2021 12:02,17/05/2021 12:17,926,Rarely,A few times a year,30,Female,-99,"Undergraduate degree (BSc, BA)",60,3,Against,Against
40,1658936105438,27/07/2022 15:35:05,1658936105936,1,27/07/2022 16:35:05,94050,2,task-s8ki,NA,23334776,6847645,NA,complete,NA,62e15a29652d735ea8fc3e4c,computer,Desktop or Laptop,Mac OS 10.15.6,Safari 15.5,768x1024,1024x665,NA,ITT Ratings,3,For,6,NA,NA,NA,NA,ACCEPT,NA,NA,NA,NA,NA,batch6hes,batch6hes,47,38,1,Screen 1,continueButton,response_rating_scale_likert_active,3893,NA,NA,Somewhat Agree,1,0,1,0,NA,NA,NA,NA,1,statements,Don't know enough about it,1,17/05/2021 12:07,17/05/2021 12:14,400,Most weeks,Rarely,28,Female,-99,"Undergraduate degree (BSc, BA)",58,2,Against,Against
41,1658936110853,27/07/2022 15:35:10,1658936111362,1,27/07/2022 16:35:11,94050,2,task-s8ki,NA,23334776,6847645,NA,complete,NA,62e15a29652d735ea8fc3e4c,computer,Desktop or Laptop,Mac OS 10.15.6,Safari 15.5,768x1024,1024x665,NA,ITT Ratings,3,For,6,NA,NA,NA,NA,ACCEPT,NA,NA,NA,NA,NA,batch6hes,batch6hes,5,39,1,Screen 1,continueButton,response_rating_scale_likert_active,5393.999999999971,NA,NA,Disagree,1,0,1,0,NA,NA,NA,NA,1,statements,"The vaccine trials have caused some very adverse reactions, ongoing complications, and even death. Some covid vaccine manufacturers have even stated these dangers themselves.",1,17/05/2021 11:27,17/05/2021 11:58,1838,Rarely,Most days,59,Female,-99,"Undergraduate degree (BSc, BA)",51,2,Against,Against
42,1658936113485,27/07/2022 15:35:13,1658936113995,1,27/07/2022 16:35:13,94050,2,task-s8ki,NA,23334776,6847645,NA,complete,NA,62e15a29652d735ea8fc3e4c,computer,Desktop or Laptop,Mac OS 10.15.6,Safari 15.5,768x1024,1024x665,NA,ITT Ratings,3,For,6,NA,NA,NA,NA,ACCEPT,NA,NA,NA,NA,NA,batch6hes,batch6hes,42,40,1,Screen 1,continueButton,response_rating_scale_likert_active,2602,NA,NA,Disagree,1,0,1,0,NA,NA,NA,NA,1,statements,Don't believe COVID-19 is real,1,17/05/2021 11:49,17/05/2021 12:07,1067,Most weeks,Most months,29,Female,-99,"Undergraduate degree (BSc, BA)",57,3,Against,Against
43,1658936117083,27/07/2022 15:35:17,1658936117589,1,27/07/2022 16:35:17,94050,2,task-s8ki,NA,23334776,6847645,NA,complete,NA,62e15a29652d735ea8fc3e4c,computer,Desktop or Laptop,Mac OS 10.15.6,Safari 15.5,768x1024,1024x665,NA,ITT Ratings,3,For,6,NA,NA,NA,NA,ACCEPT,NA,NA,NA,NA,NA,batch6hes,batch6hes,7,41,1,Screen 1,continueButton,response_rating_scale_likert_active,3555,NA,NA,Somewhat Disagree,1,0,1,0,NA,NA,NA,NA,1,statements,I'm worried about catching the coronavirus.,1,17/05/2021 11:27,17/05/2021 11:58,1838,Rarely,Most days,59,Female,-99,"Undergraduate degree (BSc, BA)",51,1,Against,For
44,1658936118975,27/07/2022 15:35:18,1658936119430,1,27/07/2022 16:35:19,94050,2,task-s8ki,NA,23334776,6847645,NA,complete,NA,62e15a29652d735ea8fc3e4c,computer,Desktop or Laptop,Mac OS 10.15.6,Safari 15.5,768x1024,1024x665,NA,ITT Ratings,3,For,6,NA,NA,NA,NA,ACCEPT,NA,NA,NA,NA,NA,batch6hes,batch6hes,40,42,1,Screen 1,continueButton,response_rating_scale_likert_active,1809,NA,NA,Agree,1,0,1,0,NA,NA,NA,NA,1,statements,Doesn't stop transmission or infection,1,17/05/2021 11:49,17/05/2021 12:07,1067,Most weeks,Most months,29,Female,-99,"Undergraduate degree (BSc, BA)",57,1,Against,Against
45,1658936122244,27/07/2022 15:35:22,1658936122723,1,27/07/2022 16:35:22,94050,2,task-s8ki,NA,23334776,6847645,NA,complete,NA,62e15a29652d735ea8fc3e4c,computer,Desktop or Laptop,Mac OS 10.15.6,Safari 15.5,768x1024,1024x665,NA,ITT Ratings,3,For,6,NA,NA,NA,NA,ACCEPT,NA,NA,NA,NA,NA,batch6hes,batch6hes,8,43,1,Screen 1,continueButton,response_rating_scale_likert_active,3258.000000000029,NA,NA,Somewhat Disagree,1,0,1,0,NA,NA,NA,NA,1,statements,I want to be able to go out and about without worrying.,1,17/05/2021 11:27,17/05/2021 11:58,1838,Rarely,Most days,59,Female,-99,"Undergraduate degree (BSc, BA)",51,2,Against,For
46,1658936125299,27/07/2022 15:35:25,1658936125822,1,27/07/2022 16:35:25,94050,2,task-s8ki,NA,23334776,6847645,NA,complete,NA,62e15a29652d735ea8fc3e4c,computer,Desktop or Laptop,Mac OS 10.15.6,Safari 15.5,768x1024,1024x665,NA,ITT Ratings,3,For,6,NA,NA,NA,NA,ACCEPT,NA,NA,NA,NA,NA,batch6hes,batch6hes,48,44,1,Screen 1,continueButton,response_rating_scale_likert_active,3066,NA,NA,Agree,1,0,1,0,NA,NA,NA,NA,1,statements,Not a risk group for covid,1,17/05/2021 12:07,17/05/2021 12:14,400,Most weeks,Rarely,28,Female,-99,"Undergraduate degree (BSc, BA)",58,3,Against,Against
47,1658936127947,27/07/2022 15:35:27,1658936128434,1,27/07/2022 16:35:28,94050,2,task-s8ki,NA,23334776,6847645,NA,complete,NA,62e15a29652d735ea8fc3e4c,computer,Desktop or Laptop,Mac OS 10.15.6,Safari 15.5,768x1024,1024x665,NA,ITT Ratings,3,For,6,NA,NA,NA,NA,ACCEPT,NA,NA,NA,NA,NA,batch6hes,batch6hes,41,45,1,Screen 1,continueButton,response_rating_scale_likert_active,2583,NA,NA,Somewhat Agree,1,0,1,0,NA,NA,NA,NA,1,statements,Vaccines developed too quickly so not safe or trustworthy,1,17/05/2021 11:49,17/05/2021 12:07,1067,Most weeks,Most months,29,Female,-99,"Undergraduate degree (BSc, BA)",57,2,Against,Against
48,1658936130213,27/07/2022 15:35:30,1658936130730,1,27/07/2022 16:35:30,94050,2,task-s8ki,NA,23334776,6847645,NA,complete,NA,62e15a29652d735ea8fc3e4c,computer,Desktop or Laptop,Mac OS 10.15.6,Safari 15.5,768x1024,1024x665,NA,ITT Ratings,3,For,6,NA,NA,NA,NA,ACCEPT,NA,NA,NA,NA,NA,batch6hes,batch6hes,22,46,1,Screen 1,continueButton,response_rating_scale_likert_active,2259,NA,NA,Disagree,1,0,1,0,NA,NA,NA,NA,1,statements,I rely on my natural immunity,1,17/05/2021 11:50,17/05/2021 12:02,717,Most days,Most days,47,Female,-99,"Undergraduate degree (BSc, BA)",54,1,Against,Against
49,1658936136054,27/07/2022 15:35:36,1658936136162,1,27/07/2022 16:35:36,94050,2,task-s8ki,NA,23334776,6847645,NA,complete,NA,62e15a29652d735ea8fc3e4c,computer,Desktop or Laptop,Mac OS 10.15.6,Safari 15.5,768x1024,1024x665,NA,ITT Ratings,3,For,6,NA,NA,NA,NA,ACCEPT,NA,NA,NA,NA,NA,batch6hes,batch6hes,29,47,1,Screen 1,continueButton,response_rating_scale_likert_active,5400,NA,NA,Somewhat Agree,1,0,1,0,NA,NA,NA,NA,1,statements,"We don't yet know if there are any long term side effect of the vaccine, or how long it will stay effective, there just hasn't been time to test any of this.",1,17/05/2021 11:40,17/05/2021 12:02,1360,Rarely,Rarely,49,Female,-99,"Undergraduate degree (BSc, BA)",55,2,Against,Against
50,1658936137914,27/07/2022 15:35:37,1658936138417,1,27/07/2022 16:35:38,94050,2,task-s8ki,NA,23334776,6847645,NA,complete,NA,62e15a29652d735ea8fc3e4c,computer,Desktop or Laptop,Mac OS 10.15.6,Safari 15.5,768x1024,1024x665,NA,ITT Ratings,3,For,6,NA,NA,NA,NA,ACCEPT,NA,NA,NA,NA,NA,batch6hes,batch6hes,44,48,1,Screen 1,continueButton,response_rating_scale_likert_active,2214,NA,NA,Agree,1,0,1,0,NA,NA,NA,NA,1,statements,reduce the impact of COVID-19 symptoms when contracted,1,17/05/2021 11:49,17/05/2021 12:07,1067,Most weeks,Most months,29,Female,-99,"Undergraduate degree (BSc, BA)",57,2,Against,For
51,1658936140708,27/07/2022 15:35:40,1658936141221,1,27/07/2022 16:35:41,94050,2,task-s8ki,NA,23334776,6847645,NA,complete,NA,62e15a29652d735ea8fc3e4c,computer,Desktop or Laptop,Mac OS 10.15.6,Safari 15.5,768x1024,1024x665,NA,ITT Ratings,3,For,6,NA,NA,NA,NA,ACCEPT,NA,NA,NA,NA,NA,batch6hes,batch6hes,27,49,1,Screen 1,continueButton,response_rating_scale_likert_active,2769,NA,NA,Agree,1,0,1,0,NA,NA,NA,NA,1,statements,"Even though it may not be fatal for everyone , people ca still suffer from long covid",1,17/05/2021 11:50,17/05/2021 12:02,717,Most days,Most days,47,Female,-99,"Undergraduate degree (BSc, BA)",54,3,Against,For
52,1658936143445,27/07/2022 15:35:43,1658936143958,1,27/07/2022 16:35:43,94050,2,task-s8ki,NA,23334776,6847645,NA,complete,NA,62e15a29652d735ea8fc3e4c,computer,Desktop or Laptop,Mac OS 10.15.6,Safari 15.5,768x1024,1024x665,NA,ITT Ratings,3,For,6,NA,NA,NA,NA,ACCEPT,NA,NA,NA,NA,NA,batch6hes,batch6hes,15,50,1,Screen 1,continueButton,response_rating_scale_likert_active,2704.999999999971,NA,NA,Somewhat Agree,1,0,1,0,NA,NA,NA,NA,1,statements,"Vaccines are good, regardless of how new or experimental they are",1,17/05/2021 11:32,17/05/2021 12:00,1684,Rarely,Most months,43,Female,-99,"Undergraduate degree (BSc, BA)",52,3,Against,For
53,1658936146129,27/07/2022 15:35:46,1658936146634,1,27/07/2022 16:35:46,94050,2,task-s8ki,NA,23334776,6847645,NA,complete,NA,62e15a29652d735ea8fc3e4c,computer,Desktop or Laptop,Mac OS 10.15.6,Safari 15.5,768x1024,1024x665,NA,ITT Ratings,3,For,6,NA,NA,NA,NA,ACCEPT,NA,NA,NA,NA,NA,batch6hes,batch6hes,35,51,1,Screen 1,continueButton,response_rating_scale_likert_active,2642.000000000029,NA,NA,Agree,1,0,1,0,NA,NA,NA,NA,1,statements,Not effective against different strains,1,17/05/2021 11:56,17/05/2021 12:05,555,A few times a year,A few times a year,25,Female,-99,A levels,56,2,Against,Against
54,1658936149978,27/07/2022 15:35:49,1658936150497,1,27/07/2022 16:35:50,94050,2,task-s8ki,NA,23334776,6847645,NA,complete,NA,62e15a29652d735ea8fc3e4c,computer,Desktop or Laptop,Mac OS 10.15.6,Safari 15.5,768x1024,1024x665,NA,ITT Ratings,3,For,6,NA,NA,NA,NA,ACCEPT,NA,NA,NA,NA,NA,batch6hes,batch6hes,58,52,1,Screen 1,continueButton,response_rating_scale_likert_active,3830.000000000058,NA,NA,Somewhat Agree,1,0,1,0,NA,NA,NA,NA,1,statements,Produced too quickly,1,17/05/2021 12:02,17/05/2021 12:17,926,Rarely,A few times a year,30,Female,-99,"Undergraduate degree (BSc, BA)",60,1,Against,Against
55,1658936152760,27/07/2022 15:35:52,1658936153273,1,27/07/2022 16:35:53,94050,2,task-s8ki,NA,23334776,6847645,NA,complete,NA,62e15a29652d735ea8fc3e4c,computer,Desktop or Laptop,Mac OS 10.15.6,Safari 15.5,768x1024,1024x665,NA,ITT Ratings,3,For,6,NA,NA,NA,NA,ACCEPT,NA,NA,NA,NA,NA,batch6hes,batch6hes,39,53,1,Screen 1,continueButton,response_rating_scale_likert_active,2744.000000000029,NA,NA,Somewhat Agree,1,0,1,0,NA,NA,NA,NA,1,statements,Go 'back to normal',1,17/05/2021 11:56,17/05/2021 12:05,555,A few times a year,A few times a year,25,Female,-99,A levels,56,3,Against,For
56,1658936157908,27/07/2022 15:35:57,1658936158426,1,27/07/2022 16:35:58,94050,2,task-s8ki,NA,23334776,6847645,NA,complete,NA,62e15a29652d735ea8fc3e4c,computer,Desktop or Laptop,Mac OS 10.15.6,Safari 15.5,768x1024,1024x665,NA,ITT Ratings,3,For,6,NA,NA,NA,NA,ACCEPT,NA,NA,NA,NA,NA,batch6hes,batch6hes,28,54,1,Screen 1,continueButton,response_rating_scale_likert_active,5122,NA,NA,Somewhat Disagree,1,0,1,0,NA,NA,NA,NA,1,statements,People have died from taking the vaccine who would otherwise still be here today.,1,17/05/2021 11:40,17/05/2021 12:02,1360,Rarely,Rarely,49,Female,-99,"Undergraduate degree (BSc, BA)",55,1,Against,Against
57,1658936160653,27/07/2022 15:36:00,1658936161178,1,27/07/2022 16:36:01,94050,2,task-s8ki,NA,23334776,6847645,NA,complete,NA,62e15a29652d735ea8fc3e4c,computer,Desktop or Laptop,Mac OS 10.15.6,Safari 15.5,768x1024,1024x665,NA,ITT Ratings,3,For,6,NA,NA,NA,NA,ACCEPT,NA,NA,NA,NA,NA,batch6hes,batch6hes,10,55,1,Screen 1,continueButton,response_rating_scale_likert_active,2719.999999999942,NA,NA,Somewhat Disagree,1,0,1,0,NA,NA,NA,NA,1,statements,I don't do experimental drugs,1,17/05/2021 11:32,17/05/2021 12:00,1684,Rarely,Most months,43,Female,-99,"Undergraduate degree (BSc, BA)",52,1,Against,Against
58,1658936165755,27/07/2022 15:36:05,1658936166281,1,27/07/2022 16:36:06,94050,2,task-s8ki,NA,23334776,6847645,NA,complete,NA,62e15a29652d735ea8fc3e4c,computer,Desktop or Laptop,Mac OS 10.15.6,Safari 15.5,768x1024,1024x665,NA,ITT Ratings,3,For,6,NA,NA,NA,NA,ACCEPT,NA,NA,NA,NA,NA,batch6hes,batch6hes,30,56,1,Screen 1,continueButton,response_rating_scale_likert_active,5072,NA,NA,Disagree,1,0,1,0,NA,NA,NA,NA,1,statements,"I can carry on keeping my distance from people, wearing a mask and using hand sanitiser and keep myself and my family safe that way. It's worked so far.",1,17/05/2021 11:40,17/05/2021 12:02,1360,Rarely,Rarely,49,Female,-99,"Undergraduate degree (BSc, BA)",55,3,Against,Against
59,1658936171542,27/07/2022 15:36:11,1658936172062,1,27/07/2022 16:36:12,94050,2,task-s8ki,NA,23334776,6847645,NA,complete,NA,62e15a29652d735ea8fc3e4c,computer,Desktop or Laptop,Mac OS 10.15.6,Safari 15.5,768x1024,1024x665,NA,ITT Ratings,3,For,6,NA,NA,NA,NA,ACCEPT,NA,NA,NA,NA,NA,batch6hes,batch6hes,12,57,1,Screen 1,continueButton,response_rating_scale_likert_active,5744,NA,NA,Somewhat Agree,1,0,1,0,NA,NA,NA,NA,1,statements,"Everyone, including the pharma companies aren't clear about possible side effects and the billion dollar shady pharma companies are immune from law suits from side effects or deaths.",1,17/05/2021 11:32,17/05/2021 12:00,1684,Rarely,Most months,43,Female,-99,"Undergraduate degree (BSc, BA)",52,3,Against,Against
60,1658936173598,27/07/2022 15:36:13,1658936174106,1,27/07/2022 16:36:14,94050,2,task-s8ki,NA,23334776,6847645,NA,complete,NA,62e15a29652d735ea8fc3e4c,computer,Desktop or Laptop,Mac OS 10.15.6,Safari 15.5,768x1024,1024x665,NA,ITT Ratings,3,For,6,NA,NA,NA,NA,ACCEPT,NA,NA,NA,NA,NA,batch6hes,batch6hes,63,58,1,Screen 1,continueButton,response_rating_scale_likert_active,2013.0000000000584,NA,NA,Somewhat Agree,1,0,1,0,NA,NA,NA,NA,1,statements,get back to normal life,1,17/05/2021 12:02,17/05/2021 12:17,926,Rarely,A few times a year,30,Female,-99,"Undergraduate degree (BSc, BA)",60,3,Against,For
61,1658936177961,27/07/2022 15:36:17,1658936178470,1,27/07/2022 16:36:18,94050,2,task-s8ki,NA,23334776,6847645,NA,complete,NA,62e15a29652d735ea8fc3e4c,computer,Desktop or Laptop,Mac OS 10.15.6,Safari 15.5,768x1024,1024x665,NA,ITT Ratings,3,For,6,NA,NA,NA,NA,ACCEPT,NA,NA,NA,NA,NA,batch6hes,batch6hes,17,59,1,Screen 1,continueButton,response_rating_scale_likert_active,4322,NA,NA,Agree,1,0,1,0,NA,NA,NA,NA,1,statements,Big pharma taking 3.7billion in profits not giving it to everyone for free,1,17/05/2021 11:52,17/05/2021 12:02,580,Most days,Most days,33,Male,-99,GCSEs,53,2,Against,Against
62,1658936180375,27/07/2022 15:36:20,1658936180899,1,27/07/2022 16:36:20,94050,2,task-s8ki,NA,23334776,6847645,NA,complete,NA,62e15a29652d735ea8fc3e4c,computer,Desktop or Laptop,Mac OS 10.15.6,Safari 15.5,768x1024,1024x665,NA,ITT Ratings,3,For,6,NA,NA,NA,NA,ACCEPT,NA,NA,NA,NA,NA,batch6hes,batch6hes,51,60,1,Screen 1,continueButton,response_rating_scale_likert_active,2396,NA,NA,Disagree,1,0,1,0,NA,NA,NA,NA,1,statements,Have close family with underlying heath conditions,1,17/05/2021 12:07,17/05/2021 12:14,400,Most weeks,Rarely,28,Female,-99,"Undergraduate degree (BSc, BA)",58,3,Against,For
63,1658936184808,27/07/2022 15:36:24,1658936185319,1,27/07/2022 16:36:25,94050,2,task-s8ki,NA,23334776,6847645,NA,complete,NA,62e15a29652d735ea8fc3e4c,computer,Desktop or Laptop,Mac OS 10.15.6,Safari 15.5,768x1024,1024x665,NA,ITT Ratings,3,For,6,NA,NA,NA,NA,ACCEPT,NA,NA,NA,NA,NA,batch6hes,batch6hes,53,61,1,Screen 1,continueButton,response_rating_scale_likert_active,4396,NA,NA,Somewhat Disagree,1,0,1,0,NA,NA,NA,NA,1,statements,Worried about the side effects that could happen,1,17/05/2021 11:59,17/05/2021 12:15,955,Most months,Rarely,58,Female,-99,"GCSEs,A levels",59,2,Against,Against
64,1658936187027,27/07/2022 15:36:27,1658936187543,1,27/07/2022 16:36:27,94050,2,task-s8ki,NA,23334776,6847645,NA,complete,NA,62e15a29652d735ea8fc3e4c,computer,Desktop or Laptop,Mac OS 10.15.6,Safari 15.5,768x1024,1024x665,NA,ITT Ratings,3,For,6,NA,NA,NA,NA,ACCEPT,NA,NA,NA,NA,NA,batch6hes,batch6hes,14,62,1,Screen 1,continueButton,response_rating_scale_likert_active,2200,NA,NA,Disagree,1,0,1,0,NA,NA,NA,NA,1,statements,"If I don't take it, I'll die from the disease.",1,17/05/2021 11:32,17/05/2021 12:00,1684,Rarely,Most months,43,Female,-99,"Undergraduate degree (BSc, BA)",52,2,Against,For
65,1658936187100,27/07/2022 15:36:27,1658936187553,1,27/07/2022 16:36:27,94050,2,task-s8ki,NA,23334776,6847645,NA,complete,NA,62e15a29652d735ea8fc3e4c,computer,Desktop or Laptop,Mac OS 10.15.6,Safari 15.5,768x1024,1024x665,NA,ITT Ratings,3,For,6,NA,NA,NA,NA,ACCEPT,NA,NA,NA,NA,NA,batch6hes,NA,NA,END TASK,NA,NA,NA,NA,296241,NA,NA,NA,NA,0,1,0,NA,NA,NA,NA,NA,NA,NA,NA,NA,NA,NA,NA,NA,NA,NA,NA,NA,NA,NA,NA,NA
1,1658936258077,27/07/2022 15:37:38,1658936258672,1,27/07/2022 16:37:38,94050,2,task-s8ki,NA,23334939,6847705,NA,complete,NA,62e15ba10d38198b15f10f6f,computer,Desktop or Laptop,Chromium OS 14816.99.0,Chrome 103.0.0.0,1366x768,1366x617,NA,ITT Ratings,3,For,6,NA,NA,NA,NA,ACCEPT,NA,NA,NA,NA,NA,batch6hes,NA,NA,BEGIN TASK,NA,NA,NA,NA,NA,NA,NA,NA,NA,0,1,0,NA,NA,NA,NA,NA,NA,NA,NA,NA,NA,NA,NA,NA,NA,NA,NA,NA,NA,NA,NA,NA
2,1658936265684,27/07/2022 15:37:45,1658936266302,1,27/07/2022 16:37:46,94050,2,task-s8ki,NA,23334939,6847705,NA,complete,NA,62e15ba10d38198b15f10f6f,computer,Desktop or Laptop,Chromium OS 14816.99.0,Chrome 103.0.0.0,1366x768,1366x617,NA,ITT Ratings,3,For,6,NA,NA,NA,NA,ACCEPT,NA,NA,NA,NA,NA,batch6hes,batch6hes,1,1,1,Screen 1,advancementZone,continue_button,7530.19999999553,NA,NA,NA,NA,0,1,0,NA,NA,NA,NA,NA,instructions,NA,NA,NA,NA,NA,NA,NA,NA,NA,NA,NA,NA,NA,NA,NA
3,1658936273808,27/07/2022 15:37:53,1658936274440,1,27/07/2022 16:37:54,94050,2,task-s8ki,NA,23334939,6847705,NA,complete,NA,62e15ba10d38198b15f10f6f,computer,Desktop or Laptop,Chromium OS 14816.99.0,Chrome 103.0.0.0,1366x768,1366x617,NA,ITT Ratings,3,For,6,NA,NA,NA,NA,ACCEPT,NA,NA,NA,NA,NA,batch6hes,batch6hes,24,1,1,Screen 1,continueButton,response_rating_scale_likert_active,8093.10000000149,NA,NA,Agree,1,0,1,0,NA,NA,NA,NA,1,statements,The vaccine does not give you full immunity ....you can still catch and transmit the virus after being vaccinated .,1,17/05/2021 11:50,17/05/2021 12:02,717,Most days,Most days,47,Female,-99,"Undergraduate degree (BSc, BA)",54,3,Against,Against
4,1658936279109,27/07/2022 15:37:59,1658936279720,1,27/07/2022 16:37:59,94050,2,task-s8ki,NA,23334939,6847705,NA,complete,NA,62e15ba10d38198b15f10f6f,computer,Desktop or Laptop,Chromium OS 14816.99.0,Chrome 103.0.0.0,1366x768,1366x617,NA,ITT Ratings,3,For,6,NA,NA,NA,NA,ACCEPT,NA,NA,NA,NA,NA,batch6hes,batch6hes,8,2,1,Screen 1,continueButton,response_rating_scale_likert_active,5214,NA,NA,Strongly Agree,1,0,1,0,NA,NA,NA,NA,1,statements,I want to be able to go out and about without worrying.,1,17/05/2021 11:27,17/05/2021 11:58,1838,Rarely,Most days,59,Female,-99,"Undergraduate degree (BSc, BA)",51,2,Against,For
5,1658936285928,27/07/2022 15:38:05,1658936286544,1,27/07/2022 16:38:06,94050,2,task-s8ki,NA,23334939,6847705,NA,complete,NA,62e15ba10d38198b15f10f6f,computer,Desktop or Laptop,Chromium OS 14816.99.0,Chrome 103.0.0.0,1366x768,1366x617,NA,ITT Ratings,3,For,6,NA,NA,NA,NA,ACCEPT,NA,NA,NA,NA,NA,batch6hes,batch6hes,13,3,1,Screen 1,continueButton,response_rating_scale_likert_active,6789.39999999851,NA,NA,Disagree,1,0,1,0,NA,NA,NA,NA,1,statements,"Because everyone I know had it, i.e. peer pressure",1,17/05/2021 11:32,17/05/2021 12:00,1684,Rarely,Most months,43,Female,-99,"Undergraduate degree (BSc, BA)",52,1,Against,For
6,1658936292169,27/07/2022 15:38:12,1658936292794,1,27/07/2022 16:38:12,94050,2,task-s8ki,NA,23334939,6847705,NA,complete,NA,62e15ba10d38198b15f10f6f,computer,Desktop or Laptop,Chromium OS 14816.99.0,Chrome 103.0.0.0,1366x768,1366x617,NA,ITT Ratings,3,For,6,NA,NA,NA,NA,ACCEPT,NA,NA,NA,NA,NA,batch6hes,batch6hes,58,4,1,Screen 1,continueButton,response_rating_scale_likert_active,6210.79999999702,NA,NA,Strongly Disagree,1,0,1,0,NA,NA,NA,NA,1,statements,Produced too quickly,1,17/05/2021 12:02,17/05/2021 12:17,926,Rarely,A few times a year,30,Female,-99,"Undergraduate degree (BSc, BA)",60,1,Against,Against
7,1658936296022,27/07/2022 15:38:16,1658936296646,1,27/07/2022 16:38:16,94050,2,task-s8ki,NA,23334939,6847705,NA,complete,NA,62e15ba10d38198b15f10f6f,computer,Desktop or Laptop,Chromium OS 14816.99.0,Chrome 103.0.0.0,1366x768,1366x617,NA,ITT Ratings,3,For,6,NA,NA,NA,NA,ACCEPT,NA,NA,NA,NA,NA,batch6hes,batch6hes,20,5,1,Screen 1,continueButton,response_rating_scale_likert_active,3796.60000000149,NA,NA,Disagree,1,0,1,0,NA,NA,NA,NA,1,statements,All my friends have got it so IÈm getting it,1,17/05/2021 11:52,17/05/2021 12:02,580,Most days,Most days,33,Male,-99,GCSEs,53,2,Against,For
8,1658936302730,27/07/2022 15:38:22,1658936303345,1,27/07/2022 16:38:23,94050,2,task-s8ki,NA,23334939,6847705,NA,complete,NA,62e15ba10d38198b15f10f6f,computer,Desktop or Laptop,Chromium OS 14816.99.0,Chrome 103.0.0.0,1366x768,1366x617,NA,ITT Ratings,3,For,6,NA,NA,NA,NA,ACCEPT,NA,NA,NA,NA,NA,batch6hes,batch6hes,5,6,1,Screen 1,continueButton,response_rating_scale_likert_active,6630.30000000447,NA,NA,Disagree,1,0,1,0,NA,NA,NA,NA,1,statements,"The vaccine trials have caused some very adverse reactions, ongoing complications, and even death. Some covid vaccine manufacturers have even stated these dangers themselves.",1,17/05/2021 11:27,17/05/2021 11:58,1838,Rarely,Most days,59,Female,-99,"Undergraduate degree (BSc, BA)",51,2,Against,Against
9,1658936305157,27/07/2022 15:38:25,1658936305782,1,27/07/2022 16:38:25,94050,2,task-s8ki,NA,23334939,6847705,NA,complete,NA,62e15ba10d38198b15f10f6f,computer,Desktop or Laptop,Chromium OS 14816.99.0,Chrome 103.0.0.0,1366x768,1366x617,NA,ITT Ratings,3,For,6,NA,NA,NA,NA,ACCEPT,NA,NA,NA,NA,NA,batch6hes,batch6hes,55,7,1,Screen 1,continueButton,response_rating_scale_likert_active,2396.6999999955297,NA,NA,Strongly Agree,1,0,1,0,NA,NA,NA,NA,1,statements,I want to help by being vaccinated,1,17/05/2021 11:59,17/05/2021 12:15,955,Most months,Rarely,58,Female,-99,"GCSEs,A levels",59,1,Against,For
10,1658936308067,27/07/2022 15:38:28,1658936308684,1,27/07/2022 16:38:28,94050,2,task-s8ki,NA,23334939,6847705,NA,complete,NA,62e15ba10d38198b15f10f6f,computer,Desktop or Laptop,Chromium OS 14816.99.0,Chrome 103.0.0.0,1366x768,1366x617,NA,ITT Ratings,3,For,6,NA,NA,NA,NA,ACCEPT,NA,NA,NA,NA,NA,batch6hes,batch6hes,36,8,1,Screen 1,continueButton,response_rating_scale_likert_active,2866.10000000149,NA,NA,Strongly Disagree,1,0,1,0,NA,NA,NA,NA,1,statements,Don't know how long immunity lasts,1,17/05/2021 11:56,17/05/2021 12:05,555,A few times a year,A few times a year,25,Female,-99,A levels,56,3,Against,Against
11,1658936310454,27/07/2022 15:38:30,1658936311057,1,27/07/2022 16:38:31,94050,2,task-s8ki,NA,23334939,6847705,NA,complete,NA,62e15ba10d38198b15f10f6f,computer,Desktop or Laptop,Chromium OS 14816.99.0,Chrome 103.0.0.0,1366x768,1366x617,NA,ITT Ratings,3,For,6,NA,NA,NA,NA,ACCEPT,NA,NA,NA,NA,NA,batch6hes,batch6hes,4,9,1,Screen 1,continueButton,response_rating_scale_likert_active,2324.70000000298,NA,NA,Disagree,1,0,1,0,NA,NA,NA,NA,1,statements,The vaccine was never tested to the gold standard.,1,17/05/2021 11:27,17/05/2021 11:58,1838,Rarely,Most days,59,Female,-99,"Undergraduate degree (BSc, BA)",51,1,Against,Against
12,1658936312702,27/07/2022 15:38:32,1658936313315,1,27/07/2022 16:38:33,94050,2,task-s8ki,NA,23334939,6847705,NA,complete,NA,62e15ba10d38198b15f10f6f,computer,Desktop or Laptop,Chromium OS 14816.99.0,Chrome 103.0.0.0,1366x768,1366x617,NA,ITT Ratings,3,For,6,NA,NA,NA,NA,ACCEPT,NA,NA,NA,NA,NA,batch6hes,batch6hes,37,10,1,Screen 1,continueButton,response_rating_scale_likert_active,2206.70000000298,NA,NA,Strongly Agree,1,0,1,0,NA,NA,NA,NA,1,statements,Lessen severity of symptoms for myself,1,17/05/2021 11:56,17/05/2021 12:05,555,A few times a year,A few times a year,25,Female,-99,A levels,56,1,Against,For
13,1658936315454,27/07/2022 15:38:35,1658936316070,1,27/07/2022 16:38:36,94050,2,task-s8ki,NA,23334939,6847705,NA,complete,NA,62e15ba10d38198b15f10f6f,computer,Desktop or Laptop,Chromium OS 14816.99.0,Chrome 103.0.0.0,1366x768,1366x617,NA,ITT Ratings,3,For,6,NA,NA,NA,NA,ACCEPT,NA,NA,NA,NA,NA,batch6hes,batch6hes,16,11,1,Screen 1,continueButton,response_rating_scale_likert_active,2712.8000000044703,NA,NA,Disagree,1,0,1,0,NA,NA,NA,NA,1,statements,Not tested enough not enough clinical trials,1,17/05/2021 11:52,17/05/2021 12:02,580,Most days,Most days,33,Male,-99,GCSEs,53,1,Against,Against
14,1658936321417,27/07/2022 15:38:41,1658936322022,1,27/07/2022 16:38:42,94050,2,task-s8ki,NA,23334939,6847705,NA,complete,NA,62e15ba10d38198b15f10f6f,computer,Desktop or Laptop,Chromium OS 14816.99.0,Chrome 103.0.0.0,1366x768,1366x617,NA,ITT Ratings,3,For,6,NA,NA,NA,NA,ACCEPT,NA,NA,NA,NA,NA,batch6hes,batch6hes,21,12,1,Screen 1,continueButton,response_rating_scale_likert_active,5912.39999999851,NA,NA,Neither Agree nor Disagree,1,0,1,0,NA,NA,NA,NA,1,statements,I believe everything I hear,1,17/05/2021 11:52,17/05/2021 12:02,580,Most days,Most days,33,Male,-99,GCSEs,53,3,Against,For
15,1658936326176,27/07/2022 15:38:46,1658936326784,1,27/07/2022 16:38:46,94050,2,task-s8ki,NA,23334939,6847705,NA,complete,NA,62e15ba10d38198b15f10f6f,computer,Desktop or Laptop,Chromium OS 14816.99.0,Chrome 103.0.0.0,1366x768,1366x617,NA,ITT Ratings,3,For,6,NA,NA,NA,NA,ACCEPT,NA,NA,NA,NA,NA,batch6hes,batch6hes,46,13,1,Screen 1,continueButton,response_rating_scale_likert_active,4708.60000000149,NA,NA,Disagree,1,0,1,0,NA,NA,NA,NA,1,statements,Don't know the long term effects on fertility,1,17/05/2021 12:07,17/05/2021 12:14,400,Most weeks,Rarely,28,Female,-99,"Undergraduate degree (BSc, BA)",58,1,Against,Against
16,1658936328388,27/07/2022 15:38:48,1658936329003,1,27/07/2022 16:38:49,94050,2,task-s8ki,NA,23334939,6847705,NA,complete,NA,62e15ba10d38198b15f10f6f,computer,Desktop or Laptop,Chromium OS 14816.99.0,Chrome 103.0.0.0,1366x768,1366x617,NA,ITT Ratings,3,For,6,NA,NA,NA,NA,ACCEPT,NA,NA,NA,NA,NA,batch6hes,batch6hes,63,14,1,Screen 1,continueButton,response_rating_scale_likert_active,2174.70000000298,NA,NA,Agree,1,0,1,0,NA,NA,NA,NA,1,statements,get back to normal life,1,17/05/2021 12:02,17/05/2021 12:17,926,Rarely,A few times a year,30,Female,-99,"Undergraduate degree (BSc, BA)",60,3,Against,For
17,1658936331024,27/07/2022 15:38:51,1658936331627,1,27/07/2022 16:38:51,94050,2,task-s8ki,NA,23334939,6847705,NA,complete,NA,62e15ba10d38198b15f10f6f,computer,Desktop or Laptop,Chromium OS 14816.99.0,Chrome 103.0.0.0,1366x768,1366x617,NA,ITT Ratings,3,For,6,NA,NA,NA,NA,ACCEPT,NA,NA,NA,NA,NA,batch6hes,batch6hes,38,15,1,Screen 1,continueButton,response_rating_scale_likert_active,2586,NA,NA,Strongly Agree,1,0,1,0,NA,NA,NA,NA,1,statements,Lessen chance of spreading it,1,17/05/2021 11:56,17/05/2021 12:05,555,A few times a year,A few times a year,25,Female,-99,A levels,56,2,Against,For
18,1658936333705,27/07/2022 15:38:53,1658936334305,1,27/07/2022 16:38:54,94050,2,task-s8ki,NA,23334939,6847705,NA,complete,NA,62e15ba10d38198b15f10f6f,computer,Desktop or Laptop,Chromium OS 14816.99.0,Chrome 103.0.0.0,1366x768,1366x617,NA,ITT Ratings,3,For,6,NA,NA,NA,NA,ACCEPT,NA,NA,NA,NA,NA,batch6hes,batch6hes,59,16,1,Screen 1,continueButton,response_rating_scale_likert_active,2635.0999999940395,NA,NA,Strongly Disagree,1,0,1,0,NA,NA,NA,NA,1,statements,Don't know what the long term side effects of the vaccine are,1,17/05/2021 12:02,17/05/2021 12:17,926,Rarely,A few times a year,30,Female,-99,"Undergraduate degree (BSc, BA)",60,2,Against,Against
19,1658936336349,27/07/2022 15:38:56,1658936336949,1,27/07/2022 16:38:56,94050,2,task-s8ki,NA,23334939,6847705,NA,complete,NA,62e15ba10d38198b15f10f6f,computer,Desktop or Laptop,Chromium OS 14816.99.0,Chrome 103.0.0.0,1366x768,1366x617,NA,ITT Ratings,3,For,6,NA,NA,NA,NA,ACCEPT,NA,NA,NA,NA,NA,batch6hes,batch6hes,49,17,1,Screen 1,continueButton,response_rating_scale_likert_active,2593.5,NA,NA,Agree,1,0,1,0,NA,NA,NA,NA,1,statements,Want to get back to normal,1,17/05/2021 12:07,17/05/2021 12:14,400,Most weeks,Rarely,28,Female,-99,"Undergraduate degree (BSc, BA)",58,1,Against,For
20,1658936342339,27/07/2022 15:39:02,1658936342936,1,27/07/2022 16:39:02,94050,2,task-s8ki,NA,23334939,6847705,NA,complete,NA,62e15ba10d38198b15f10f6f,computer,Desktop or Laptop,Chromium OS 14816.99.0,Chrome 103.0.0.0,1366x768,1366x617,NA,ITT Ratings,3,For,6,NA,NA,NA,NA,ACCEPT,NA,NA,NA,NA,NA,batch6hes,batch6hes,18,18,1,Screen 1,continueButton,response_rating_scale_likert_active,5954.10000000149,NA,NA,Strongly Disagree,1,0,1,0,NA,NA,NA,NA,1,statements,If it's so effective then why do we have to wear masks and social distance,1,17/05/2021 11:52,17/05/2021 12:02,580,Most days,Most days,33,Male,-99,GCSEs,53,3,Against,Against
21,1658936344365,27/07/2022 15:39:04,1658936344969,1,27/07/2022 16:39:04,94050,2,task-s8ki,NA,23334939,6847705,NA,complete,NA,62e15ba10d38198b15f10f6f,computer,Desktop or Laptop,Chromium OS 14816.99.0,Chrome 103.0.0.0,1366x768,1366x617,NA,ITT Ratings,3,For,6,NA,NA,NA,NA,ACCEPT,NA,NA,NA,NA,NA,batch6hes,batch6hes,39,19,1,Screen 1,continueButton,response_rating_scale_likert_active,1979.5,NA,NA,Agree,1,0,1,0,NA,NA,NA,NA,1,statements,Go 'back to normal',1,17/05/2021 11:56,17/05/2021 12:05,555,A few times a year,A few times a year,25,Female,-99,A levels,56,3,Against,For
22,1658936351548,27/07/2022 15:39:11,1658936352140,1,27/07/2022 16:39:12,94050,2,task-s8ki,NA,23334939,6847705,NA,complete,NA,62e15ba10d38198b15f10f6f,computer,Desktop or Laptop,Chromium OS 14816.99.0,Chrome 103.0.0.0,1366x768,1366x617,NA,ITT Ratings,3,For,6,NA,NA,NA,NA,ACCEPT,NA,NA,NA,NA,NA,batch6hes,batch6hes,30,20,1,Screen 1,continueButton,response_rating_scale_likert_active,7132,NA,NA,Disagree,1,0,1,0,NA,NA,NA,NA,1,statements,"I can carry on keeping my distance from people, wearing a mask and using hand sanitiser and keep myself and my family safe that way. It's worked so far.",1,17/05/2021 11:40,17/05/2021 12:02,1360,Rarely,Rarely,49,Female,-99,"Undergraduate degree (BSc, BA)",55,3,Against,Against
23,1658936353986,27/07/2022 15:39:13,1658936354575,1,27/07/2022 16:39:14,94050,2,task-s8ki,NA,23334939,6847705,NA,complete,NA,62e15ba10d38198b15f10f6f,computer,Desktop or Laptop,Chromium OS 14816.99.0,Chrome 103.0.0.0,1366x768,1366x617,NA,ITT Ratings,3,For,6,NA,NA,NA,NA,ACCEPT,NA,NA,NA,NA,NA,batch6hes,batch6hes,23,21,1,Screen 1,continueButton,response_rating_scale_likert_active,2390.5,NA,NA,Disagree,1,0,1,0,NA,NA,NA,NA,1,statements,The vaccines haven't been thoroughly tested so the side effects are as yet unknown,1,17/05/2021 11:50,17/05/2021 12:02,717,Most days,Most days,47,Female,-99,"Undergraduate degree (BSc, BA)",54,2,Against,Against
24,1658936356793,27/07/2022 15:39:16,1658936357379,1,27/07/2022 16:39:17,94050,2,task-s8ki,NA,23334939,6847705,NA,complete,NA,62e15ba10d38198b15f10f6f,computer,Desktop or Laptop,Chromium OS 14816.99.0,Chrome 103.0.0.0,1366x768,1366x617,NA,ITT Ratings,3,For,6,NA,NA,NA,NA,ACCEPT,NA,NA,NA,NA,NA,batch6hes,batch6hes,44,22,1,Screen 1,continueButton,response_rating_scale_likert_active,2769.29999999702,NA,NA,Strongly Agree,1,0,1,0,NA,NA,NA,NA,1,statements,reduce the impact of COVID-19 symptoms when contracted,1,17/05/2021 11:49,17/05/2021 12:07,1067,Most weeks,Most months,29,Female,-99,"Undergraduate degree (BSc, BA)",57,2,Against,For
25,1658936359066,27/07/2022 15:39:19,1658936359664,1,27/07/2022 16:39:19,94050,2,task-s8ki,NA,23334939,6847705,NA,complete,NA,62e15ba10d38198b15f10f6f,computer,Desktop or Laptop,Chromium OS 14816.99.0,Chrome 103.0.0.0,1366x768,1366x617,NA,ITT Ratings,3,For,6,NA,NA,NA,NA,ACCEPT,NA,NA,NA,NA,NA,batch6hes,batch6hes,52,23,1,Screen 1,continueButton,response_rating_scale_likert_active,2214.6999999955297,NA,NA,Disagree,1,0,1,0,NA,NA,NA,NA,1,statements,The vaccine has not been tested for long enough,1,17/05/2021 11:59,17/05/2021 12:15,955,Most months,Rarely,58,Female,-99,"GCSEs,A levels",59,1,Against,Against
26,1658936363429,27/07/2022 15:39:23,1658936364006,1,27/07/2022 16:39:24,94050,2,task-s8ki,NA,23334939,6847705,NA,complete,NA,62e15ba10d38198b15f10f6f,computer,Desktop or Laptop,Chromium OS 14816.99.0,Chrome 103.0.0.0,1366x768,1366x617,NA,ITT Ratings,3,For,6,NA,NA,NA,NA,ACCEPT,NA,NA,NA,NA,NA,batch6hes,batch6hes,3,24,1,Screen 1,continueButton,response_rating_scale_likert_active,4308.19999999553,NA,NA,Somewhat Disagree,1,0,1,0,NA,NA,NA,NA,1,statements,We would like to check you are reading each argument carefully. Please select 'Somewhat Disagree' for this answer,1,NA,NA,NA,NA,NA,NA,NA,NA,NA,NA,check2,NA,NA
27,1658936367639,27/07/2022 15:39:27,1658936368222,1,27/07/2022 16:39:28,94050,2,task-s8ki,NA,23334939,6847705,NA,complete,NA,62e15ba10d38198b15f10f6f,computer,Desktop or Laptop,Chromium OS 14816.99.0,Chrome 103.0.0.0,1366x768,1366x617,NA,ITT Ratings,3,For,6,NA,NA,NA,NA,ACCEPT,NA,NA,NA,NA,NA,batch6hes,batch6hes,15,25,1,Screen 1,continueButton,response_rating_scale_likert_active,4161.79999999702,NA,NA,Agree,1,0,1,0,NA,NA,NA,NA,1,statements,"Vaccines are good, regardless of how new or experimental they are",1,17/05/2021 11:32,17/05/2021 12:00,1684,Rarely,Most months,43,Female,-99,"Undergraduate degree (BSc, BA)",52,3,Against,For
28,1658936370261,27/07/2022 15:39:30,1658936370846,1,27/07/2022 16:39:30,94050,2,task-s8ki,NA,23334939,6847705,NA,complete,NA,62e15ba10d38198b15f10f6f,computer,Desktop or Laptop,Chromium OS 14816.99.0,Chrome 103.0.0.0,1366x768,1366x617,NA,ITT Ratings,3,For,6,NA,NA,NA,NA,ACCEPT,NA,NA,NA,NA,NA,batch6hes,batch6hes,41,26,1,Screen 1,continueButton,response_rating_scale_likert_active,2581.29999999702,NA,NA,Strongly Disagree,1,0,1,0,NA,NA,NA,NA,1,statements,Vaccines developed too quickly so not safe or trustworthy,1,17/05/2021 11:49,17/05/2021 12:07,1067,Most weeks,Most months,29,Female,-99,"Undergraduate degree (BSc, BA)",57,2,Against,Against
29,1658936376951,27/07/2022 15:39:36,1658936377539,1,27/07/2022 16:39:37,94050,2,task-s8ki,NA,23334939,6847705,NA,complete,NA,62e15ba10d38198b15f10f6f,computer,Desktop or Laptop,Chromium OS 14816.99.0,Chrome 103.0.0.0,1366x768,1366x617,NA,ITT Ratings,3,For,6,NA,NA,NA,NA,ACCEPT,NA,NA,NA,NA,NA,batch6hes,batch6hes,17,27,1,Screen 1,continueButton,response_rating_scale_likert_active,6650.60000000149,NA,NA,Neither Agree nor Disagree,1,0,1,0,NA,NA,NA,NA,1,statements,Big pharma taking 3.7billion in profits not giving it to everyone for free,1,17/05/2021 11:52,17/05/2021 12:02,580,Most days,Most days,33,Male,-99,GCSEs,53,2,Against,Against
30,1658936379438,27/07/2022 15:39:39,1658936380025,1,27/07/2022 16:39:40,94050,2,task-s8ki,NA,23334939,6847705,NA,complete,NA,62e15ba10d38198b15f10f6f,computer,Desktop or Laptop,Chromium OS 14816.99.0,Chrome 103.0.0.0,1366x768,1366x617,NA,ITT Ratings,3,For,6,NA,NA,NA,NA,ACCEPT,NA,NA,NA,NA,NA,batch6hes,batch6hes,34,28,1,Screen 1,continueButton,response_rating_scale_likert_active,2446,NA,NA,Disagree,1,0,1,0,NA,NA,NA,NA,1,statements,Don't know possible long term health complications,1,17/05/2021 11:56,17/05/2021 12:05,555,A few times a year,A few times a year,25,Female,-99,A levels,56,1,Against,Against
31,1658936381730,27/07/2022 15:39:41,1658936382300,1,27/07/2022 16:39:42,94050,2,task-s8ki,NA,23334939,6847705,NA,complete,NA,62e15ba10d38198b15f10f6f,computer,Desktop or Laptop,Chromium OS 14816.99.0,Chrome 103.0.0.0,1366x768,1366x617,NA,ITT Ratings,3,For,6,NA,NA,NA,NA,ACCEPT,NA,NA,NA,NA,NA,batch6hes,batch6hes,31,29,1,Screen 1,continueButton,response_rating_scale_likert_active,2234.8000000044703,NA,NA,Disagree,1,0,1,0,NA,NA,NA,NA,1,statements,It's what everybody else is doing.,1,17/05/2021 11:40,17/05/2021 12:02,1360,Rarely,Rarely,49,Female,-99,"Undergraduate degree (BSc, BA)",55,1,Against,For
32,1658936384335,27/07/2022 15:39:44,1658936384926,1,27/07/2022 16:39:44,94050,2,task-s8ki,NA,23334939,6847705,NA,complete,NA,62e15ba10d38198b15f10f6f,computer,Desktop or Laptop,Chromium OS 14816.99.0,Chrome 103.0.0.0,1366x768,1366x617,NA,ITT Ratings,3,For,6,NA,NA,NA,NA,ACCEPT,NA,NA,NA,NA,NA,batch6hes,batch6hes,7,30,1,Screen 1,continueButton,response_rating_scale_likert_active,2579.5,NA,NA,Strongly Agree,1,0,1,0,NA,NA,NA,NA,1,statements,I'm worried about catching the coronavirus.,1,17/05/2021 11:27,17/05/2021 11:58,1838,Rarely,Most days,59,Female,-99,"Undergraduate degree (BSc, BA)",51,1,Against,For
33,1658936390499,27/07/2022 15:39:50,1658936391064,1,27/07/2022 16:39:51,94050,2,task-s8ki,NA,23334939,6847705,NA,complete,NA,62e15ba10d38198b15f10f6f,computer,Desktop or Laptop,Chromium OS 14816.99.0,Chrome 103.0.0.0,1366x768,1366x617,NA,ITT Ratings,3,For,6,NA,NA,NA,NA,ACCEPT,NA,NA,NA,NA,NA,batch6hes,batch6hes,12,31,1,Screen 1,continueButton,response_rating_scale_likert_active,6105.70000000298,NA,NA,Disagree,1,0,1,0,NA,NA,NA,NA,1,statements,"Everyone, including the pharma companies aren't clear about possible side effects and the billion dollar shady pharma companies are immune from law suits from side effects or deaths.",1,17/05/2021 11:32,17/05/2021 12:00,1684,Rarely,Most months,43,Female,-99,"Undergraduate degree (BSc, BA)",52,3,Against,Against
