Event.Index,UTC.Timestamp,UTC.Date,Local.Timestamp,Local.Timezone,Local.Date,Experiment.ID,Experiment.Version,Tree.Node.Key,Repeat.Key,Schedule.ID,Participant.Private.ID,Participant.Starting.Group,Participant.Status,Participant.Completion.Code,Participant.External.Session.ID,Participant.Device.Type,Participant.Device,Participant.OS,Participant.Browser,Participant.Monitor.Size,Participant.Viewport.Size,Checkpoint,Task.Name,Task.Version,branch.69an,randomiser.8vg2,quota.bqtt,quota.rycs,quota.wtfi,quota.usve,quota.zgic,quota.f3yz,quota.r9vy,quota.tfqq,quota.3dga,quota.dtj6,Spreadsheet,Spreadsheet.Name,Spreadsheet.Row,Trial.Number,Screen.Number,Screen.Name,Zone.Name,Zone.Type,Reaction.Time,Reaction.Onset,Response.Type,Response,Attempt,Correct,Incorrect,Dishonest,X.Coordinate,Y.Coordinate,Timed.Out,randomise_blocks,randomise_trials,display,Arguments,ShowProgressBar,StartDate,EndDate,Duration,discuss_1,read_1,age,gender,gender_4_TEXT,edu,ID,arg_ID,Position,Arg_Position
1,1658935921725,27/07/2022 15:32:01,1658935919624,1,27/07/2022 16:31:59,94050,2,task-lkrz,NA,23334795,6847647,NA,complete,NA,62e15a336ec03f599bc35dd1,computer,Desktop or Laptop,Mac OS 10.15.7,Chrome 103.0.0.0,1440x900,1440x796,NA,ITT Ratings,3,For,2,ACCEPT,NA,NA,NA,NA,NA,NA,NA,NA,NA,batch2hes,NA,NA,BEGIN TASK,NA,NA,NA,NA,NA,NA,NA,NA,NA,0,1,0,NA,NA,NA,NA,NA,NA,NA,NA,NA,NA,NA,NA,NA,NA,NA,NA,NA,NA,NA,NA,NA
2,1658935935295,27/07/2022 15:32:15,1658935933212,1,27/07/2022 16:32:13,94050,2,task-lkrz,NA,23334795,6847647,NA,complete,NA,62e15a336ec03f599bc35dd1,computer,Desktop or Laptop,Mac OS 10.15.7,Chrome 103.0.0.0,1440x900,1440x796,NA,ITT Ratings,3,For,2,ACCEPT,NA,NA,NA,NA,NA,NA,NA,NA,NA,batch2hes,batch2hes,1,1,1,Screen 1,advancementZone,continue_button,13558,NA,NA,NA,NA,0,1,0,NA,NA,NA,NA,NA,instructions,NA,NA,NA,NA,NA,NA,NA,NA,NA,NA,NA,NA,NA,NA,NA
3,1658935941683,27/07/2022 15:32:21,1658935939631,1,27/07/2022 16:32:19,94050,2,task-lkrz,NA,23334795,6847647,NA,complete,NA,62e15a336ec03f599bc35dd1,computer,Desktop or Laptop,Mac OS 10.15.7,Chrome 103.0.0.0,1440x900,1440x796,NA,ITT Ratings,3,For,2,ACCEPT,NA,NA,NA,NA,NA,NA,NA,NA,NA,batch2hes,batch2hes,40,1,1,Screen 1,continueButton,response_rating_scale_likert_active,6407.300000011921,NA,NA,Strongly Disagree,1,0,1,0,NA,NA,NA,NA,1,statements,It's completely unnecessary for a seasonal flu virus with a better-than 99% survival rate.,1,17/05/2021 11:07,17/05/2021 11:21,851,Most days,Most days,59,Female,-99,A levels,17,1,Against,Against
4,1658935979638,27/07/2022 15:32:59,1658935977555,1,27/07/2022 16:32:57,94050,2,task-lkrz,NA,23334795,6847647,NA,complete,NA,62e15a336ec03f599bc35dd1,computer,Desktop or Laptop,Mac OS 10.15.7,Chrome 103.0.0.0,1440x900,1440x796,NA,ITT Ratings,3,For,2,ACCEPT,NA,NA,NA,NA,NA,NA,NA,NA,NA,batch2hes,batch2hes,30,2,1,Screen 1,continueButton,response_rating_scale_likert_active,37916.19999998808,NA,NA,Disagree,1,0,1,0,NA,NA,NA,NA,1,statements,"The constant changing of what works, what doesn't, who it affects, who it doesn't. They don't really know for sure, do they?",1,17/05/2021 11:06,17/05/2021 11:19,791,Most months,Most months,27,Female,-99,GCSEs,15,3,Against,Against
5,1658936007895,27/07/2022 15:33:27,1658936005842,1,27/07/2022 16:33:25,94050,2,task-lkrz,NA,23334795,6847647,NA,complete,NA,62e15a336ec03f599bc35dd1,computer,Desktop or Laptop,Mac OS 10.15.7,Chrome 103.0.0.0,1440x900,1440x796,NA,ITT Ratings,3,For,2,ACCEPT,NA,NA,NA,NA,NA,NA,NA,NA,NA,batch2hes,batch2hes,38,3,1,Screen 1,continueButton,response_rating_scale_likert_active,28278,NA,NA,Somewhat Agree,1,0,1,0,NA,NA,NA,NA,1,statements,I want my life to go back to normal and be able to return to work/ lesure activities,1,17/05/2021 10:22,17/05/2021 11:19,3415,Most weeks,Rarely,26,Female,-99,"Postgraduate degree (MSc, MA, MPhil)",16,2,Against,For
6,1658936016156,27/07/2022 15:33:36,1658936014096,1,27/07/2022 16:33:34,94050,2,task-lkrz,NA,23334795,6847647,NA,complete,NA,62e15a336ec03f599bc35dd1,computer,Desktop or Laptop,Mac OS 10.15.7,Chrome 103.0.0.0,1440x900,1440x796,NA,ITT Ratings,3,For,2,ACCEPT,NA,NA,NA,NA,NA,NA,NA,NA,NA,batch2hes,batch2hes,63,4,1,Screen 1,continueButton,response_rating_scale_likert_active,8243,NA,NA,Strongly Disagree,1,0,1,0,NA,NA,NA,NA,1,statements,I am feeling so much pressure by the government I just go for it because I am told to,1,17/05/2021 10:52,17/05/2021 11:22,1779,Most weeks,Most days,55,Female,-99,GCSEs,20,3,Against,For
7,1658936020834,27/07/2022 15:33:40,1658936018774,1,27/07/2022 16:33:38,94050,2,task-lkrz,NA,23334795,6847647,NA,complete,NA,62e15a336ec03f599bc35dd1,computer,Desktop or Laptop,Mac OS 10.15.7,Chrome 103.0.0.0,1440x900,1440x796,NA,ITT Ratings,3,For,2,ACCEPT,NA,NA,NA,NA,NA,NA,NA,NA,NA,batch2hes,batch2hes,14,5,1,Screen 1,continueButton,response_rating_scale_likert_active,4669,NA,NA,Somewhat Agree,1,0,1,0,NA,NA,NA,NA,1,statements,I'm taking the vaccine so i can go out,1,17/05/2021 11:01,17/05/2021 11:15,865,Rarely,Rarely,28,Female,-99,"No formal qualifications,Undergraduate degree (BSc, BA)",12,2,Against,For
8,1658936032132,27/07/2022 15:33:52,1658936030073,1,27/07/2022 16:33:50,94050,2,task-lkrz,NA,23334795,6847647,NA,complete,NA,62e15a336ec03f599bc35dd1,computer,Desktop or Laptop,Mac OS 10.15.7,Chrome 103.0.0.0,1440x900,1440x796,NA,ITT Ratings,3,For,2,ACCEPT,NA,NA,NA,NA,NA,NA,NA,NA,NA,batch2hes,batch2hes,29,6,1,Screen 1,continueButton,response_rating_scale_likert_active,11289.69999998808,NA,NA,Disagree,1,0,1,0,NA,NA,NA,NA,1,statements,"Vaccine is in it's infancy. Like you said, ""The long-term effects of Covid-19 are not yet known because this disease has only existed since early 2020."" That same statement can be applied to the vacci",1,17/05/2021 11:06,17/05/2021 11:19,791,Most months,Most months,27,Female,-99,GCSEs,15,2,Against,Against
9,1658936036726,27/07/2022 15:33:56,1658936034662,1,27/07/2022 16:33:54,94050,2,task-lkrz,NA,23334795,6847647,NA,complete,NA,62e15a336ec03f599bc35dd1,computer,Desktop or Laptop,Mac OS 10.15.7,Chrome 103.0.0.0,1440x900,1440x796,NA,ITT Ratings,3,For,2,ACCEPT,NA,NA,NA,NA,NA,NA,NA,NA,NA,batch2hes,batch2hes,31,7,1,Screen 1,continueButton,response_rating_scale_likert_active,4579.199999988079,NA,NA,Somewhat Agree,1,0,1,0,NA,NA,NA,NA,1,statements,I want to be able to work,1,17/05/2021 11:06,17/05/2021 11:19,791,Most months,Most months,27,Female,-99,GCSEs,15,1,Against,For
10,1658936039295,27/07/2022 15:33:59,1658936037244,1,27/07/2022 16:33:57,94050,2,task-lkrz,NA,23334795,6847647,NA,complete,NA,62e15a336ec03f599bc35dd1,computer,Desktop or Laptop,Mac OS 10.15.7,Chrome 103.0.0.0,1440x900,1440x796,NA,ITT Ratings,3,For,2,ACCEPT,NA,NA,NA,NA,NA,NA,NA,NA,NA,batch2hes,batch2hes,7,8,1,Screen 1,continueButton,response_rating_scale_likert_active,2571.900000035763,NA,NA,Strongly Agree,1,0,1,0,NA,NA,NA,NA,1,statements,I want to reduce my risk of Covid-19 to protect myself.,1,17/05/2021 10:37,17/05/2021 11:15,2299,Once or twice a year,A few times a year,24,Female,-99,A levels,11,1,Against,For
11,1658936046409,27/07/2022 15:34:06,1658936044353,1,27/07/2022 16:34:04,94050,2,task-lkrz,NA,23334795,6847647,NA,complete,NA,62e15a336ec03f599bc35dd1,computer,Desktop or Laptop,Mac OS 10.15.7,Chrome 103.0.0.0,1440x900,1440x796,NA,ITT Ratings,3,For,2,ACCEPT,NA,NA,NA,NA,NA,NA,NA,NA,NA,batch2hes,batch2hes,11,9,1,Screen 1,continueButton,response_rating_scale_likert_active,7100.699999988079,NA,NA,Strongly Disagree,1,0,1,0,NA,NA,NA,NA,1,statements,what bout herd immunity,1,17/05/2021 11:01,17/05/2021 11:15,865,Rarely,Rarely,28,Female,-99,"No formal qualifications,Undergraduate degree (BSc, BA)",12,2,Against,Against
12,1658936053108,27/07/2022 15:34:13,1658936051057,1,27/07/2022 16:34:11,94050,2,task-lkrz,NA,23334795,6847647,NA,complete,NA,62e15a336ec03f599bc35dd1,computer,Desktop or Laptop,Mac OS 10.15.7,Chrome 103.0.0.0,1440x900,1440x796,NA,ITT Ratings,3,For,2,ACCEPT,NA,NA,NA,NA,NA,NA,NA,NA,NA,batch2hes,batch2hes,58,10,1,Screen 1,continueButton,response_rating_scale_likert_active,6694.900000035763,NA,NA,Strongly Disagree,1,0,1,0,NA,NA,NA,NA,1,statements,"I do not trust the vaccine, all the people around me are suffering reactions , which you never see with other vaccine giving out",1,17/05/2021 10:52,17/05/2021 11:22,1779,Most weeks,Most days,55,Female,-99,GCSEs,20,1,Against,Against
13,1658936060532,27/07/2022 15:34:20,1658936058485,1,27/07/2022 16:34:18,94050,2,task-lkrz,NA,23334795,6847647,NA,complete,NA,62e15a336ec03f599bc35dd1,computer,Desktop or Laptop,Mac OS 10.15.7,Chrome 103.0.0.0,1440x900,1440x796,NA,ITT Ratings,3,For,2,ACCEPT,NA,NA,NA,NA,NA,NA,NA,NA,NA,batch2hes,batch2hes,55,11,1,Screen 1,continueButton,response_rating_scale_likert_active,7419.299999952316,NA,NA,Strongly Disagree,1,0,1,0,NA,NA,NA,NA,1,statements,"I'm a sheep, baaa, I follow the herd",1,17/05/2021 11:04,17/05/2021 11:22,1027,A few times a year,A few times a year,38,Male,-99,GCSEs,19,1,Against,For
14,1658936064625,27/07/2022 15:34:24,1658936062577,1,27/07/2022 16:34:22,94050,2,task-lkrz,NA,23334795,6847647,NA,complete,NA,62e15a336ec03f599bc35dd1,computer,Desktop or Laptop,Mac OS 10.15.7,Chrome 103.0.0.0,1440x900,1440x796,NA,ITT Ratings,3,For,2,ACCEPT,NA,NA,NA,NA,NA,NA,NA,NA,NA,batch2hes,batch2hes,15,12,1,Screen 1,continueButton,response_rating_scale_likert_active,4082.699999988079,NA,NA,Agree,1,0,1,0,NA,NA,NA,NA,1,statements,i need to protect other people,1,17/05/2021 11:01,17/05/2021 11:15,865,Rarely,Rarely,28,Female,-99,"No formal qualifications,Undergraduate degree (BSc, BA)",12,3,Against,For
15,1658936067623,27/07/2022 15:34:27,1658936065563,1,27/07/2022 16:34:25,94050,2,task-lkrz,NA,23334795,6847647,NA,complete,NA,62e15a336ec03f599bc35dd1,computer,Desktop or Laptop,Mac OS 10.15.7,Chrome 103.0.0.0,1440x900,1440x796,NA,ITT Ratings,3,For,2,ACCEPT,NA,NA,NA,NA,NA,NA,NA,NA,NA,batch2hes,batch2hes,18,13,1,Screen 1,continueButton,response_rating_scale_likert_active,2977.099999964237,NA,NA,Disagree,1,0,1,0,NA,NA,NA,NA,1,statements,That I am not confident in the immunisation,1,17/05/2021 11:08,17/05/2021 11:16,512,Rarely,A few times a year,39,Female,-99,A levels,13,3,Against,Against
16,1658936070774,27/07/2022 15:34:30,1658936068720,1,27/07/2022 16:34:28,94050,2,task-lkrz,NA,23334795,6847647,NA,complete,NA,62e15a336ec03f599bc35dd1,computer,Desktop or Laptop,Mac OS 10.15.7,Chrome 103.0.0.0,1440x900,1440x796,NA,ITT Ratings,3,For,2,ACCEPT,NA,NA,NA,NA,NA,NA,NA,NA,NA,batch2hes,batch2hes,50,14,1,Screen 1,continueButton,response_rating_scale_likert_active,3148,NA,NA,Strongly Disagree,1,0,1,0,NA,NA,NA,NA,1,statements,I've already had Covid and I never want to have it again,1,17/05/2021 11:07,17/05/2021 11:21,844,Once or twice a year,A few times a year,61,Female,-99,"Undergraduate degree (BSc, BA)",18,2,Against,For
17,1658936083356,27/07/2022 15:34:43,1658936081305,1,27/07/2022 16:34:41,94050,2,task-lkrz,NA,23334795,6847647,NA,complete,NA,62e15a336ec03f599bc35dd1,computer,Desktop or Laptop,Mac OS 10.15.7,Chrome 103.0.0.0,1440x900,1440x796,NA,ITT Ratings,3,For,2,ACCEPT,NA,NA,NA,NA,NA,NA,NA,NA,NA,batch2hes,batch2hes,59,15,1,Screen 1,continueButton,response_rating_scale_likert_active,12576.30000001192,NA,NA,Strongly Disagree,1,0,1,0,NA,NA,NA,NA,1,statements,"the government keeps lying , Which gives me no reason whats so every to think they are telling the truth about the vaccine.",1,17/05/2021 10:52,17/05/2021 11:22,1779,Most weeks,Most days,55,Female,-99,GCSEs,20,2,Against,Against
18,1658936085051,27/07/2022 15:34:45,1658936083004,1,27/07/2022 16:34:43,94050,2,task-lkrz,NA,23334795,6847647,NA,complete,NA,62e15a336ec03f599bc35dd1,computer,Desktop or Laptop,Mac OS 10.15.7,Chrome 103.0.0.0,1440x900,1440x796,NA,ITT Ratings,3,For,2,ACCEPT,NA,NA,NA,NA,NA,NA,NA,NA,NA,batch2hes,batch2hes,54,16,1,Screen 1,continueButton,response_rating_scale_likert_active,1690.199999988079,NA,NA,Strongly Disagree,1,0,1,0,NA,NA,NA,NA,1,statements,The government has put GPS trackers in the vaccine,1,17/05/2021 11:04,17/05/2021 11:22,1027,A few times a year,A few times a year,38,Male,-99,GCSEs,19,3,Against,Against
19,1658936090930,27/07/2022 15:34:50,1658936088878,1,27/07/2022 16:34:48,94050,2,task-lkrz,NA,23334795,6847647,NA,complete,NA,62e15a336ec03f599bc35dd1,computer,Desktop or Laptop,Mac OS 10.15.7,Chrome 103.0.0.0,1440x900,1440x796,NA,ITT Ratings,3,For,2,ACCEPT,NA,NA,NA,NA,NA,NA,NA,NA,NA,batch2hes,batch2hes,51,17,1,Screen 1,continueButton,response_rating_scale_likert_active,5866.199999988079,NA,NA,Agree,1,0,1,0,NA,NA,NA,NA,1,statements,I have responsibility to have the vaccine and keep everybody safe,1,17/05/2021 11:07,17/05/2021 11:21,844,Once or twice a year,A few times a year,61,Female,-99,"Undergraduate degree (BSc, BA)",18,3,Against,For
20,1658936094830,27/07/2022 15:34:54,1658936092774,1,27/07/2022 16:34:52,94050,2,task-lkrz,NA,23334795,6847647,NA,complete,NA,62e15a336ec03f599bc35dd1,computer,Desktop or Laptop,Mac OS 10.15.7,Chrome 103.0.0.0,1440x900,1440x796,NA,ITT Ratings,3,For,2,ACCEPT,NA,NA,NA,NA,NA,NA,NA,NA,NA,batch2hes,batch2hes,3,18,1,Screen 1,continueButton,response_rating_scale_likert_active,3886.800000011921,NA,NA,Somewhat Disagree,1,0,1,0,NA,NA,NA,NA,1,statements,We would like to check you are reading each argument carefully. Please select 'Somewhat Disagree' for this answer,1,NA,NA,NA,NA,NA,NA,NA,NA,NA,NA,check2,NA,NA
21,1658936100652,27/07/2022 15:35:00,1658936098602,1,27/07/2022 16:34:58,94050,2,task-lkrz,NA,23334795,6847647,NA,complete,NA,62e15a336ec03f599bc35dd1,computer,Desktop or Laptop,Mac OS 10.15.7,Chrome 103.0.0.0,1440x900,1440x796,NA,ITT Ratings,3,For,2,ACCEPT,NA,NA,NA,NA,NA,NA,NA,NA,NA,batch2hes,batch2hes,26,19,1,Screen 1,continueButton,response_rating_scale_likert_active,5818.800000011921,NA,NA,Neither Agree nor Disagree,1,0,1,0,NA,NA,NA,NA,1,statements,Everyone else has got it and they said it wasnt that bad.,1,17/05/2021 11:11,17/05/2021 11:18,471,Most weeks,Most weeks,24,Female,-99,"Undergraduate degree (BSc, BA)",14,2,Against,For
22,1658936103363,27/07/2022 15:35:03,1658936101313,1,27/07/2022 16:35:01,94050,2,task-lkrz,NA,23334795,6847647,NA,complete,NA,62e15a336ec03f599bc35dd1,computer,Desktop or Laptop,Mac OS 10.15.7,Chrome 103.0.0.0,1440x900,1440x796,NA,ITT Ratings,3,For,2,ACCEPT,NA,NA,NA,NA,NA,NA,NA,NA,NA,batch2hes,batch2hes,28,20,1,Screen 1,continueButton,response_rating_scale_likert_active,2702.399999976158,NA,NA,Disagree,1,0,1,0,NA,NA,NA,NA,1,statements,Covid is not that serious.,1,17/05/2021 11:06,17/05/2021 11:19,791,Most months,Most months,27,Female,-99,GCSEs,15,1,Against,Against
23,1658936113604,27/07/2022 15:35:13,1658936111546,1,27/07/2022 16:35:11,94050,2,task-lkrz,NA,23334795,6847647,NA,complete,NA,62e15a336ec03f599bc35dd1,computer,Desktop or Laptop,Mac OS 10.15.7,Chrome 103.0.0.0,1440x900,1440x796,NA,ITT Ratings,3,For,2,ACCEPT,NA,NA,NA,NA,NA,NA,NA,NA,NA,batch2hes,batch2hes,46,21,1,Screen 1,continueButton,response_rating_scale_likert_active,10225,NA,NA,Disagree,1,0,1,0,NA,NA,NA,NA,1,statements,I'm sensitive to vaccines and am nervous of the side effects,1,17/05/2021 11:07,17/05/2021 11:21,844,Once or twice a year,A few times a year,61,Female,-99,"Undergraduate degree (BSc, BA)",18,1,Against,Against
24,1658936115926,27/07/2022 15:35:15,1658936113876,1,27/07/2022 16:35:13,94050,2,task-lkrz,NA,23334795,6847647,NA,complete,NA,62e15a336ec03f599bc35dd1,computer,Desktop or Laptop,Mac OS 10.15.7,Chrome 103.0.0.0,1440x900,1440x796,NA,ITT Ratings,3,For,2,ACCEPT,NA,NA,NA,NA,NA,NA,NA,NA,NA,batch2hes,batch2hes,32,22,1,Screen 1,continueButton,response_rating_scale_likert_active,2321.400000035763,NA,NA,Agree,1,0,1,0,NA,NA,NA,NA,1,statements,I want to be able to go abroad,1,17/05/2021 11:06,17/05/2021 11:19,791,Most months,Most months,27,Female,-99,GCSEs,15,2,Against,For
25,1658936120380,27/07/2022 15:35:20,1658936118329,1,27/07/2022 16:35:18,94050,2,task-lkrz,NA,23334795,6847647,NA,complete,NA,62e15a336ec03f599bc35dd1,computer,Desktop or Laptop,Mac OS 10.15.7,Chrome 103.0.0.0,1440x900,1440x796,NA,ITT Ratings,3,For,2,ACCEPT,NA,NA,NA,NA,NA,NA,NA,NA,NA,batch2hes,batch2hes,53,23,1,Screen 1,continueButton,response_rating_scale_likert_active,4445.100000023842,NA,NA,Disagree,1,0,1,0,NA,NA,NA,NA,1,statements,"The Astrazeneca vaccine causes blood clots, so what do the other vaccines do",1,17/05/2021 11:04,17/05/2021 11:22,1027,A few times a year,A few times a year,38,Male,-99,GCSEs,19,2,Against,Against
26,1658936123684,27/07/2022 15:35:23,1658936121621,1,27/07/2022 16:35:21,94050,2,task-lkrz,NA,23334795,6847647,NA,complete,NA,62e15a336ec03f599bc35dd1,computer,Desktop or Laptop,Mac OS 10.15.7,Chrome 103.0.0.0,1440x900,1440x796,NA,ITT Ratings,3,For,2,ACCEPT,NA,NA,NA,NA,NA,NA,NA,NA,NA,batch2hes,batch2hes,56,24,1,Screen 1,continueButton,response_rating_scale_likert_active,3283.699999988079,NA,NA,Strongly Disagree,1,0,1,0,NA,NA,NA,NA,1,statements,I believe the scaremongering,1,17/05/2021 11:04,17/05/2021 11:22,1027,A few times a year,A few times a year,38,Male,-99,GCSEs,19,2,Against,For
27,1658936127880,27/07/2022 15:35:27,1658936125827,1,27/07/2022 16:35:25,94050,2,task-lkrz,NA,23334795,6847647,NA,complete,NA,62e15a336ec03f599bc35dd1,computer,Desktop or Laptop,Mac OS 10.15.7,Chrome 103.0.0.0,1440x900,1440x796,NA,ITT Ratings,3,For,2,ACCEPT,NA,NA,NA,NA,NA,NA,NA,NA,NA,batch2hes,batch2hes,20,25,1,Screen 1,continueButton,response_rating_scale_likert_active,4198.199999988079,NA,NA,Somewhat Agree,1,0,1,0,NA,NA,NA,NA,1,statements,"We have no choice, we have to have it",1,17/05/2021 11:08,17/05/2021 11:16,512,Rarely,A few times a year,39,Female,-99,A levels,13,2,Against,For
28,1658936137861,27/07/2022 15:35:37,1658936135801,1,27/07/2022 16:35:35,94050,2,task-lkrz,NA,23334795,6847647,NA,complete,NA,62e15a336ec03f599bc35dd1,computer,Desktop or Laptop,Mac OS 10.15.7,Chrome 103.0.0.0,1440x900,1440x796,NA,ITT Ratings,3,For,2,ACCEPT,NA,NA,NA,NA,NA,NA,NA,NA,NA,batch2hes,batch2hes,23,26,1,Screen 1,continueButton,response_rating_scale_likert_active,9965,NA,NA,Strongly Disagree,1,0,1,0,NA,NA,NA,NA,1,statements,"The vaccine does not prevent covid, nor does it stop the passing of it. So why bother? and if it works, then the people who care about catching it will have it and therefore it doesnt matter if i have",1,17/05/2021 11:11,17/05/2021 11:18,471,Most weeks,Most weeks,24,Female,-99,"Undergraduate degree (BSc, BA)",14,2,Against,Against
29,1658936139669,27/07/2022 15:35:39,1658936137623,1,27/07/2022 16:35:37,94050,2,task-lkrz,NA,23334795,6847647,NA,complete,NA,62e15a336ec03f599bc35dd1,computer,Desktop or Laptop,Mac OS 10.15.7,Chrome 103.0.0.0,1440x900,1440x796,NA,ITT Ratings,3,For,2,ACCEPT,NA,NA,NA,NA,NA,NA,NA,NA,NA,batch2hes,batch2hes,27,27,1,Screen 1,continueButton,response_rating_scale_likert_active,1813.899999976158,NA,NA,Strongly Disagree,1,0,1,0,NA,NA,NA,NA,1,statements,My family wanted me to.,1,17/05/2021 11:11,17/05/2021 11:18,471,Most weeks,Most weeks,24,Female,-99,"Undergraduate degree (BSc, BA)",14,3,Against,For
30,1658936154022,27/07/2022 15:35:54,1658936151973,1,27/07/2022 16:35:51,94050,2,task-lkrz,NA,23334795,6847647,NA,complete,NA,62e15a336ec03f599bc35dd1,computer,Desktop or Laptop,Mac OS 10.15.7,Chrome 103.0.0.0,1440x900,1440x796,NA,ITT Ratings,3,For,2,ACCEPT,NA,NA,NA,NA,NA,NA,NA,NA,NA,batch2hes,batch2hes,25,28,1,Screen 1,continueButton,response_rating_scale_likert_active,14341.399999976158,NA,NA,Somewhat Agree,1,0,1,0,NA,NA,NA,NA,1,statements,"I want to protect others, which is great, do so, if it works, then they wont catch it from me.",1,17/05/2021 11:11,17/05/2021 11:18,471,Most weeks,Most weeks,24,Female,-99,"Undergraduate degree (BSc, BA)",14,1,Against,For
31,1658936156661,27/07/2022 15:35:56,1658936154612,1,27/07/2022 16:35:54,94050,2,task-lkrz,NA,23334795,6847647,NA,complete,NA,62e15a336ec03f599bc35dd1,computer,Desktop or Laptop,Mac OS 10.15.7,Chrome 103.0.0.0,1440x900,1440x796,NA,ITT Ratings,3,For,2,ACCEPT,NA,NA,NA,NA,NA,NA,NA,NA,NA,batch2hes,batch2hes,4,29,1,Screen 1,continueButton,response_rating_scale_likert_active,2629.600000023842,NA,NA,Disagree,1,0,1,0,NA,NA,NA,NA,1,statements,The vaccine was produced too quickly and not as trust worthy.,1,17/05/2021 10:37,17/05/2021 11:15,2299,Once or twice a year,A few times a year,24,Female,-99,A levels,11,1,Against,Against
32,1658936160775,27/07/2022 15:36:00,1658936158720,1,27/07/2022 16:35:58,94050,2,task-lkrz,NA,23334795,6847647,NA,complete,NA,62e15a336ec03f599bc35dd1,computer,Desktop or Laptop,Mac OS 10.15.7,Chrome 103.0.0.0,1440x900,1440x796,NA,ITT Ratings,3,For,2,ACCEPT,NA,NA,NA,NA,NA,NA,NA,NA,NA,batch2hes,batch2hes,42,30,1,Screen 1,continueButton,response_rating_scale_likert_active,4101.399999976158,NA,NA,Strongly Disagree,1,0,1,0,NA,NA,NA,NA,1,statements,"There are already reports from all over the world, of horrendous adverse consequences to the injection. In addition, thousands of scientist have warned of the unnecessary and dangerous nature.",1,17/05/2021 11:07,17/05/2021 11:21,851,Most days,Most days,59,Female,-99,A levels,17,3,Against,Against
33,1658936164695,27/07/2022 15:36:04,1658936162565,1,27/07/2022 16:36:02,94050,2,task-lkrz,NA,23334795,6847647,NA,complete,NA,62e15a336ec03f599bc35dd1,computer,Desktop or Laptop,Mac OS 10.15.7,Chrome 103.0.0.0,1440x900,1440x796,NA,ITT Ratings,3,For,2,ACCEPT,NA,NA,NA,NA,NA,NA,NA,NA,NA,batch2hes,batch2hes,47,31,1,Screen 1,continueButton,response_rating_scale_likert_active,3836.299999952316,NA,NA,Disagree,1,0,1,0,NA,NA,NA,NA,1,statements,We don't know enough about this vaccine to know it's safe yet,1,17/05/2021 11:07,17/05/2021 11:21,844,Once or twice a year,A few times a year,61,Female,-99,"Undergraduate degree (BSc, BA)",18,2,Against,Against
34,1658936167969,27/07/2022 15:36:07,1658936165916,1,27/07/2022 16:36:05,94050,2,task-lkrz,NA,23334795,6847647,NA,complete,NA,62e15a336ec03f599bc35dd1,computer,Desktop or Laptop,Mac OS 10.15.7,Chrome 103.0.0.0,1440x900,1440x796,NA,ITT Ratings,3,For,2,ACCEPT,NA,NA,NA,NA,NA,NA,NA,NA,NA,batch2hes,batch2hes,10,32,1,Screen 1,continueButton,response_rating_scale_likert_active,3342.600000023842,NA,NA,Strongly Disagree,1,0,1,0,NA,NA,NA,NA,1,statements,There aren't enough studies to show the effectiveness oft hem,1,17/05/2021 11:01,17/05/2021 11:15,865,Rarely,Rarely,28,Female,-99,"No formal qualifications,Undergraduate degree (BSc, BA)",12,1,Against,Against
35,1658936171341,27/07/2022 15:36:11,1658936169280,1,27/07/2022 16:36:09,94050,2,task-lkrz,NA,23334795,6847647,NA,complete,NA,62e15a336ec03f599bc35dd1,computer,Desktop or Laptop,Mac OS 10.15.7,Chrome 103.0.0.0,1440x900,1440x796,NA,ITT Ratings,3,For,2,ACCEPT,NA,NA,NA,NA,NA,NA,NA,NA,NA,batch2hes,batch2hes,49,33,1,Screen 1,continueButton,response_rating_scale_likert_active,3357.199999988079,NA,NA,Strongly Agree,1,0,1,0,NA,NA,NA,NA,1,statements,I want to feel safe while this virus is still rampant,1,17/05/2021 11:07,17/05/2021 11:21,844,Once or twice a year,A few times a year,61,Female,-99,"Undergraduate degree (BSc, BA)",18,1,Against,For
36,1658936178020,27/07/2022 15:36:18,1658936175971,1,27/07/2022 16:36:15,94050,2,task-lkrz,NA,23334795,6847647,NA,complete,NA,62e15a336ec03f599bc35dd1,computer,Desktop or Laptop,Mac OS 10.15.7,Chrome 103.0.0.0,1440x900,1440x796,NA,ITT Ratings,3,For,2,ACCEPT,NA,NA,NA,NA,NA,NA,NA,NA,NA,batch2hes,batch2hes,48,34,1,Screen 1,continueButton,response_rating_scale_likert_active,6681.700000047684,NA,NA,Neither Agree nor Disagree,1,0,1,0,NA,NA,NA,NA,1,statements,We don't know the  long term effects of the vaccine,1,17/05/2021 11:07,17/05/2021 11:21,844,Once or twice a year,A few times a year,61,Female,-99,"Undergraduate degree (BSc, BA)",18,3,Against,Against
37,1658936184827,27/07/2022 15:36:24,1658936182766,1,27/07/2022 16:36:22,94050,2,task-lkrz,NA,23334795,6847647,NA,complete,NA,62e15a336ec03f599bc35dd1,computer,Desktop or Laptop,Mac OS 10.15.7,Chrome 103.0.0.0,1440x900,1440x796,NA,ITT Ratings,3,For,2,ACCEPT,NA,NA,NA,NA,NA,NA,NA,NA,NA,batch2hes,batch2hes,35,35,1,Screen 1,continueButton,response_rating_scale_likert_active,6786.800000011921,NA,NA,Disagree,1,0,1,0,NA,NA,NA,NA,1,statements,The vaccine doesn't make you less likely to catch Covid-19 it just means you will have a less severe reaction to it. If you are not at risk then why risk the side effects.,1,17/05/2021 10:22,17/05/2021 11:19,3415,Most weeks,Rarely,26,Female,-99,"Postgraduate degree (MSc, MA, MPhil)",16,2,Against,Against
38,1658936193938,27/07/2022 15:36:33,1658936191878,1,27/07/2022 16:36:31,94050,2,task-lkrz,NA,23334795,6847647,NA,complete,NA,62e15a336ec03f599bc35dd1,computer,Desktop or Laptop,Mac OS 10.15.7,Chrome 103.0.0.0,1440x900,1440x796,NA,ITT Ratings,3,For,2,ACCEPT,NA,NA,NA,NA,NA,NA,NA,NA,NA,batch2hes,batch2hes,8,36,1,Screen 1,continueButton,response_rating_scale_likert_active,9103.899999976158,NA,NA,Somewhat Agree,1,0,1,0,NA,NA,NA,NA,1,statements,I want to get back to normal life and want this to be over soon and want to protect the wider public (Hurd immunity).,1,17/05/2021 10:37,17/05/2021 11:15,2299,Once or twice a year,A few times a year,24,Female,-99,A levels,11,2,Against,For
39,1658936214401,27/07/2022 15:36:54,1658936212343,1,27/07/2022 16:36:52,94050,2,task-lkrz,NA,23334795,6847647,NA,complete,NA,62e15a336ec03f599bc35dd1,computer,Desktop or Laptop,Mac OS 10.15.7,Chrome 103.0.0.0,1440x900,1440x796,NA,ITT Ratings,3,For,2,ACCEPT,NA,NA,NA,NA,NA,NA,NA,NA,NA,batch2hes,batch2hes,41,37,1,Screen 1,continueButton,response_rating_scale_likert_active,20458,NA,NA,Strongly Disagree,1,0,1,0,NA,NA,NA,NA,1,statements,It's an mRNA gened-editing overkill for a flu which is less treat to your health than an experimental injection with potential for serious adverse effect including the potential for cytokine storm.,1,17/05/2021 11:07,17/05/2021 11:21,851,Most days,Most days,59,Female,-99,A levels,17,2,Against,Against
40,1658936216615,27/07/2022 15:36:56,1658936214561,1,27/07/2022 16:36:54,94050,2,task-lkrz,NA,23334795,6847647,NA,complete,NA,62e15a336ec03f599bc35dd1,computer,Desktop or Laptop,Mac OS 10.15.7,Chrome 103.0.0.0,1440x900,1440x796,NA,ITT Ratings,3,For,2,ACCEPT,NA,NA,NA,NA,NA,NA,NA,NA,NA,batch2hes,batch2hes,13,38,1,Screen 1,continueButton,response_rating_scale_likert_active,2208.600000023842,NA,NA,Agree,1,0,1,0,NA,NA,NA,NA,1,statements,its safe to take the vaccine,1,17/05/2021 11:01,17/05/2021 11:15,865,Rarely,Rarely,28,Female,-99,"No formal qualifications,Undergraduate degree (BSc, BA)",12,1,Against,For
41,1658936219360,27/07/2022 15:36:59,1658936217297,1,27/07/2022 16:36:57,94050,2,task-lkrz,NA,23334795,6847647,NA,complete,NA,62e15a336ec03f599bc35dd1,computer,Desktop or Laptop,Mac OS 10.15.7,Chrome 103.0.0.0,1440x900,1440x796,NA,ITT Ratings,3,For,2,ACCEPT,NA,NA,NA,NA,NA,NA,NA,NA,NA,batch2hes,batch2hes,37,39,1,Screen 1,continueButton,response_rating_scale_likert_active,2727.5,NA,NA,Agree,1,0,1,0,NA,NA,NA,NA,1,statements,I want to do my part and protect my loved ones,1,17/05/2021 10:22,17/05/2021 11:19,3415,Most weeks,Rarely,26,Female,-99,"Postgraduate degree (MSc, MA, MPhil)",16,1,Against,For
42,1658936227183,27/07/2022 15:37:07,1658936225129,1,27/07/2022 16:37:05,94050,2,task-lkrz,NA,23334795,6847647,NA,complete,NA,62e15a336ec03f599bc35dd1,computer,Desktop or Laptop,Mac OS 10.15.7,Chrome 103.0.0.0,1440x900,1440x796,NA,ITT Ratings,3,For,2,ACCEPT,NA,NA,NA,NA,NA,NA,NA,NA,NA,batch2hes,batch2hes,60,40,1,Screen 1,continueButton,response_rating_scale_likert_active,7823.700000047684,NA,NA,Strongly Disagree,1,0,1,0,NA,NA,NA,NA,1,statements,"the government is so desperate to get this vaccine into people, they are using so much  covid propaganda,  people are neither scad out of there mind, or realize  something is just not right.",1,17/05/2021 10:52,17/05/2021 11:22,1779,Most weeks,Most days,55,Female,-99,GCSEs,20,3,Against,Against
43,1658936234755,27/07/2022 15:37:14,1658936232703,1,27/07/2022 16:37:12,94050,2,task-lkrz,NA,23334795,6847647,NA,complete,NA,62e15a336ec03f599bc35dd1,computer,Desktop or Laptop,Mac OS 10.15.7,Chrome 103.0.0.0,1440x900,1440x796,NA,ITT Ratings,3,For,2,ACCEPT,NA,NA,NA,NA,NA,NA,NA,NA,NA,batch2hes,batch2hes,17,41,1,Screen 1,continueButton,response_rating_scale_likert_active,7565.299999952316,NA,NA,Somewhat Disagree,1,0,1,0,NA,NA,NA,NA,1,statements,That I am concerned about unknown long term affects,1,17/05/2021 11:08,17/05/2021 11:16,512,Rarely,A few times a year,39,Female,-99,A levels,13,2,Against,Against
44,1658936237511,27/07/2022 15:37:17,1658936235460,1,27/07/2022 16:37:15,94050,2,task-lkrz,NA,23334795,6847647,NA,complete,NA,62e15a336ec03f599bc35dd1,computer,Desktop or Laptop,Mac OS 10.15.7,Chrome 103.0.0.0,1440x900,1440x796,NA,ITT Ratings,3,For,2,ACCEPT,NA,NA,NA,NA,NA,NA,NA,NA,NA,batch2hes,batch2hes,2,42,1,Screen 1,continueButton,response_rating_scale_likert_active,2748.699999988079,NA,NA,Somewhat Agree,1,0,1,0,NA,NA,NA,NA,1,statements,We would like to check you are reading each argument carefully. Please select 'Somewhat Agree' for this answer,1,NA,NA,NA,NA,NA,NA,NA,NA,NA,NA,check1,NA,NA
45,1658936259848,27/07/2022 15:37:39,1658936257782,1,27/07/2022 16:37:37,94050,2,task-lkrz,NA,23334795,6847647,NA,complete,NA,62e15a336ec03f599bc35dd1,computer,Desktop or Laptop,Mac OS 10.15.7,Chrome 103.0.0.0,1440x900,1440x796,NA,ITT Ratings,3,For,2,ACCEPT,NA,NA,NA,NA,NA,NA,NA,NA,NA,batch2hes,batch2hes,34,43,1,Screen 1,continueButton,response_rating_scale_likert_active,22314.69999998808,NA,NA,Somewhat Disagree,1,0,1,0,NA,NA,NA,NA,1,statements,"It hasn't been long enough to test the long tern side effects, and already the side effects are concerning",1,17/05/2021 10:22,17/05/2021 11:19,3415,Most weeks,Rarely,26,Female,-99,"Postgraduate degree (MSc, MA, MPhil)",16,1,Against,Against
46,1658936266745,27/07/2022 15:37:46,1658936264686,1,27/07/2022 16:37:44,94050,2,task-lkrz,NA,23334795,6847647,NA,complete,NA,62e15a336ec03f599bc35dd1,computer,Desktop or Laptop,Mac OS 10.15.7,Chrome 103.0.0.0,1440x900,1440x796,NA,ITT Ratings,3,For,2,ACCEPT,NA,NA,NA,NA,NA,NA,NA,NA,NA,batch2hes,batch2hes,61,44,1,Screen 1,continueButton,response_rating_scale_likert_active,6894.5,NA,NA,Somewhat Agree,1,0,1,0,NA,NA,NA,NA,1,statements,I am so scared I will not feel save until I have this vaccine.,1,17/05/2021 10:52,17/05/2021 11:22,1779,Most weeks,Most days,55,Female,-99,GCSEs,20,1,Against,For
47,1658936276616,27/07/2022 15:37:56,1658936274568,1,27/07/2022 16:37:54,94050,2,task-lkrz,NA,23334795,6847647,NA,complete,NA,62e15a336ec03f599bc35dd1,computer,Desktop or Laptop,Mac OS 10.15.7,Chrome 103.0.0.0,1440x900,1440x796,NA,ITT Ratings,3,For,2,ACCEPT,NA,NA,NA,NA,NA,NA,NA,NA,NA,batch2hes,batch2hes,22,45,1,Screen 1,continueButton,response_rating_scale_likert_active,9873.30000001192,NA,NA,Disagree,1,0,1,0,NA,NA,NA,NA,1,statements,"There have been adverse side effects other than the blood clots mentioned in the news,news does not provide all needed information regarding the side effects of the vaccination,including infertility.",1,17/05/2021 11:11,17/05/2021 11:18,471,Most weeks,Most weeks,24,Female,-99,"Undergraduate degree (BSc, BA)",14,1,Against,Against
48,1658936278750,27/07/2022 15:37:58,1658936276700,1,27/07/2022 16:37:56,94050,2,task-lkrz,NA,23334795,6847647,NA,complete,NA,62e15a336ec03f599bc35dd1,computer,Desktop or Laptop,Mac OS 10.15.7,Chrome 103.0.0.0,1440x900,1440x796,NA,ITT Ratings,3,For,2,ACCEPT,NA,NA,NA,NA,NA,NA,NA,NA,NA,batch2hes,batch2hes,39,46,1,Screen 1,continueButton,response_rating_scale_likert_active,2122.600000023842,NA,NA,Somewhat Agree,1,0,1,0,NA,NA,NA,NA,1,statements,I don't want to be scared of catching covid-19 anymore,1,17/05/2021 10:22,17/05/2021 11:19,3415,Most weeks,Rarely,26,Female,-99,"Postgraduate degree (MSc, MA, MPhil)",16,3,Against,For
49,1658936280882,27/07/2022 15:38:00,1658936278822,1,27/07/2022 16:37:58,94050,2,task-lkrz,NA,23334795,6847647,NA,complete,NA,62e15a336ec03f599bc35dd1,computer,Desktop or Laptop,Mac OS 10.15.7,Chrome 103.0.0.0,1440x900,1440x796,NA,ITT Ratings,3,For,2,ACCEPT,NA,NA,NA,NA,NA,NA,NA,NA,NA,batch2hes,batch2hes,21,47,1,Screen 1,continueButton,response_rating_scale_likert_active,2113.599999964237,NA,NA,Agree,1,0,1,0,NA,NA,NA,NA,1,statements,To help relieve the pressure on the NHS,1,17/05/2021 11:08,17/05/2021 11:16,512,Rarely,A few times a year,39,Female,-99,A levels,13,3,Against,For
50,1658936286207,27/07/2022 15:38:06,1658936284160,1,27/07/2022 16:38:04,94050,2,task-lkrz,NA,23334795,6847647,NA,complete,NA,62e15a336ec03f599bc35dd1,computer,Desktop or Laptop,Mac OS 10.15.7,Chrome 103.0.0.0,1440x900,1440x796,NA,ITT Ratings,3,For,2,ACCEPT,NA,NA,NA,NA,NA,NA,NA,NA,NA,batch2hes,batch2hes,43,48,1,Screen 1,continueButton,response_rating_scale_likert_active,5330,NA,NA,Strongly Disagree,1,0,1,0,NA,NA,NA,NA,1,statements,I haven't bothered to do my research and I blindly trust everything I'm told by authorities.,1,17/05/2021 11:07,17/05/2021 11:21,851,Most days,Most days,59,Female,-99,A levels,17,1,Against,For
51,1658936294944,27/07/2022 15:38:14,1658936292893,1,27/07/2022 16:38:12,94050,2,task-lkrz,NA,23334795,6847647,NA,complete,NA,62e15a336ec03f599bc35dd1,computer,Desktop or Laptop,Mac OS 10.15.7,Chrome 103.0.0.0,1440x900,1440x796,NA,ITT Ratings,3,For,2,ACCEPT,NA,NA,NA,NA,NA,NA,NA,NA,NA,batch2hes,batch2hes,9,49,1,Screen 1,continueButton,response_rating_scale_likert_active,8725.699999988079,NA,NA,Neither Agree nor Disagree,1,0,1,0,NA,NA,NA,NA,1,statements,Previous vaccines have been successful so I trust in the vaccine.,1,17/05/2021 10:37,17/05/2021 11:15,2299,Once or twice a year,A few times a year,24,Female,-99,A levels,11,3,Against,For
52,1658936303435,27/07/2022 15:38:23,1658936301385,1,27/07/2022 16:38:21,94050,2,task-lkrz,NA,23334795,6847647,NA,complete,NA,62e15a336ec03f599bc35dd1,computer,Desktop or Laptop,Mac OS 10.15.7,Chrome 103.0.0.0,1440x900,1440x796,NA,ITT Ratings,3,For,2,ACCEPT,NA,NA,NA,NA,NA,NA,NA,NA,NA,batch2hes,batch2hes,45,50,1,Screen 1,continueButton,response_rating_scale_likert_active,8483.599999964237,NA,NA,Strongly Disagree,1,0,1,0,NA,NA,NA,NA,1,statements,"I think it's the only way back to ""normal life"", while failing to understand that the more I comply, the more authoritarian the coercion and control will become.",1,17/05/2021 11:07,17/05/2021 11:21,851,Most days,Most days,59,Female,-99,A levels,17,3,Against,For
53,1658936305798,27/07/2022 15:38:25,1658936303752,1,27/07/2022 16:38:23,94050,2,task-lkrz,NA,23334795,6847647,NA,complete,NA,62e15a336ec03f599bc35dd1,computer,Desktop or Laptop,Mac OS 10.15.7,Chrome 103.0.0.0,1440x900,1440x796,NA,ITT Ratings,3,For,2,ACCEPT,NA,NA,NA,NA,NA,NA,NA,NA,NA,batch2hes,batch2hes,19,51,1,Screen 1,continueButton,response_rating_scale_likert_active,2357.599999964237,NA,NA,Somewhat Agree,1,0,1,0,NA,NA,NA,NA,1,statements,I want normality to resume,1,17/05/2021 11:08,17/05/2021 11:16,512,Rarely,A few times a year,39,Female,-99,A levels,13,1,Against,For
54,1658936311967,27/07/2022 15:38:31,1658936309921,1,27/07/2022 16:38:29,94050,2,task-lkrz,NA,23334795,6847647,NA,complete,NA,62e15a336ec03f599bc35dd1,computer,Desktop or Laptop,Mac OS 10.15.7,Chrome 103.0.0.0,1440x900,1440x796,NA,ITT Ratings,3,For,2,ACCEPT,NA,NA,NA,NA,NA,NA,NA,NA,NA,batch2hes,batch2hes,36,52,1,Screen 1,continueButton,response_rating_scale_likert_active,6161.399999976158,NA,NA,Disagree,1,0,1,0,NA,NA,NA,NA,1,statements,We haven't trusted the government for years why should be trust them now after they've made so many bad descisions in the pandemic.,1,17/05/2021 10:22,17/05/2021 11:19,3415,Most weeks,Rarely,26,Female,-99,"Postgraduate degree (MSc, MA, MPhil)",16,3,Against,Against
55,1658936314857,27/07/2022 15:38:34,1658936312805,1,27/07/2022 16:38:32,94050,2,task-lkrz,NA,23334795,6847647,NA,complete,NA,62e15a336ec03f599bc35dd1,computer,Desktop or Laptop,Mac OS 10.15.7,Chrome 103.0.0.0,1440x900,1440x796,NA,ITT Ratings,3,For,2,ACCEPT,NA,NA,NA,NA,NA,NA,NA,NA,NA,batch2hes,batch2hes,52,53,1,Screen 1,continueButton,response_rating_scale_likert_active,2875.300000011921,NA,NA,Disagree,1,0,1,0,NA,NA,NA,NA,1,statements,It is unsafe as it has been produced too quickly,1,17/05/2021 11:04,17/05/2021 11:22,1027,A few times a year,A few times a year,38,Male,-99,GCSEs,19,1,Against,Against
56,1658936333485,27/07/2022 15:38:53,1658936331434,1,27/07/2022 16:38:51,94050,2,task-lkrz,NA,23334795,6847647,NA,complete,NA,62e15a336ec03f599bc35dd1,computer,Desktop or Laptop,Mac OS 10.15.7,Chrome 103.0.0.0,1440x900,1440x796,NA,ITT Ratings,3,For,2,ACCEPT,NA,NA,NA,NA,NA,NA,NA,NA,NA,batch2hes,batch2hes,62,54,1,Screen 1,continueButton,response_rating_scale_likert_active,18621.200000047684,NA,NA,Neither Agree nor Disagree,1,0,1,0,NA,NA,NA,NA,1,statements,"most people seem to think if they have the vaccine they can not on holiday , yer right",1,17/05/2021 10:52,17/05/2021 11:22,1779,Most weeks,Most days,55,Female,-99,GCSEs,20,2,Against,For
57,1658936335743,27/07/2022 15:38:55,1658936333698,1,27/07/2022 16:38:53,94050,2,task-lkrz,NA,23334795,6847647,NA,complete,NA,62e15a336ec03f599bc35dd1,computer,Desktop or Laptop,Mac OS 10.15.7,Chrome 103.0.0.0,1440x900,1440x796,NA,ITT Ratings,3,For,2,ACCEPT,NA,NA,NA,NA,NA,NA,NA,NA,NA,batch2hes,batch2hes,16,55,1,Screen 1,continueButton,response_rating_scale_likert_active,2255.7000000476837,NA,NA,Somewhat Disagree,1,0,1,0,NA,NA,NA,NA,1,statements,The vaccine has not been tested enough,1,17/05/2021 11:08,17/05/2021 11:16,512,Rarely,A few times a year,39,Female,-99,A levels,13,1,Against,Against
58,1658936341757,27/07/2022 15:39:01,1658936339712,1,27/07/2022 16:38:59,94050,2,task-lkrz,NA,23334795,6847647,NA,complete,NA,62e15a336ec03f599bc35dd1,computer,Desktop or Laptop,Mac OS 10.15.7,Chrome 103.0.0.0,1440x900,1440x796,NA,ITT Ratings,3,For,2,ACCEPT,NA,NA,NA,NA,NA,NA,NA,NA,NA,batch2hes,batch2hes,6,56,1,Screen 1,continueButton,response_rating_scale_likert_active,6006.900000035763,NA,NA,Disagree,1,0,1,0,NA,NA,NA,NA,1,statements,I don't trust the government and what they are trying to put into our body/why they are being so forceful.,1,17/05/2021 10:37,17/05/2021 11:15,2299,Once or twice a year,A few times a year,24,Female,-99,A levels,11,3,Against,Against
59,1658936345565,27/07/2022 15:39:05,1658936343508,1,27/07/2022 16:39:03,94050,2,task-lkrz,NA,23334795,6847647,NA,complete,NA,62e15a336ec03f599bc35dd1,computer,Desktop or Laptop,Mac OS 10.15.7,Chrome 103.0.0.0,1440x900,1440x796,NA,ITT Ratings,3,For,2,ACCEPT,NA,NA,NA,NA,NA,NA,NA,NA,NA,batch2hes,batch2hes,33,57,1,Screen 1,continueButton,response_rating_scale_likert_active,3787.199999988079,NA,NA,Somewhat Agree,1,0,1,0,NA,NA,NA,NA,1,statements,I just want to get back to normal,1,17/05/2021 11:06,17/05/2021 11:19,791,Most months,Most months,27,Female,-99,GCSEs,15,3,Against,For
60,1658936350042,27/07/2022 15:39:10,1658936347988,1,27/07/2022 16:39:07,94050,2,task-lkrz,NA,23334795,6847647,NA,complete,NA,62e15a336ec03f599bc35dd1,computer,Desktop or Laptop,Mac OS 10.15.7,Chrome 103.0.0.0,1440x900,1440x796,NA,ITT Ratings,3,For,2,ACCEPT,NA,NA,NA,NA,NA,NA,NA,NA,NA,batch2hes,batch2hes,12,58,1,Screen 1,continueButton,response_rating_scale_likert_active,4471.799999952316,NA,NA,Disagree,1,0,1,0,NA,NA,NA,NA,1,statements,i take enough supplements each day,1,17/05/2021 11:01,17/05/2021 11:15,865,Rarely,Rarely,28,Female,-99,"No formal qualifications,Undergraduate degree (BSc, BA)",12,3,Against,Against
61,1658936353238,27/07/2022 15:39:13,1658936351190,1,27/07/2022 16:39:11,94050,2,task-lkrz,NA,23334795,6847647,NA,complete,NA,62e15a336ec03f599bc35dd1,computer,Desktop or Laptop,Mac OS 10.15.7,Chrome 103.0.0.0,1440x900,1440x796,NA,ITT Ratings,3,For,2,ACCEPT,NA,NA,NA,NA,NA,NA,NA,NA,NA,batch2hes,batch2hes,57,59,1,Screen 1,continueButton,response_rating_scale_likert_active,3192.300000011921,NA,NA,Disagree,1,0,1,0,NA,NA,NA,NA,1,statements,I can't have my own opinion,1,17/05/2021 11:04,17/05/2021 11:22,1027,A few times a year,A few times a year,38,Male,-99,GCSEs,19,3,Against,For
62,1658936357251,27/07/2022 15:39:17,1658936355202,1,27/07/2022 16:39:15,94050,2,task-lkrz,NA,23334795,6847647,NA,complete,NA,62e15a336ec03f599bc35dd1,computer,Desktop or Laptop,Mac OS 10.15.7,Chrome 103.0.0.0,1440x900,1440x796,NA,ITT Ratings,3,For,2,ACCEPT,NA,NA,NA,NA,NA,NA,NA,NA,NA,batch2hes,batch2hes,44,60,1,Screen 1,continueButton,response_rating_scale_likert_active,4002.800000011921,NA,NA,Strongly Disagree,1,0,1,0,NA,NA,NA,NA,1,statements,I just want a quiet life and to do what I'm told without questioning deeper,1,17/05/2021 11:07,17/05/2021 11:21,851,Most days,Most days,59,Female,-99,A levels,17,2,Against,For
63,1658936366117,27/07/2022 15:39:26,1658936364062,1,27/07/2022 16:39:24,94050,2,task-lkrz,NA,23334795,6847647,NA,complete,NA,62e15a336ec03f599bc35dd1,computer,Desktop or Laptop,Mac OS 10.15.7,Chrome 103.0.0.0,1440x900,1440x796,NA,ITT Ratings,3,For,2,ACCEPT,NA,NA,NA,NA,NA,NA,NA,NA,NA,batch2hes,batch2hes,24,61,1,Screen 1,continueButton,response_rating_scale_likert_active,8853.399999976158,NA,NA,Strongly Disagree,1,0,1,0,NA,NA,NA,NA,1,statements,Can you believe I had a prolific study that was clearly designed to promote the Covid vaccine? Thats definitley put me off even more!,1,17/05/2021 11:11,17/05/2021 11:18,471,Most weeks,Most weeks,24,Female,-99,"Undergraduate degree (BSc, BA)",14,3,Against,Against
64,1658936369794,27/07/2022 15:39:29,1658936367744,1,27/07/2022 16:39:27,94050,2,task-lkrz,NA,23334795,6847647,NA,complete,NA,62e15a336ec03f599bc35dd1,computer,Desktop or Laptop,Mac OS 10.15.7,Chrome 103.0.0.0,1440x900,1440x796,NA,ITT Ratings,3,For,2,ACCEPT,NA,NA,NA,NA,NA,NA,NA,NA,NA,batch2hes,batch2hes,5,62,1,Screen 1,continueButton,response_rating_scale_likert_active,3675,NA,NA,Disagree,1,0,1,0,NA,NA,NA,NA,1,statements,Many people have reported unusual side effects/longer lasting side effects.,1,17/05/2021 10:37,17/05/2021 11:15,2299,Once or twice a year,A few times a year,24,Female,-99,A levels,11,2,Against,Against
65,1658936369856,27/07/2022 15:39:29,1658936367747,1,27/07/2022 16:39:27,94050,2,task-lkrz,NA,23334795,6847647,NA,complete,NA,62e15a336ec03f599bc35dd1,computer,Desktop or Laptop,Mac OS 10.15.7,Chrome 103.0.0.0,1440x900,1440x796,NA,ITT Ratings,3,For,2,ACCEPT,NA,NA,NA,NA,NA,NA,NA,NA,NA,batch2hes,NA,NA,END TASK,NA,NA,NA,NA,448123,NA,NA,NA,NA,0,1,0,NA,NA,NA,NA,NA,NA,NA,NA,NA,NA,NA,NA,NA,NA,NA,NA,NA,NA,NA,NA,NA
1,1658936100953,27/07/2022 15:35:00,1658936091719,1,27/07/2022 16:34:51,94050,2,task-lkrz,NA,23334875,6847682,NA,complete,NA,62e15af6fc81d65b1d53f012,computer,Desktop or Laptop,Windows 10,Chrome 103.0.0.0,1600x900,1600x757,NA,ITT Ratings,3,For,2,ACCEPT,NA,NA,NA,NA,NA,NA,NA,NA,NA,batch2hes,NA,NA,BEGIN TASK,NA,NA,NA,NA,NA,NA,NA,NA,NA,0,1,0,NA,NA,NA,NA,NA,NA,NA,NA,NA,NA,NA,NA,NA,NA,NA,NA,NA,NA,NA,NA,NA
2,1658936108255,27/07/2022 15:35:08,1658936099068,1,27/07/2022 16:34:59,94050,2,task-lkrz,NA,23334875,6847682,NA,complete,NA,62e15af6fc81d65b1d53f012,computer,Desktop or Laptop,Windows 10,Chrome 103.0.0.0,1600x900,1600x757,NA,ITT Ratings,3,For,2,ACCEPT,NA,NA,NA,NA,NA,NA,NA,NA,NA,batch2hes,batch2hes,1,1,1,Screen 1,advancementZone,continue_button,7277.5,NA,NA,NA,NA,0,1,0,NA,NA,NA,NA,NA,instructions,NA,NA,NA,NA,NA,NA,NA,NA,NA,NA,NA,NA,NA,NA,NA
3,1658936129819,27/07/2022 15:35:29,1658936120647,1,27/07/2022 16:35:20,94050,2,task-lkrz,NA,23334875,6847682,NA,complete,NA,62e15af6fc81d65b1d53f012,computer,Desktop or Laptop,Windows 10,Chrome 103.0.0.0,1600x900,1600x757,NA,ITT Ratings,3,For,2,ACCEPT,NA,NA,NA,NA,NA,NA,NA,NA,NA,batch2hes,batch2hes,8,1,1,Screen 1,continueButton,response_rating_scale_likert_active,21561.200000047684,NA,NA,Somewhat Agree,1,0,1,0,NA,NA,NA,NA,1,statements,I want to get back to normal life and want this to be over soon and want to protect the wider public (Hurd immunity).,1,17/05/2021 10:37,17/05/2021 11:15,2299,Once or twice a year,A few times a year,24,Female,-99,A levels,11,2,Against,For
4,1658936133910,27/07/2022 15:35:33,1658936124730,1,27/07/2022 16:35:24,94050,2,task-lkrz,NA,23334875,6847682,NA,complete,NA,62e15af6fc81d65b1d53f012,computer,Desktop or Laptop,Windows 10,Chrome 103.0.0.0,1600x900,1600x757,NA,ITT Ratings,3,For,2,ACCEPT,NA,NA,NA,NA,NA,NA,NA,NA,NA,batch2hes,batch2hes,46,2,1,Screen 1,continueButton,response_rating_scale_likert_active,4058.399999976158,NA,NA,Agree,1,0,1,0,NA,NA,NA,NA,1,statements,I'm sensitive to vaccines and am nervous of the side effects,1,17/05/2021 11:07,17/05/2021 11:21,844,Once or twice a year,A few times a year,61,Female,-99,"Undergraduate degree (BSc, BA)",18,1,Against,Against
5,1658936138449,27/07/2022 15:35:38,1658936129271,1,27/07/2022 16:35:29,94050,2,task-lkrz,NA,23334875,6847682,NA,complete,NA,62e15af6fc81d65b1d53f012,computer,Desktop or Laptop,Windows 10,Chrome 103.0.0.0,1600x900,1600x757,NA,ITT Ratings,3,For,2,ACCEPT,NA,NA,NA,NA,NA,NA,NA,NA,NA,batch2hes,batch2hes,63,3,1,Screen 1,continueButton,response_rating_scale_likert_active,4521.200000047684,NA,NA,Somewhat Agree,1,0,1,0,NA,NA,NA,NA,1,statements,I am feeling so much pressure by the government I just go for it because I am told to,1,17/05/2021 10:52,17/05/2021 11:22,1779,Most weeks,Most days,55,Female,-99,GCSEs,20,3,Against,For
6,1658936147579,27/07/2022 15:35:47,1658936138361,1,27/07/2022 16:35:38,94050,2,task-lkrz,NA,23334875,6847682,NA,complete,NA,62e15af6fc81d65b1d53f012,computer,Desktop or Laptop,Windows 10,Chrome 103.0.0.0,1600x900,1600x757,NA,ITT Ratings,3,For,2,ACCEPT,NA,NA,NA,NA,NA,NA,NA,NA,NA,batch2hes,batch2hes,59,4,1,Screen 1,continueButton,response_rating_scale_likert_active,9077.799999952316,NA,NA,Somewhat Disagree,1,0,1,0,NA,NA,NA,NA,1,statements,"the government keeps lying , Which gives me no reason whats so every to think they are telling the truth about the vaccine.",1,17/05/2021 10:52,17/05/2021 11:22,1779,Most weeks,Most days,55,Female,-99,GCSEs,20,2,Against,Against
7,1658936155391,27/07/2022 15:35:55,1658936146191,1,27/07/2022 16:35:46,94050,2,task-lkrz,NA,23334875,6847682,NA,complete,NA,62e15af6fc81d65b1d53f012,computer,Desktop or Laptop,Windows 10,Chrome 103.0.0.0,1600x900,1600x757,NA,ITT Ratings,3,For,2,ACCEPT,NA,NA,NA,NA,NA,NA,NA,NA,NA,batch2hes,batch2hes,45,5,1,Screen 1,continueButton,response_rating_scale_likert_active,7813.199999928474,NA,NA,Somewhat Disagree,1,0,1,0,NA,NA,NA,NA,1,statements,"I think it's the only way back to ""normal life"", while failing to understand that the more I comply, the more authoritarian the coercion and control will become.",1,17/05/2021 11:07,17/05/2021 11:21,851,Most days,Most days,59,Female,-99,A levels,17,3,Against,For
8,1658936161453,27/07/2022 15:36:01,1658936152268,1,27/07/2022 16:35:52,94050,2,task-lkrz,NA,23334875,6847682,NA,complete,NA,62e15af6fc81d65b1d53f012,computer,Desktop or Laptop,Windows 10,Chrome 103.0.0.0,1600x900,1600x757,NA,ITT Ratings,3,For,2,ACCEPT,NA,NA,NA,NA,NA,NA,NA,NA,NA,batch2hes,batch2hes,42,6,1,Screen 1,continueButton,response_rating_scale_likert_active,6061.399999976158,NA,NA,Strongly Disagree,1,0,1,0,NA,NA,NA,NA,1,statements,"There are already reports from all over the world, of horrendous adverse consequences to the injection. In addition, thousands of scientist have warned of the unnecessary and dangerous nature.",1,17/05/2021 11:07,17/05/2021 11:21,851,Most days,Most days,59,Female,-99,A levels,17,3,Against,Against
9,1658936165071,27/07/2022 15:36:05,1658936155873,1,27/07/2022 16:35:55,94050,2,task-lkrz,NA,23334875,6847682,NA,complete,NA,62e15af6fc81d65b1d53f012,computer,Desktop or Laptop,Windows 10,Chrome 103.0.0.0,1600x900,1600x757,NA,ITT Ratings,3,For,2,ACCEPT,NA,NA,NA,NA,NA,NA,NA,NA,NA,batch2hes,batch2hes,56,7,1,Screen 1,continueButton,response_rating_scale_likert_active,3594.5,NA,NA,Disagree,1,0,1,0,NA,NA,NA,NA,1,statements,I believe the scaremongering,1,17/05/2021 11:04,17/05/2021 11:22,1027,A few times a year,A few times a year,38,Male,-99,GCSEs,19,2,Against,For
10,1658936166798,27/07/2022 15:36:06,1658936157607,1,27/07/2022 16:35:57,94050,2,task-lkrz,NA,23334875,6847682,NA,complete,NA,62e15af6fc81d65b1d53f012,computer,Desktop or Laptop,Windows 10,Chrome 103.0.0.0,1600x900,1600x757,NA,ITT Ratings,3,For,2,ACCEPT,NA,NA,NA,NA,NA,NA,NA,NA,NA,batch2hes,batch2hes,28,8,1,Screen 1,continueButton,response_rating_scale_likert_active,1723.100000023842,NA,NA,Disagree,1,0,1,0,NA,NA,NA,NA,1,statements,Covid is not that serious.,1,17/05/2021 11:06,17/05/2021 11:19,791,Most months,Most months,27,Female,-99,GCSEs,15,1,Against,Against
11,1658936171555,27/07/2022 15:36:11,1658936162371,1,27/07/2022 16:36:02,94050,2,task-lkrz,NA,23334875,6847682,NA,complete,NA,62e15af6fc81d65b1d53f012,computer,Desktop or Laptop,Windows 10,Chrome 103.0.0.0,1600x900,1600x757,NA,ITT Ratings,3,For,2,ACCEPT,NA,NA,NA,NA,NA,NA,NA,NA,NA,batch2hes,batch2hes,48,9,1,Screen 1,continueButton,response_rating_scale_likert_active,4754.399999976158,NA,NA,Neither Agree nor Disagree,1,0,1,0,NA,NA,NA,NA,1,statements,We don't know the  long term effects of the vaccine,1,17/05/2021 11:07,17/05/2021 11:21,844,Once or twice a year,A few times a year,61,Female,-99,"Undergraduate degree (BSc, BA)",18,3,Against,Against
12,1658936178214,27/07/2022 15:36:18,1658936169032,1,27/07/2022 16:36:09,94050,2,task-lkrz,NA,23334875,6847682,NA,complete,NA,62e15af6fc81d65b1d53f012,computer,Desktop or Laptop,Windows 10,Chrome 103.0.0.0,1600x900,1600x757,NA,ITT Ratings,3,For,2,ACCEPT,NA,NA,NA,NA,NA,NA,NA,NA,NA,batch2hes,batch2hes,49,10,1,Screen 1,continueButton,response_rating_scale_likert_active,6646.700000047684,NA,NA,Agree,1,0,1,0,NA,NA,NA,NA,1,statements,I want to feel safe while this virus is still rampant,1,17/05/2021 11:07,17/05/2021 11:21,844,Once or twice a year,A few times a year,61,Female,-99,"Undergraduate degree (BSc, BA)",18,1,Against,For
13,1658936222453,27/07/2022 15:37:02,1658936213247,1,27/07/2022 16:36:53,94050,2,task-lkrz,NA,23334875,6847682,NA,complete,NA,62e15af6fc81d65b1d53f012,computer,Desktop or Laptop,Windows 10,Chrome 103.0.0.0,1600x900,1600x757,NA,ITT Ratings,3,For,2,ACCEPT,NA,NA,NA,NA,NA,NA,NA,NA,NA,batch2hes,batch2hes,24,11,1,Screen 1,continueButton,response_rating_scale_likert_active,44212.5,NA,NA,Disagree,1,0,1,0,NA,NA,NA,NA,1,statements,Can you believe I had a prolific study that was clearly designed to promote the Covid vaccine? Thats definitley put me off even more!,1,17/05/2021 11:11,17/05/2021 11:18,471,Most weeks,Most weeks,24,Female,-99,"Undergraduate degree (BSc, BA)",14,3,Against,Against
14,1658936228610,27/07/2022 15:37:08,1658936219410,1,27/07/2022 16:36:59,94050,2,task-lkrz,NA,23334875,6847682,NA,complete,NA,62e15af6fc81d65b1d53f012,computer,Desktop or Laptop,Windows 10,Chrome 103.0.0.0,1600x900,1600x757,NA,ITT Ratings,3,For,2,ACCEPT,NA,NA,NA,NA,NA,NA,NA,NA,NA,batch2hes,batch2hes,43,12,1,Screen 1,continueButton,response_rating_scale_likert_active,6136.199999928474,NA,NA,Disagree,1,0,1,0,NA,NA,NA,NA,1,statements,I haven't bothered to do my research and I blindly trust everything I'm told by authorities.,1,17/05/2021 11:07,17/05/2021 11:21,851,Most days,Most days,59,Female,-99,A levels,17,1,Against,For
15,1658936231466,27/07/2022 15:37:11,1658936222262,1,27/07/2022 16:37:02,94050,2,task-lkrz,NA,23334875,6847682,NA,complete,NA,62e15af6fc81d65b1d53f012,computer,Desktop or Laptop,Windows 10,Chrome 103.0.0.0,1600x900,1600x757,NA,ITT Ratings,3,For,2,ACCEPT,NA,NA,NA,NA,NA,NA,NA,NA,NA,batch2hes,batch2hes,14,13,1,Screen 1,continueButton,response_rating_scale_likert_active,2843.899999976158,NA,NA,Somewhat Disagree,1,0,1,0,NA,NA,NA,NA,1,statements,I'm taking the vaccine so i can go out,1,17/05/2021 11:01,17/05/2021 11:15,865,Rarely,Rarely,28,Female,-99,"No formal qualifications,Undergraduate degree (BSc, BA)",12,2,Against,For
16,1658936234830,27/07/2022 15:37:14,1658936225626,1,27/07/2022 16:37:05,94050,2,task-lkrz,NA,23334875,6847682,NA,complete,NA,62e15af6fc81d65b1d53f012,computer,Desktop or Laptop,Windows 10,Chrome 103.0.0.0,1600x900,1600x757,NA,ITT Ratings,3,For,2,ACCEPT,NA,NA,NA,NA,NA,NA,NA,NA,NA,batch2hes,batch2hes,15,14,1,Screen 1,continueButton,response_rating_scale_likert_active,3352.2000000476837,NA,NA,Agree,1,0,1,0,NA,NA,NA,NA,1,statements,i need to protect other people,1,17/05/2021 11:01,17/05/2021 11:15,865,Rarely,Rarely,28,Female,-99,"No formal qualifications,Undergraduate degree (BSc, BA)",12,3,Against,For
17,1658936239724,27/07/2022 15:37:19,1658936230520,1,27/07/2022 16:37:10,94050,2,task-lkrz,NA,23334875,6847682,NA,complete,NA,62e15af6fc81d65b1d53f012,computer,Desktop or Laptop,Windows 10,Chrome 103.0.0.0,1600x900,1600x757,NA,ITT Ratings,3,For,2,ACCEPT,NA,NA,NA,NA,NA,NA,NA,NA,NA,batch2hes,batch2hes,58,15,1,Screen 1,continueButton,response_rating_scale_likert_active,4884.399999976158,NA,NA,Disagree,1,0,1,0,NA,NA,NA,NA,1,statements,"I do not trust the vaccine, all the people around me are suffering reactions , which you never see with other vaccine giving out",1,17/05/2021 10:52,17/05/2021 11:22,1779,Most weeks,Most days,55,Female,-99,GCSEs,20,1,Against,Against
18,1658936241704,27/07/2022 15:37:21,1658936232502,1,27/07/2022 16:37:12,94050,2,task-lkrz,NA,23334875,6847682,NA,complete,NA,62e15af6fc81d65b1d53f012,computer,Desktop or Laptop,Windows 10,Chrome 103.0.0.0,1600x900,1600x757,NA,ITT Ratings,3,For,2,ACCEPT,NA,NA,NA,NA,NA,NA,NA,NA,NA,batch2hes,batch2hes,13,16,1,Screen 1,continueButton,response_rating_scale_likert_active,1973.5,NA,NA,Agree,1,0,1,0,NA,NA,NA,NA,1,statements,its safe to take the vaccine,1,17/05/2021 11:01,17/05/2021 11:15,865,Rarely,Rarely,28,Female,-99,"No formal qualifications,Undergraduate degree (BSc, BA)",12,1,Against,For
19,1658936245863,27/07/2022 15:37:25,1658936236662,1,27/07/2022 16:37:16,94050,2,task-lkrz,NA,23334875,6847682,NA,complete,NA,62e15af6fc81d65b1d53f012,computer,Desktop or Laptop,Windows 10,Chrome 103.0.0.0,1600x900,1600x757,NA,ITT Ratings,3,For,2,ACCEPT,NA,NA,NA,NA,NA,NA,NA,NA,NA,batch2hes,batch2hes,3,17,1,Screen 1,continueButton,response_rating_scale_likert_active,4146.100000023842,NA,NA,Somewhat Disagree,1,0,1,0,NA,NA,NA,NA,1,statements,We would like to check you are reading each argument carefully. Please select 'Somewhat Disagree' for this answer,1,NA,NA,NA,NA,NA,NA,NA,NA,NA,NA,check2,NA,NA
20,1658936250591,27/07/2022 15:37:30,1658936241371,1,27/07/2022 16:37:21,94050,2,task-lkrz,NA,23334875,6847682,NA,complete,NA,62e15af6fc81d65b1d53f012,computer,Desktop or Laptop,Windows 10,Chrome 103.0.0.0,1600x900,1600x757,NA,ITT Ratings,3,For,2,ACCEPT,NA,NA,NA,NA,NA,NA,NA,NA,NA,batch2hes,batch2hes,34,18,1,Screen 1,continueButton,response_rating_scale_likert_active,4698.799999952316,NA,NA,Somewhat Disagree,1,0,1,0,NA,NA,NA,NA,1,statements,"It hasn't been long enough to test the long tern side effects, and already the side effects are concerning",1,17/05/2021 10:22,17/05/2021 11:19,3415,Most weeks,Rarely,26,Female,-99,"Postgraduate degree (MSc, MA, MPhil)",16,1,Against,Against
21,1658936256288,27/07/2022 15:37:36,1658936247011,1,27/07/2022 16:37:27,94050,2,task-lkrz,NA,23334875,6847682,NA,complete,NA,62e15af6fc81d65b1d53f012,computer,Desktop or Laptop,Windows 10,Chrome 103.0.0.0,1600x900,1600x757,NA,ITT Ratings,3,For,2,ACCEPT,NA,NA,NA,NA,NA,NA,NA,NA,NA,batch2hes,batch2hes,35,19,1,Screen 1,continueButton,response_rating_scale_likert_active,5628,NA,NA,Somewhat Disagree,1,0,1,0,NA,NA,NA,NA,1,statements,The vaccine doesn't make you less likely to catch Covid-19 it just means you will have a less severe reaction to it. If you are not at risk then why risk the side effects.,1,17/05/2021 10:22,17/05/2021 11:19,3415,Most weeks,Rarely,26,Female,-99,"Postgraduate degree (MSc, MA, MPhil)",16,2,Against,Against
22,1658936261001,27/07/2022 15:37:41,1658936251796,1,27/07/2022 16:37:31,94050,2,task-lkrz,NA,23334875,6847682,NA,complete,NA,62e15af6fc81d65b1d53f012,computer,Desktop or Laptop,Windows 10,Chrome 103.0.0.0,1600x900,1600x757,NA,ITT Ratings,3,For,2,ACCEPT,NA,NA,NA,NA,NA,NA,NA,NA,NA,batch2hes,batch2hes,52,20,1,Screen 1,continueButton,response_rating_scale_likert_active,4775.600000023842,NA,NA,Disagree,1,0,1,0,NA,NA,NA,NA,1,statements,It is unsafe as it has been produced too quickly,1,17/05/2021 11:04,17/05/2021 11:22,1027,A few times a year,A few times a year,38,Male,-99,GCSEs,19,1,Against,Against
23,1658936273264,27/07/2022 15:37:53,1658936264049,1,27/07/2022 16:37:44,94050,2,task-lkrz,NA,23334875,6847682,NA,complete,NA,62e15af6fc81d65b1d53f012,computer,Desktop or Laptop,Windows 10,Chrome 103.0.0.0,1600x900,1600x757,NA,ITT Ratings,3,For,2,ACCEPT,NA,NA,NA,NA,NA,NA,NA,NA,NA,batch2hes,batch2hes,62,21,1,Screen 1,continueButton,response_rating_scale_likert_active,12254.900000095367,NA,NA,Somewhat Disagree,1,0,1,0,NA,NA,NA,NA,1,statements,"most people seem to think if they have the vaccine they can not on holiday , yer right",1,17/05/2021 10:52,17/05/2021 11:22,1779,Most weeks,Most days,55,Female,-99,GCSEs,20,2,Against,For
24,1658936278192,27/07/2022 15:37:58,1658936268978,1,27/07/2022 16:37:48,94050,2,task-lkrz,NA,23334875,6847682,NA,complete,NA,62e15af6fc81d65b1d53f012,computer,Desktop or Laptop,Windows 10,Chrome 103.0.0.0,1600x900,1600x757,NA,ITT Ratings,3,For,2,ACCEPT,NA,NA,NA,NA,NA,NA,NA,NA,NA,batch2hes,batch2hes,53,22,1,Screen 1,continueButton,response_rating_scale_likert_active,4918.799999952316,NA,NA,Somewhat Disagree,1,0,1,0,NA,NA,NA,NA,1,statements,"The Astrazeneca vaccine causes blood clots, so what do the other vaccines do",1,17/05/2021 11:04,17/05/2021 11:22,1027,A few times a year,A few times a year,38,Male,-99,GCSEs,19,2,Against,Against
25,1658936281867,27/07/2022 15:38:01,1658936272646,1,27/07/2022 16:37:52,94050,2,task-lkrz,NA,23334875,6847682,NA,complete,NA,62e15af6fc81d65b1d53f012,computer,Desktop or Laptop,Windows 10,Chrome 103.0.0.0,1600x900,1600x757,NA,ITT Ratings,3,For,2,ACCEPT,NA,NA,NA,NA,NA,NA,NA,NA,NA,batch2hes,batch2hes,39,23,1,Screen 1,continueButton,response_rating_scale_likert_active,3658.200000047684,NA,NA,Neither Agree nor Disagree,1,0,1,0,NA,NA,NA,NA,1,statements,I don't want to be scared of catching covid-19 anymore,1,17/05/2021 10:22,17/05/2021 11:19,3415,Most weeks,Rarely,26,Female,-99,"Postgraduate degree (MSc, MA, MPhil)",16,3,Against,For
26,1658936285630,27/07/2022 15:38:05,1658936276417,1,27/07/2022 16:37:56,94050,2,task-lkrz,NA,23334875,6847682,NA,complete,NA,62e15af6fc81d65b1d53f012,computer,Desktop or Laptop,Windows 10,Chrome 103.0.0.0,1600x900,1600x757,NA,ITT Ratings,3,For,2,ACCEPT,NA,NA,NA,NA,NA,NA,NA,NA,NA,batch2hes,batch2hes,11,24,1,Screen 1,continueButton,response_rating_scale_likert_active,3762.600000023842,NA,NA,Somewhat Disagree,1,0,1,0,NA,NA,NA,NA,1,statements,what bout herd immunity,1,17/05/2021 11:01,17/05/2021 11:15,865,Rarely,Rarely,28,Female,-99,"No formal qualifications,Undergraduate degree (BSc, BA)",12,2,Against,Against
27,1658936287251,27/07/2022 15:38:07,1658936278038,1,27/07/2022 16:37:58,94050,2,task-lkrz,NA,23334875,6847682,NA,complete,NA,62e15af6fc81d65b1d53f012,computer,Desktop or Laptop,Windows 10,Chrome 103.0.0.0,1600x900,1600x757,NA,ITT Ratings,3,For,2,ACCEPT,NA,NA,NA,NA,NA,NA,NA,NA,NA,batch2hes,batch2hes,16,25,1,Screen 1,continueButton,response_rating_scale_likert_active,1612.899999976158,NA,NA,Somewhat Disagree,1,0,1,0,NA,NA,NA,NA,1,statements,The vaccine has not been tested enough,1,17/05/2021 11:08,17/05/2021 11:16,512,Rarely,A few times a year,39,Female,-99,A levels,13,1,Against,Against
28,1658936290334,27/07/2022 15:38:10,1658936281117,1,27/07/2022 16:38:01,94050,2,task-lkrz,NA,23334875,6847682,NA,complete,NA,62e15af6fc81d65b1d53f012,computer,Desktop or Laptop,Windows 10,Chrome 103.0.0.0,1600x900,1600x757,NA,ITT Ratings,3,For,2,ACCEPT,NA,NA,NA,NA,NA,NA,NA,NA,NA,batch2hes,batch2hes,50,26,1,Screen 1,continueButton,response_rating_scale_likert_active,3072,NA,NA,Neither Agree nor Disagree,1,0,1,0,NA,NA,NA,NA,1,statements,I've already had Covid and I never want to have it again,1,17/05/2021 11:07,17/05/2021 11:21,844,Once or twice a year,A few times a year,61,Female,-99,"Undergraduate degree (BSc, BA)",18,2,Against,For
29,1658936339878,27/07/2022 15:38:59,1658936330657,1,27/07/2022 16:38:50,94050,2,task-lkrz,NA,23334875,6847682,NA,complete,NA,62e15af6fc81d65b1d53f012,computer,Desktop or Laptop,Windows 10,Chrome 103.0.0.0,1600x900,1600x757,NA,ITT Ratings,3,For,2,ACCEPT,NA,NA,NA,NA,NA,NA,NA,NA,NA,batch2hes,batch2hes,51,27,1,Screen 1,continueButton,response_rating_scale_likert_active,49534.5,NA,NA,Somewhat Agree,1,0,1,0,NA,NA,NA,NA,1,statements,I have responsibility to have the vaccine and keep everybody safe,1,17/05/2021 11:07,17/05/2021 11:21,844,Once or twice a year,A few times a year,61,Female,-99,"Undergraduate degree (BSc, BA)",18,3,Against,For
30,1658936342719,27/07/2022 15:39:02,1658936333500,1,27/07/2022 16:38:53,94050,2,task-lkrz,NA,23334875,6847682,NA,complete,NA,62e15af6fc81d65b1d53f012,computer,Desktop or Laptop,Windows 10,Chrome 103.0.0.0,1600x900,1600x757,NA,ITT Ratings,3,For,2,ACCEPT,NA,NA,NA,NA,NA,NA,NA,NA,NA,batch2hes,batch2hes,26,28,1,Screen 1,continueButton,response_rating_scale_likert_active,2829.399999976158,NA,NA,Somewhat Agree,1,0,1,0,NA,NA,NA,NA,1,statements,Everyone else has got it and they said it wasnt that bad.,1,17/05/2021 11:11,17/05/2021 11:18,471,Most weeks,Most weeks,24,Female,-99,"Undergraduate degree (BSc, BA)",14,2,Against,For
31,1658936344726,27/07/2022 15:39:04,1658936335502,1,27/07/2022 16:38:55,94050,2,task-lkrz,NA,23334875,6847682,NA,complete,NA,62e15af6fc81d65b1d53f012,computer,Desktop or Laptop,Windows 10,Chrome 103.0.0.0,1600x900,1600x757,NA,ITT Ratings,3,For,2,ACCEPT,NA,NA,NA,NA,NA,NA,NA,NA,NA,batch2hes,batch2hes,12,29,1,Screen 1,continueButton,response_rating_scale_likert_active,1993,NA,NA,Somewhat Disagree,1,0,1,0,NA,NA,NA,NA,1,statements,i take enough supplements each day,1,17/05/2021 11:01,17/05/2021 11:15,865,Rarely,Rarely,28,Female,-99,"No formal qualifications,Undergraduate degree (BSc, BA)",12,3,Against,Against
32,1658936347862,27/07/2022 15:39:07,1658936338644,1,27/07/2022 16:38:58,94050,2,task-lkrz,NA,23334875,6847682,NA,complete,NA,62e15af6fc81d65b1d53f012,computer,Desktop or Laptop,Windows 10,Chrome 103.0.0.0,1600x900,1600x757,NA,ITT Ratings,3,For,2,ACCEPT,NA,NA,NA,NA,NA,NA,NA,NA,NA,batch2hes,batch2hes,32,30,1,Screen 1,continueButton,response_rating_scale_likert_active,3131.399999976158,NA,NA,Somewhat Agree,1,0,1,0,NA,NA,NA,NA,1,statements,I want to be able to go abroad,1,17/05/2021 11:06,17/05/2021 11:19,791,Most months,Most months,27,Female,-99,GCSEs,15,2,Against,For
33,1658936351385,27/07/2022 15:39:11,1658936342167,1,27/07/2022 16:39:02,94050,2,task-lkrz,NA,23334875,6847682,NA,complete,NA,62e15af6fc81d65b1d53f012,computer,Desktop or Laptop,Windows 10,Chrome 103.0.0.0,1600x900,1600x757,NA,ITT Ratings,3,For,2,ACCEPT,NA,NA,NA,NA,NA,NA,NA,NA,NA,batch2hes,batch2hes,40,31,1,Screen 1,continueButton,response_rating_scale_likert_active,3508.100000023842,NA,NA,Disagree,1,0,1,0,NA,NA,NA,NA,1,statements,It's completely unnecessary for a seasonal flu virus with a better-than 99% survival rate.,1,17/05/2021 11:07,17/05/2021 11:21,851,Most days,Most days,59,Female,-99,A levels,17,1,Against,Against
34,1658936354788,27/07/2022 15:39:14,1658936345570,1,27/07/2022 16:39:05,94050,2,task-lkrz,NA,23334875,6847682,NA,complete,NA,62e15af6fc81d65b1d53f012,computer,Desktop or Laptop,Windows 10,Chrome 103.0.0.0,1600x900,1600x757,NA,ITT Ratings,3,For,2,ACCEPT,NA,NA,NA,NA,NA,NA,NA,NA,NA,batch2hes,batch2hes,7,32,1,Screen 1,continueButton,response_rating_scale_likert_active,3386.100000023842,NA,NA,Somewhat Agree,1,0,1,0,NA,NA,NA,NA,1,statements,I want to reduce my risk of Covid-19 to protect myself.,1,17/05/2021 10:37,17/05/2021 11:15,2299,Once or twice a year,A few times a year,24,Female,-99,A levels,11,1,Against,For
35,1658936361230,27/07/2022 15:39:21,1658936352006,1,27/07/2022 16:39:12,94050,2,task-lkrz,NA,23334875,6847682,NA,complete,NA,62e15af6fc81d65b1d53f012,computer,Desktop or Laptop,Windows 10,Chrome 103.0.0.0,1600x900,1600x757,NA,ITT Ratings,3,For,2,ACCEPT,NA,NA,NA,NA,NA,NA,NA,NA,NA,batch2hes,batch2hes,17,33,1,Screen 1,continueButton,response_rating_scale_likert_active,6428.800000071526,NA,NA,Neither Agree nor Disagree,1,0,1,0,NA,NA,NA,NA,1,statements,That I am concerned about unknown long term affects,1,17/05/2021 11:08,17/05/2021 11:16,512,Rarely,A few times a year,39,Female,-99,A levels,13,2,Against,Against
36,1658936367652,27/07/2022 15:39:27,1658936358416,1,27/07/2022 16:39:18,94050,2,task-lkrz,NA,23334875,6847682,NA,complete,NA,62e15af6fc81d65b1d53f012,computer,Desktop or Laptop,Windows 10,Chrome 103.0.0.0,1600x900,1600x757,NA,ITT Ratings,3,For,2,ACCEPT,NA,NA,NA,NA,NA,NA,NA,NA,NA,batch2hes,batch2hes,29,34,1,Screen 1,continueButton,response_rating_scale_likert_active,6402.699999928474,NA,NA,Somewhat Disagree,1,0,1,0,NA,NA,NA,NA,1,statements,"Vaccine is in it's infancy. Like you said, ""The long-term effects of Covid-19 are not yet known because this disease has only existed since early 2020."" That same statement can be applied to the vacci",1,17/05/2021 11:06,17/05/2021 11:19,791,Most months,Most months,27,Female,-99,GCSEs,15,2,Against,Against
37,1658936375220,27/07/2022 15:39:35,1658936365992,1,27/07/2022 16:39:25,94050,2,task-lkrz,NA,23334875,6847682,NA,complete,NA,62e15af6fc81d65b1d53f012,computer,Desktop or Laptop,Windows 10,Chrome 103.0.0.0,1600x900,1600x757,NA,ITT Ratings,3,For,2,ACCEPT,NA,NA,NA,NA,NA,NA,NA,NA,NA,batch2hes,batch2hes,5,35,1,Screen 1,continueButton,response_rating_scale_likert_active,7562.700000047684,NA,NA,Neither Agree nor Disagree,1,0,1,0,NA,NA,NA,NA,1,statements,Many people have reported unusual side effects/longer lasting side effects.,1,17/05/2021 10:37,17/05/2021 11:15,2299,Once or twice a year,A few times a year,24,Female,-99,A levels,11,2,Against,Against
38,1658936380596,27/07/2022 15:39:40,1658936371355,1,27/07/2022 16:39:31,94050,2,task-lkrz,NA,23334875,6847682,NA,complete,NA,62e15af6fc81d65b1d53f012,computer,Desktop or Laptop,Windows 10,Chrome 103.0.0.0,1600x900,1600x757,NA,ITT Ratings,3,For,2,ACCEPT,NA,NA,NA,NA,NA,NA,NA,NA,NA,batch2hes,batch2hes,30,36,1,Screen 1,continueButton,response_rating_scale_likert_active,5350.5,NA,NA,Somewhat Disagree,1,0,1,0,NA,NA,NA,NA,1,statements,"The constant changing of what works, what doesn't, who it affects, who it doesn't. They don't really know for sure, do they?",1,17/05/2021 11:06,17/05/2021 11:19,791,Most months,Most months,27,Female,-99,GCSEs,15,3,Against,Against
39,1658936386345,27/07/2022 15:39:46,1658936377119,1,27/07/2022 16:39:37,94050,2,task-lkrz,NA,23334875,6847682,NA,complete,NA,62e15af6fc81d65b1d53f012,computer,Desktop or Laptop,Windows 10,Chrome 103.0.0.0,1600x900,1600x757,NA,ITT Ratings,3,For,2,ACCEPT,NA,NA,NA,NA,NA,NA,NA,NA,NA,batch2hes,batch2hes,9,37,1,Screen 1,continueButton,response_rating_scale_likert_active,5758.600000023842,NA,NA,Somewhat Agree,1,0,1,0,NA,NA,NA,NA,1,statements,Previous vaccines have been successful so I trust in the vaccine.,1,17/05/2021 10:37,17/05/2021 11:15,2299,Once or twice a year,A few times a year,24,Female,-99,A levels,11,3,Against,For
40,1658936390517,27/07/2022 15:39:50,1658936381295,1,27/07/2022 16:39:41,94050,2,task-lkrz,NA,23334875,6847682,NA,complete,NA,62e15af6fc81d65b1d53f012,computer,Desktop or Laptop,Windows 10,Chrome 103.0.0.0,1600x900,1600x757,NA,ITT Ratings,3,For,2,ACCEPT,NA,NA,NA,NA,NA,NA,NA,NA,NA,batch2hes,batch2hes,25,38,1,Screen 1,continueButton,response_rating_scale_likert_active,4165.199999928474,NA,NA,Somewhat Agree,1,0,1,0,NA,NA,NA,NA,1,statements,"I want to protect others, which is great, do so, if it works, then they wont catch it from me.",1,17/05/2021 11:11,17/05/2021 11:18,471,Most weeks,Most weeks,24,Female,-99,"Undergraduate degree (BSc, BA)",14,1,Against,For
41,1658936392706,27/07/2022 15:39:52,1658936383473,1,27/07/2022 16:39:43,94050,2,task-lkrz,NA,23334875,6847682,NA,complete,NA,62e15af6fc81d65b1d53f012,computer,Desktop or Laptop,Windows 10,Chrome 103.0.0.0,1600x900,1600x757,NA,ITT Ratings,3,For,2,ACCEPT,NA,NA,NA,NA,NA,NA,NA,NA,NA,batch2hes,batch2hes,10,39,1,Screen 1,continueButton,response_rating_scale_likert_active,2166.400000095367,NA,NA,Somewhat Disagree,1,0,1,0,NA,NA,NA,NA,1,statements,There aren't enough studies to show the effectiveness oft hem,1,17/05/2021 11:01,17/05/2021 11:15,865,Rarely,Rarely,28,Female,-99,"No formal qualifications,Undergraduate degree (BSc, BA)",12,1,Against,Against
42,1658936398736,27/07/2022 15:39:58,1658936389501,1,27/07/2022 16:39:49,94050,2,task-lkrz,NA,23334875,6847682,NA,complete,NA,62e15af6fc81d65b1d53f012,computer,Desktop or Laptop,Windows 10,Chrome 103.0.0.0,1600x900,1600x757,NA,ITT Ratings,3,For,2,ACCEPT,NA,NA,NA,NA,NA,NA,NA,NA,NA,batch2hes,batch2hes,23,40,1,Screen 1,continueButton,response_rating_scale_likert_active,6018.899999976158,NA,NA,Disagree,1,0,1,0,NA,NA,NA,NA,1,statements,"The vaccine does not prevent covid, nor does it stop the passing of it. So why bother? and if it works, then the people who care about catching it will have it and therefore it doesnt matter if i have",1,17/05/2021 11:11,17/05/2021 11:18,471,Most weeks,Most weeks,24,Female,-99,"Undergraduate degree (BSc, BA)",14,2,Against,Against
43,1658936400883,27/07/2022 15:40:00,1658936391660,1,27/07/2022 16:39:51,94050,2,task-lkrz,NA,23334875,6847682,NA,complete,NA,62e15af6fc81d65b1d53f012,computer,Desktop or Laptop,Windows 10,Chrome 103.0.0.0,1600x900,1600x757,NA,ITT Ratings,3,For,2,ACCEPT,NA,NA,NA,NA,NA,NA,NA,NA,NA,batch2hes,batch2hes,4,41,1,Screen 1,continueButton,response_rating_scale_likert_active,2149.1999999284744,NA,NA,Somewhat Disagree,1,0,1,0,NA,NA,NA,NA,1,statements,The vaccine was produced too quickly and not as trust worthy.,1,17/05/2021 10:37,17/05/2021 11:15,2299,Once or twice a year,A few times a year,24,Female,-99,A levels,11,1,Against,Against
44,1658936403540,27/07/2022 15:40:03,1658936394313,1,27/07/2022 16:39:54,94050,2,task-lkrz,NA,23334875,6847682,NA,complete,NA,62e15af6fc81d65b1d53f012,computer,Desktop or Laptop,Windows 10,Chrome 103.0.0.0,1600x900,1600x757,NA,ITT Ratings,3,For,2,ACCEPT,NA,NA,NA,NA,NA,NA,NA,NA,NA,batch2hes,batch2hes,21,42,1,Screen 1,continueButton,response_rating_scale_likert_active,2642.899999976158,NA,NA,Neither Agree nor Disagree,1,0,1,0,NA,NA,NA,NA,1,statements,To help relieve the pressure on the NHS,1,17/05/2021 11:08,17/05/2021 11:16,512,Rarely,A few times a year,39,Female,-99,A levels,13,3,Against,For
45,1658936405300,27/07/2022 15:40:05,1658936396058,1,27/07/2022 16:39:56,94050,2,task-lkrz,NA,23334875,6847682,NA,complete,NA,62e15af6fc81d65b1d53f012,computer,Desktop or Laptop,Windows 10,Chrome 103.0.0.0,1600x900,1600x757,NA,ITT Ratings,3,For,2,ACCEPT,NA,NA,NA,NA,NA,NA,NA,NA,NA,batch2hes,batch2hes,37,43,1,Screen 1,continueButton,response_rating_scale_likert_active,1732.600000023842,NA,NA,Somewhat Agree,1,0,1,0,NA,NA,NA,NA,1,statements,I want to do my part and protect my loved ones,1,17/05/2021 10:22,17/05/2021 11:19,3415,Most weeks,Rarely,26,Female,-99,"Postgraduate degree (MSc, MA, MPhil)",16,1,Against,For
46,1658936407646,27/07/2022 15:40:07,1658936398424,1,27/07/2022 16:39:58,94050,2,task-lkrz,NA,23334875,6847682,NA,complete,NA,62e15af6fc81d65b1d53f012,computer,Desktop or Laptop,Windows 10,Chrome 103.0.0.0,1600x900,1600x757,NA,ITT Ratings,3,For,2,ACCEPT,NA,NA,NA,NA,NA,NA,NA,NA,NA,batch2hes,batch2hes,31,44,1,Screen 1,continueButton,response_rating_scale_likert_active,2356.3000000715256,NA,NA,Neither Agree nor Disagree,1,0,1,0,NA,NA,NA,NA,1,statements,I want to be able to work,1,17/05/2021 11:06,17/05/2021 11:19,791,Most months,Most months,27,Female,-99,GCSEs,15,1,Against,For
47,1658936410780,27/07/2022 15:40:10,1658936401555,1,27/07/2022 16:40:01,94050,2,task-lkrz,NA,23334875,6847682,NA,complete,NA,62e15af6fc81d65b1d53f012,computer,Desktop or Laptop,Windows 10,Chrome 103.0.0.0,1600x900,1600x757,NA,ITT Ratings,3,For,2,ACCEPT,NA,NA,NA,NA,NA,NA,NA,NA,NA,batch2hes,batch2hes,27,45,1,Screen 1,continueButton,response_rating_scale_likert_active,3122.6999999284744,NA,NA,Neither Agree nor Disagree,1,0,1,0,NA,NA,NA,NA,1,statements,My family wanted me to.,1,17/05/2021 11:11,17/05/2021 11:18,471,Most weeks,Most weeks,24,Female,-99,"Undergraduate degree (BSc, BA)",14,3,Against,For
48,1658936417381,27/07/2022 15:40:17,1658936408143,1,27/07/2022 16:40:08,94050,2,task-lkrz,NA,23334875,6847682,NA,complete,NA,62e15af6fc81d65b1d53f012,computer,Desktop or Laptop,Windows 10,Chrome 103.0.0.0,1600x900,1600x757,NA,ITT Ratings,3,For,2,ACCEPT,NA,NA,NA,NA,NA,NA,NA,NA,NA,batch2hes,batch2hes,60,46,1,Screen 1,continueButton,response_rating_scale_likert_active,6577.100000023842,NA,NA,Somewhat Disagree,1,0,1,0,NA,NA,NA,NA,1,statements,"the government is so desperate to get this vaccine into people, they are using so much  covid propaganda,  people are neither scad out of there mind, or realize  something is just not right.",1,17/05/2021 10:52,17/05/2021 11:22,1779,Most weeks,Most days,55,Female,-99,GCSEs,20,3,Against,Against
49,1658936420725,27/07/2022 15:40:20,1658936411501,1,27/07/2022 16:40:11,94050,2,task-lkrz,NA,23334875,6847682,NA,complete,NA,62e15af6fc81d65b1d53f012,computer,Desktop or Laptop,Windows 10,Chrome 103.0.0.0,1600x900,1600x757,NA,ITT Ratings,3,For,2,ACCEPT,NA,NA,NA,NA,NA,NA,NA,NA,NA,batch2hes,batch2hes,36,47,1,Screen 1,continueButton,response_rating_scale_likert_active,3345.7999999523163,NA,NA,Neither Agree nor Disagree,1,0,1,0,NA,NA,NA,NA,1,statements,We haven't trusted the government for years why should be trust them now after they've made so many bad descisions in the pandemic.,1,17/05/2021 10:22,17/05/2021 11:19,3415,Most weeks,Rarely,26,Female,-99,"Postgraduate degree (MSc, MA, MPhil)",16,3,Against,Against
50,1658936423297,27/07/2022 15:40:23,1658936414063,1,27/07/2022 16:40:14,94050,2,task-lkrz,NA,23334875,6847682,NA,complete,NA,62e15af6fc81d65b1d53f012,computer,Desktop or Laptop,Windows 10,Chrome 103.0.0.0,1600x900,1600x757,NA,ITT Ratings,3,For,2,ACCEPT,NA,NA,NA,NA,NA,NA,NA,NA,NA,batch2hes,batch2hes,6,48,1,Screen 1,continueButton,response_rating_scale_likert_active,2553,NA,NA,Neither Agree nor Disagree,1,0,1,0,NA,NA,NA,NA,1,statements,I don't trust the government and what they are trying to put into our body/why they are being so forceful.,1,17/05/2021 10:37,17/05/2021 11:15,2299,Once or twice a year,A few times a year,24,Female,-99,A levels,11,3,Against,Against
51,1658936429911,27/07/2022 15:40:29,1658936420658,1,27/07/2022 16:40:20,94050,2,task-lkrz,NA,23334875,6847682,NA,complete,NA,62e15af6fc81d65b1d53f012,computer,Desktop or Laptop,Windows 10,Chrome 103.0.0.0,1600x900,1600x757,NA,ITT Ratings,3,For,2,ACCEPT,NA,NA,NA,NA,NA,NA,NA,NA,NA,batch2hes,batch2hes,22,49,1,Screen 1,continueButton,response_rating_scale_likert_active,6580,NA,NA,Disagree,1,0,1,0,NA,NA,NA,NA,1,statements,"There have been adverse side effects other than the blood clots mentioned in the news,news does not provide all needed information regarding the side effects of the vaccination,including infertility.",1,17/05/2021 11:11,17/05/2021 11:18,471,Most weeks,Most weeks,24,Female,-99,"Undergraduate degree (BSc, BA)",14,1,Against,Against
52,1658936433031,27/07/2022 15:40:33,1658936423809,1,27/07/2022 16:40:23,94050,2,task-lkrz,NA,23334875,6847682,NA,complete,NA,62e15af6fc81d65b1d53f012,computer,Desktop or Laptop,Windows 10,Chrome 103.0.0.0,1600x900,1600x757,NA,ITT Ratings,3,For,2,ACCEPT,NA,NA,NA,NA,NA,NA,NA,NA,NA,batch2hes,batch2hes,33,50,1,Screen 1,continueButton,response_rating_scale_likert_active,3136.5,NA,NA,Neither Agree nor Disagree,1,0,1,0,NA,NA,NA,NA,1,statements,I just want to get back to normal,1,17/05/2021 11:06,17/05/2021 11:19,791,Most months,Most months,27,Female,-99,GCSEs,15,3,Against,For
53,1658936435827,27/07/2022 15:40:35,1658936426593,1,27/07/2022 16:40:26,94050,2,task-lkrz,NA,23334875,6847682,NA,complete,NA,62e15af6fc81d65b1d53f012,computer,Desktop or Laptop,Windows 10,Chrome 103.0.0.0,1600x900,1600x757,NA,ITT Ratings,3,For,2,ACCEPT,NA,NA,NA,NA,NA,NA,NA,NA,NA,batch2hes,batch2hes,61,51,1,Screen 1,continueButton,response_rating_scale_likert_active,2774.399999976158,NA,NA,Somewhat Agree,1,0,1,0,NA,NA,NA,NA,1,statements,I am so scared I will not feel save until I have this vaccine.,1,17/05/2021 10:52,17/05/2021 11:22,1779,Most weeks,Most days,55,Female,-99,GCSEs,20,1,Against,For
54,1658936439587,27/07/2022 15:40:39,1658936430352,1,27/07/2022 16:40:30,94050,2,task-lkrz,NA,23334875,6847682,NA,complete,NA,62e15af6fc81d65b1d53f012,computer,Desktop or Laptop,Windows 10,Chrome 103.0.0.0,1600x900,1600x757,NA,ITT Ratings,3,For,2,ACCEPT,NA,NA,NA,NA,NA,NA,NA,NA,NA,batch2hes,batch2hes,38,52,1,Screen 1,continueButton,response_rating_scale_likert_active,3749.5,NA,NA,Neither Agree nor Disagree,1,0,1,0,NA,NA,NA,NA,1,statements,I want my life to go back to normal and be able to return to work/ lesure activities,1,17/05/2021 10:22,17/05/2021 11:19,3415,Most weeks,Rarely,26,Female,-99,"Postgraduate degree (MSc, MA, MPhil)",16,2,Against,For
55,1658936441474,27/07/2022 15:40:41,1658936432182,1,27/07/2022 16:40:32,94050,2,task-lkrz,NA,23334875,6847682,NA,complete,NA,62e15af6fc81d65b1d53f012,computer,Desktop or Laptop,Windows 10,Chrome 103.0.0.0,1600x900,1600x757,NA,ITT Ratings,3,For,2,ACCEPT,NA,NA,NA,NA,NA,NA,NA,NA,NA,batch2hes,batch2hes,47,53,1,Screen 1,continueButton,response_rating_scale_likert_active,1819.2999999523165,NA,NA,Somewhat Disagree,1,0,1,0,NA,NA,NA,NA,1,statements,We don't know enough about this vaccine to know it's safe yet,1,17/05/2021 11:07,17/05/2021 11:21,844,Once or twice a year,A few times a year,61,Female,-99,"Undergraduate degree (BSc, BA)",18,2,Against,Against
56,1658936444761,27/07/2022 15:40:44,1658936435454,1,27/07/2022 16:40:35,94050,2,task-lkrz,NA,23334875,6847682,NA,complete,NA,62e15af6fc81d65b1d53f012,computer,Desktop or Laptop,Windows 10,Chrome 103.0.0.0,1600x900,1600x757,NA,ITT Ratings,3,For,2,ACCEPT,NA,NA,NA,NA,NA,NA,NA,NA,NA,batch2hes,batch2hes,20,54,1,Screen 1,continueButton,response_rating_scale_likert_active,3263.8000000715256,NA,NA,Somewhat Disagree,1,0,1,0,NA,NA,NA,NA,1,statements,"We have no choice, we have to have it",1,17/05/2021 11:08,17/05/2021 11:16,512,Rarely,A few times a year,39,Female,-99,A levels,13,2,Against,For
57,1658936450143,27/07/2022 15:40:50,1658936440901,1,27/07/2022 16:40:40,94050,2,task-lkrz,NA,23334875,6847682,NA,complete,NA,62e15af6fc81d65b1d53f012,computer,Desktop or Laptop,Windows 10,Chrome 103.0.0.0,1600x900,1600x757,NA,ITT Ratings,3,For,2,ACCEPT,NA,NA,NA,NA,NA,NA,NA,NA,NA,batch2hes,batch2hes,41,55,1,Screen 1,continueButton,response_rating_scale_likert_active,5431.299999952316,NA,NA,Somewhat Disagree,1,0,1,0,NA,NA,NA,NA,1,statements,It's an mRNA gened-editing overkill for a flu which is less treat to your health than an experimental injection with potential for serious adverse effect including the potential for cytokine storm.,1,17/05/2021 11:07,17/05/2021 11:21,851,Most days,Most days,59,Female,-99,A levels,17,2,Against,Against
58,1658936452318,27/07/2022 15:40:52,1658936443077,1,27/07/2022 16:40:43,94050,2,task-lkrz,NA,23334875,6847682,NA,complete,NA,62e15af6fc81d65b1d53f012,computer,Desktop or Laptop,Windows 10,Chrome 103.0.0.0,1600x900,1600x757,NA,ITT Ratings,3,For,2,ACCEPT,NA,NA,NA,NA,NA,NA,NA,NA,NA,batch2hes,batch2hes,54,56,1,Screen 1,continueButton,response_rating_scale_likert_active,2165.599999904633,NA,NA,Strongly Disagree,1,0,1,0,NA,NA,NA,NA,1,statements,The government has put GPS trackers in the vaccine,1,17/05/2021 11:04,17/05/2021 11:22,1027,A few times a year,A few times a year,38,Male,-99,GCSEs,19,3,Against,Against
59,1658936455450,27/07/2022 15:40:55,1658936446212,1,27/07/2022 16:40:46,94050,2,task-lkrz,NA,23334875,6847682,NA,complete,NA,62e15af6fc81d65b1d53f012,computer,Desktop or Laptop,Windows 10,Chrome 103.0.0.0,1600x900,1600x757,NA,ITT Ratings,3,For,2,ACCEPT,NA,NA,NA,NA,NA,NA,NA,NA,NA,batch2hes,batch2hes,55,57,1,Screen 1,continueButton,response_rating_scale_likert_active,3122.7999999523163,NA,NA,Strongly Disagree,1,0,1,0,NA,NA,NA,NA,1,statements,"I'm a sheep, baaa, I follow the herd",1,17/05/2021 11:04,17/05/2021 11:22,1027,A few times a year,A few times a year,38,Male,-99,GCSEs,19,1,Against,For
60,1658936457611,27/07/2022 15:40:57,1658936448376,1,27/07/2022 16:40:48,94050,2,task-lkrz,NA,23334875,6847682,NA,complete,NA,62e15af6fc81d65b1d53f012,computer,Desktop or Laptop,Windows 10,Chrome 103.0.0.0,1600x900,1600x757,NA,ITT Ratings,3,For,2,ACCEPT,NA,NA,NA,NA,NA,NA,NA,NA,NA,batch2hes,batch2hes,19,58,1,Screen 1,continueButton,response_rating_scale_likert_active,2152.5,NA,NA,Neither Agree nor Disagree,1,0,1,0,NA,NA,NA,NA,1,statements,I want normality to resume,1,17/05/2021 11:08,17/05/2021 11:16,512,Rarely,A few times a year,39,Female,-99,A levels,13,1,Against,For
61,1658936553921,27/07/2022 15:42:33,1658936544677,1,27/07/2022 16:42:24,94050,2,task-lkrz,NA,23334875,6847682,NA,complete,NA,62e15af6fc81d65b1d53f012,computer,Desktop or Laptop,Windows 10,Chrome 103.0.0.0,1600x900,1600x757,NA,ITT Ratings,3,For,2,ACCEPT,NA,NA,NA,NA,NA,NA,NA,NA,NA,batch2hes,batch2hes,18,59,1,Screen 1,continueButton,response_rating_scale_likert_active,96296.20000004768,NA,NA,Neither Agree nor Disagree,1,0,1,0,NA,NA,NA,NA,1,statements,That I am not confident in the immunisation,1,17/05/2021 11:08,17/05/2021 11:16,512,Rarely,A few times a year,39,Female,-99,A levels,13,3,Against,Against
62,1658936556002,27/07/2022 15:42:36,1658936546754,1,27/07/2022 16:42:26,94050,2,task-lkrz,NA,23334875,6847682,NA,complete,NA,62e15af6fc81d65b1d53f012,computer,Desktop or Laptop,Windows 10,Chrome 103.0.0.0,1600x900,1600x757,NA,ITT Ratings,3,For,2,ACCEPT,NA,NA,NA,NA,NA,NA,NA,NA,NA,batch2hes,batch2hes,57,60,1,Screen 1,continueButton,response_rating_scale_likert_active,2057,NA,NA,Somewhat Disagree,1,0,1,0,NA,NA,NA,NA,1,statements,I can't have my own opinion,1,17/05/2021 11:04,17/05/2021 11:22,1027,A few times a year,A few times a year,38,Male,-99,GCSEs,19,3,Against,For
63,1658936558249,27/07/2022 15:42:38,1658936548939,1,27/07/2022 16:42:28,94050,2,task-lkrz,NA,23334875,6847682,NA,complete,NA,62e15af6fc81d65b1d53f012,computer,Desktop or Laptop,Windows 10,Chrome 103.0.0.0,1600x900,1600x757,NA,ITT Ratings,3,For,2,ACCEPT,NA,NA,NA,NA,NA,NA,NA,NA,NA,batch2hes,batch2hes,2,61,1,Screen 1,continueButton,response_rating_scale_likert_active,2178,NA,NA,Somewhat Agree,1,0,1,0,NA,NA,NA,NA,1,statements,We would like to check you are reading each argument carefully. Please select 'Somewhat Agree' for this answer,1,NA,NA,NA,NA,NA,NA,NA,NA,NA,NA,check1,NA,NA
64,1658936562088,27/07/2022 15:42:42,1658936552856,1,27/07/2022 16:42:32,94050,2,task-lkrz,NA,23334875,6847682,NA,complete,NA,62e15af6fc81d65b1d53f012,computer,Desktop or Laptop,Windows 10,Chrome 103.0.0.0,1600x900,1600x757,NA,ITT Ratings,3,For,2,ACCEPT,NA,NA,NA,NA,NA,NA,NA,NA,NA,batch2hes,batch2hes,44,62,1,Screen 1,continueButton,response_rating_scale_likert_active,3906.299999952316,NA,NA,Neither Agree nor Disagree,1,0,1,0,NA,NA,NA,NA,1,statements,I just want a quiet life and to do what I'm told without questioning deeper,1,17/05/2021 11:07,17/05/2021 11:21,851,Most days,Most days,59,Female,-99,A levels,17,2,Against,For
65,1658936562161,27/07/2022 15:42:42,1658936552859,1,27/07/2022 16:42:32,94050,2,task-lkrz,NA,23334875,6847682,NA,complete,NA,62e15af6fc81d65b1d53f012,computer,Desktop or Laptop,Windows 10,Chrome 103.0.0.0,1600x900,1600x757,NA,ITT Ratings,3,For,2,ACCEPT,NA,NA,NA,NA,NA,NA,NA,NA,NA,batch2hes,NA,NA,END TASK,NA,NA,NA,NA,461140,NA,NA,NA,NA,0,1,0,NA,NA,NA,NA,NA,NA,NA,NA,NA,NA,NA,NA,NA,NA,NA,NA,NA,NA,NA,NA,NA
1,1658936182757,27/07/2022 15:36:22,1658936182629,1,27/07/2022 16:36:22,94050,2,task-lkrz,NA,23334907,6847693,NA,complete,NA,62e15b44b62df8710d364cd5,computer,Desktop or Laptop,Mac OS 10.15.7,Chrome 103.0.0.0,1440x900,1440x703,NA,ITT Ratings,3,For,2,ACCEPT,NA,NA,NA,NA,NA,NA,NA,NA,NA,batch2hes,NA,NA,BEGIN TASK,NA,NA,NA,NA,NA,NA,NA,NA,NA,0,1,0,NA,NA,NA,NA,NA,NA,NA,NA,NA,NA,NA,NA,NA,NA,NA,NA,NA,NA,NA,NA,NA
2,1658936188546,27/07/2022 15:36:28,1658936188480,1,27/07/2022 16:36:28,94050,2,task-lkrz,NA,23334907,6847693,NA,complete,NA,62e15b44b62df8710d364cd5,computer,Desktop or Laptop,Mac OS 10.15.7,Chrome 103.0.0.0,1440x900,1440x703,NA,ITT Ratings,3,For,2,ACCEPT,NA,NA,NA,NA,NA,NA,NA,NA,NA,batch2hes,batch2hes,1,1,1,Screen 1,advancementZone,continue_button,5800.5,NA,NA,NA,NA,0,1,0,NA,NA,NA,NA,NA,instructions,NA,NA,NA,NA,NA,NA,NA,NA,NA,NA,NA,NA,NA,NA,NA
3,1658936198411,27/07/2022 15:36:38,1658936198316,1,27/07/2022 16:36:38,94050,2,task-lkrz,NA,23334907,6847693,NA,complete,NA,62e15b44b62df8710d364cd5,computer,Desktop or Laptop,Mac OS 10.15.7,Chrome 103.0.0.0,1440x900,1440x703,NA,ITT Ratings,3,For,2,ACCEPT,NA,NA,NA,NA,NA,NA,NA,NA,NA,batch2hes,batch2hes,11,1,1,Screen 1,continueButton,response_rating_scale_likert_active,9817.799999998882,NA,NA,Somewhat Agree,1,0,1,0,NA,NA,NA,NA,1,statements,what bout herd immunity,1,17/05/2021 11:01,17/05/2021 11:15,865,Rarely,Rarely,28,Female,-99,"No formal qualifications,Undergraduate degree (BSc, BA)",12,2,Against,Against
4,1658936201502,27/07/2022 15:36:41,1658936201402,1,27/07/2022 16:36:41,94050,2,task-lkrz,NA,23334907,6847693,NA,complete,NA,62e15b44b62df8710d364cd5,computer,Desktop or Laptop,Mac OS 10.15.7,Chrome 103.0.0.0,1440x900,1440x703,NA,ITT Ratings,3,For,2,ACCEPT,NA,NA,NA,NA,NA,NA,NA,NA,NA,batch2hes,batch2hes,12,2,1,Screen 1,continueButton,response_rating_scale_likert_active,3068.0999999996275,NA,NA,Strongly Disagree,1,0,1,0,NA,NA,NA,NA,1,statements,i take enough supplements each day,1,17/05/2021 11:01,17/05/2021 11:15,865,Rarely,Rarely,28,Female,-99,"No formal qualifications,Undergraduate degree (BSc, BA)",12,3,Against,Against
5,1658936210080,27/07/2022 15:36:50,1658936210004,1,27/07/2022 16:36:50,94050,2,task-lkrz,NA,23334907,6847693,NA,complete,NA,62e15b44b62df8710d364cd5,computer,Desktop or Laptop,Mac OS 10.15.7,Chrome 103.0.0.0,1440x900,1440x703,NA,ITT Ratings,3,For,2,ACCEPT,NA,NA,NA,NA,NA,NA,NA,NA,NA,batch2hes,batch2hes,46,3,1,Screen 1,continueButton,response_rating_scale_likert_active,8583.10000000149,NA,NA,Somewhat Agree,1,0,1,0,NA,NA,NA,NA,1,statements,I'm sensitive to vaccines and am nervous of the side effects,1,17/05/2021 11:07,17/05/2021 11:21,844,Once or twice a year,A few times a year,61,Female,-99,"Undergraduate degree (BSc, BA)",18,1,Against,Against
6,1658936214802,27/07/2022 15:36:54,1658936214709,1,27/07/2022 16:36:54,94050,2,task-lkrz,NA,23334907,6847693,NA,complete,NA,62e15b44b62df8710d364cd5,computer,Desktop or Laptop,Mac OS 10.15.7,Chrome 103.0.0.0,1440x900,1440x703,NA,ITT Ratings,3,For,2,ACCEPT,NA,NA,NA,NA,NA,NA,NA,NA,NA,batch2hes,batch2hes,56,4,1,Screen 1,continueButton,response_rating_scale_likert_active,4687.4000000003725,NA,NA,Disagree,1,0,1,0,NA,NA,NA,NA,1,statements,I believe the scaremongering,1,17/05/2021 11:04,17/05/2021 11:22,1027,A few times a year,A few times a year,38,Male,-99,GCSEs,19,2,Against,For
7,1658936217828,27/07/2022 15:36:57,1658936217758,1,27/07/2022 16:36:57,94050,2,task-lkrz,NA,23334907,6847693,NA,complete,NA,62e15b44b62df8710d364cd5,computer,Desktop or Laptop,Mac OS 10.15.7,Chrome 103.0.0.0,1440x900,1440x703,NA,ITT Ratings,3,For,2,ACCEPT,NA,NA,NA,NA,NA,NA,NA,NA,NA,batch2hes,batch2hes,55,5,1,Screen 1,continueButton,response_rating_scale_likert_active,3030.2999999988824,NA,NA,Agree,1,0,1,0,NA,NA,NA,NA,1,statements,"I'm a sheep, baaa, I follow the herd",1,17/05/2021 11:04,17/05/2021 11:22,1027,A few times a year,A few times a year,38,Male,-99,GCSEs,19,1,Against,For
8,1658936236299,27/07/2022 15:37:16,1658936236003,1,27/07/2022 16:37:16,94050,2,task-lkrz,NA,23334907,6847693,NA,complete,NA,62e15b44b62df8710d364cd5,computer,Desktop or Laptop,Mac OS 10.15.7,Chrome 103.0.0.0,1440x900,1440x703,NA,ITT Ratings,3,For,2,ACCEPT,NA,NA,NA,NA,NA,NA,NA,NA,NA,batch2hes,batch2hes,45,6,1,Screen 1,continueButton,response_rating_scale_likert_active,18227.20000000112,NA,NA,Somewhat Disagree,1,0,1,0,NA,NA,NA,NA,1,statements,"I think it's the only way back to ""normal life"", while failing to understand that the more I comply, the more authoritarian the coercion and control will become.",1,17/05/2021 11:07,17/05/2021 11:21,851,Most days,Most days,59,Female,-99,A levels,17,3,Against,For
9,1658936245312,27/07/2022 15:37:25,1658936245230,1,27/07/2022 16:37:25,94050,2,task-lkrz,NA,23334907,6847693,NA,complete,NA,62e15b44b62df8710d364cd5,computer,Desktop or Laptop,Mac OS 10.15.7,Chrome 103.0.0.0,1440x900,1440x703,NA,ITT Ratings,3,For,2,ACCEPT,NA,NA,NA,NA,NA,NA,NA,NA,NA,batch2hes,batch2hes,29,7,1,Screen 1,continueButton,response_rating_scale_likert_active,9211,NA,NA,Disagree,1,0,1,0,NA,NA,NA,NA,1,statements,"Vaccine is in it's infancy. Like you said, ""The long-term effects of Covid-19 are not yet known because this disease has only existed since early 2020."" That same statement can be applied to the vacci",1,17/05/2021 11:06,17/05/2021 11:19,791,Most months,Most months,27,Female,-99,GCSEs,15,2,Against,Against
10,1658936249187,27/07/2022 15:37:29,1658936249119,1,27/07/2022 16:37:29,94050,2,task-lkrz,NA,23334907,6847693,NA,complete,NA,62e15b44b62df8710d364cd5,computer,Desktop or Laptop,Mac OS 10.15.7,Chrome 103.0.0.0,1440x900,1440x703,NA,ITT Ratings,3,For,2,ACCEPT,NA,NA,NA,NA,NA,NA,NA,NA,NA,batch2hes,batch2hes,17,8,1,Screen 1,continueButton,response_rating_scale_likert_active,3872.199999999255,NA,NA,Neither Agree nor Disagree,1,0,1,0,NA,NA,NA,NA,1,statements,That I am concerned about unknown long term affects,1,17/05/2021 11:08,17/05/2021 11:16,512,Rarely,A few times a year,39,Female,-99,A levels,13,2,Against,Against
11,1658936255137,27/07/2022 15:37:35,1658936255063,1,27/07/2022 16:37:35,94050,2,task-lkrz,NA,23334907,6847693,NA,complete,NA,62e15b44b62df8710d364cd5,computer,Desktop or Laptop,Mac OS 10.15.7,Chrome 103.0.0.0,1440x900,1440x703,NA,ITT Ratings,3,For,2,ACCEPT,NA,NA,NA,NA,NA,NA,NA,NA,NA,batch2hes,batch2hes,25,9,1,Screen 1,continueButton,response_rating_scale_likert_active,5925.200000001118,NA,NA,Agree,1,0,1,0,NA,NA,NA,NA,1,statements,"I want to protect others, which is great, do so, if it works, then they wont catch it from me.",1,17/05/2021 11:11,17/05/2021 11:18,471,Most weeks,Most weeks,24,Female,-99,"Undergraduate degree (BSc, BA)",14,1,Against,For
12,1658936261152,27/07/2022 15:37:41,1658936261058,1,27/07/2022 16:37:41,94050,2,task-lkrz,NA,23334907,6847693,NA,complete,NA,62e15b44b62df8710d364cd5,computer,Desktop or Laptop,Mac OS 10.15.7,Chrome 103.0.0.0,1440x900,1440x703,NA,ITT Ratings,3,For,2,ACCEPT,NA,NA,NA,NA,NA,NA,NA,NA,NA,batch2hes,batch2hes,58,10,1,Screen 1,continueButton,response_rating_scale_likert_active,5978.5,NA,NA,Strongly Disagree,1,0,1,0,NA,NA,NA,NA,1,statements,"I do not trust the vaccine, all the people around me are suffering reactions , which you never see with other vaccine giving out",1,17/05/2021 10:52,17/05/2021 11:22,1779,Most weeks,Most days,55,Female,-99,GCSEs,20,1,Against,Against
13,1658936263582,27/07/2022 15:37:43,1658936263511,1,27/07/2022 16:37:43,94050,2,task-lkrz,NA,23334907,6847693,NA,complete,NA,62e15b44b62df8710d364cd5,computer,Desktop or Laptop,Mac OS 10.15.7,Chrome 103.0.0.0,1440x900,1440x703,NA,ITT Ratings,3,For,2,ACCEPT,NA,NA,NA,NA,NA,NA,NA,NA,NA,batch2hes,batch2hes,19,11,1,Screen 1,continueButton,response_rating_scale_likert_active,2437,NA,NA,Strongly Agree,1,0,1,0,NA,NA,NA,NA,1,statements,I want normality to resume,1,17/05/2021 11:08,17/05/2021 11:16,512,Rarely,A few times a year,39,Female,-99,A levels,13,1,Against,For
14,1658936268250,27/07/2022 15:37:48,1658936268184,1,27/07/2022 16:37:48,94050,2,task-lkrz,NA,23334907,6847693,NA,complete,NA,62e15b44b62df8710d364cd5,computer,Desktop or Laptop,Mac OS 10.15.7,Chrome 103.0.0.0,1440x900,1440x703,NA,ITT Ratings,3,For,2,ACCEPT,NA,NA,NA,NA,NA,NA,NA,NA,NA,batch2hes,batch2hes,34,12,1,Screen 1,continueButton,response_rating_scale_likert_active,4656.800000000745,NA,NA,Somewhat Disagree,1,0,1,0,NA,NA,NA,NA,1,statements,"It hasn't been long enough to test the long tern side effects, and already the side effects are concerning",1,17/05/2021 10:22,17/05/2021 11:19,3415,Most weeks,Rarely,26,Female,-99,"Postgraduate degree (MSc, MA, MPhil)",16,1,Against,Against
15,1658936272521,27/07/2022 15:37:52,1658936272461,1,27/07/2022 16:37:52,94050,2,task-lkrz,NA,23334907,6847693,NA,complete,NA,62e15b44b62df8710d364cd5,computer,Desktop or Laptop,Mac OS 10.15.7,Chrome 103.0.0.0,1440x900,1440x703,NA,ITT Ratings,3,For,2,ACCEPT,NA,NA,NA,NA,NA,NA,NA,NA,NA,batch2hes,batch2hes,38,13,1,Screen 1,continueButton,response_rating_scale_likert_active,4261.799999998882,NA,NA,Strongly Agree,1,0,1,0,NA,NA,NA,NA,1,statements,I want my life to go back to normal and be able to return to work/ lesure activities,1,17/05/2021 10:22,17/05/2021 11:19,3415,Most weeks,Rarely,26,Female,-99,"Postgraduate degree (MSc, MA, MPhil)",16,2,Against,For
16,1658936274384,27/07/2022 15:37:54,1658936274320,1,27/07/2022 16:37:54,94050,2,task-lkrz,NA,23334907,6847693,NA,complete,NA,62e15b44b62df8710d364cd5,computer,Desktop or Laptop,Mac OS 10.15.7,Chrome 103.0.0.0,1440x900,1440x703,NA,ITT Ratings,3,For,2,ACCEPT,NA,NA,NA,NA,NA,NA,NA,NA,NA,batch2hes,batch2hes,31,14,1,Screen 1,continueButton,response_rating_scale_likert_active,1841.0999999996277,NA,NA,Strongly Agree,1,0,1,0,NA,NA,NA,NA,1,statements,I want to be able to work,1,17/05/2021 11:06,17/05/2021 11:19,791,Most months,Most months,27,Female,-99,GCSEs,15,1,Against,For
17,1658936277200,27/07/2022 15:37:57,1658936277123,1,27/07/2022 16:37:57,94050,2,task-lkrz,NA,23334907,6847693,NA,complete,NA,62e15b44b62df8710d364cd5,computer,Desktop or Laptop,Mac OS 10.15.7,Chrome 103.0.0.0,1440x900,1440x703,NA,ITT Ratings,3,For,2,ACCEPT,NA,NA,NA,NA,NA,NA,NA,NA,NA,batch2hes,batch2hes,9,15,1,Screen 1,continueButton,response_rating_scale_likert_active,2787.5,NA,NA,Strongly Agree,1,0,1,0,NA,NA,NA,NA,1,statements,Previous vaccines have been successful so I trust in the vaccine.,1,17/05/2021 10:37,17/05/2021 11:15,2299,Once or twice a year,A few times a year,24,Female,-99,A levels,11,3,Against,For
18,1658936279199,27/07/2022 15:37:59,1658936279132,1,27/07/2022 16:37:59,94050,2,task-lkrz,NA,23334907,6847693,NA,complete,NA,62e15b44b62df8710d364cd5,computer,Desktop or Laptop,Mac OS 10.15.7,Chrome 103.0.0.0,1440x900,1440x703,NA,ITT Ratings,3,For,2,ACCEPT,NA,NA,NA,NA,NA,NA,NA,NA,NA,batch2hes,batch2hes,32,16,1,Screen 1,continueButton,response_rating_scale_likert_active,1992.199999999255,NA,NA,Strongly Agree,1,0,1,0,NA,NA,NA,NA,1,statements,I want to be able to go abroad,1,17/05/2021 11:06,17/05/2021 11:19,791,Most months,Most months,27,Female,-99,GCSEs,15,2,Against,For
19,1658936285770,27/07/2022 15:38:05,1658936285703,1,27/07/2022 16:38:05,94050,2,task-lkrz,NA,23334907,6847693,NA,complete,NA,62e15b44b62df8710d364cd5,computer,Desktop or Laptop,Mac OS 10.15.7,Chrome 103.0.0.0,1440x900,1440x703,NA,ITT Ratings,3,For,2,ACCEPT,NA,NA,NA,NA,NA,NA,NA,NA,NA,batch2hes,batch2hes,30,17,1,Screen 1,continueButton,response_rating_scale_likert_active,6555.4000000003725,NA,NA,Neither Agree nor Disagree,1,0,1,0,NA,NA,NA,NA,1,statements,"The constant changing of what works, what doesn't, who it affects, who it doesn't. They don't really know for sure, do they?",1,17/05/2021 11:06,17/05/2021 11:19,791,Most months,Most months,27,Female,-99,GCSEs,15,3,Against,Against
20,1658936292525,27/07/2022 15:38:12,1658936292450,1,27/07/2022 16:38:12,94050,2,task-lkrz,NA,23334907,6847693,NA,complete,NA,62e15b44b62df8710d364cd5,computer,Desktop or Laptop,Mac OS 10.15.7,Chrome 103.0.0.0,1440x900,1440x703,NA,ITT Ratings,3,For,2,ACCEPT,NA,NA,NA,NA,NA,NA,NA,NA,NA,batch2hes,batch2hes,24,18,1,Screen 1,continueButton,response_rating_scale_likert_active,6732.0999999996275,NA,NA,Strongly Disagree,1,0,1,0,NA,NA,NA,NA,1,statements,Can you believe I had a prolific study that was clearly designed to promote the Covid vaccine? Thats definitley put me off even more!,1,17/05/2021 11:11,17/05/2021 11:18,471,Most weeks,Most weeks,24,Female,-99,"Undergraduate degree (BSc, BA)",14,3,Against,Against
21,1658936297158,27/07/2022 15:38:17,1658936297088,1,27/07/2022 16:38:17,94050,2,task-lkrz,NA,23334907,6847693,NA,complete,NA,62e15b44b62df8710d364cd5,computer,Desktop or Laptop,Mac OS 10.15.7,Chrome 103.0.0.0,1440x900,1440x703,NA,ITT Ratings,3,For,2,ACCEPT,NA,NA,NA,NA,NA,NA,NA,NA,NA,batch2hes,batch2hes,44,19,1,Screen 1,continueButton,response_rating_scale_likert_active,4621.0999999996275,NA,NA,Neither Agree nor Disagree,1,0,1,0,NA,NA,NA,NA,1,statements,I just want a quiet life and to do what I'm told without questioning deeper,1,17/05/2021 11:07,17/05/2021 11:21,851,Most days,Most days,59,Female,-99,A levels,17,2,Against,For
22,1658936299827,27/07/2022 15:38:19,1658936299759,1,27/07/2022 16:38:19,94050,2,task-lkrz,NA,23334907,6847693,NA,complete,NA,62e15b44b62df8710d364cd5,computer,Desktop or Laptop,Mac OS 10.15.7,Chrome 103.0.0.0,1440x900,1440x703,NA,ITT Ratings,3,For,2,ACCEPT,NA,NA,NA,NA,NA,NA,NA,NA,NA,batch2hes,batch2hes,49,20,1,Screen 1,continueButton,response_rating_scale_likert_active,2655.199999999255,NA,NA,Strongly Agree,1,0,1,0,NA,NA,NA,NA,1,statements,I want to feel safe while this virus is still rampant,1,17/05/2021 11:07,17/05/2021 11:21,844,Once or twice a year,A few times a year,61,Female,-99,"Undergraduate degree (BSc, BA)",18,1,Against,For
23,1658936303387,27/07/2022 15:38:23,1658936303313,1,27/07/2022 16:38:23,94050,2,task-lkrz,NA,23334907,6847693,NA,complete,NA,62e15b44b62df8710d364cd5,computer,Desktop or Laptop,Mac OS 10.15.7,Chrome 103.0.0.0,1440x900,1440x703,NA,ITT Ratings,3,For,2,ACCEPT,NA,NA,NA,NA,NA,NA,NA,NA,NA,batch2hes,batch2hes,16,21,1,Screen 1,continueButton,response_rating_scale_likert_active,3536.5999999996275,NA,NA,Somewhat Disagree,1,0,1,0,NA,NA,NA,NA,1,statements,The vaccine has not been tested enough,1,17/05/2021 11:08,17/05/2021 11:16,512,Rarely,A few times a year,39,Female,-99,A levels,13,1,Against,Against
24,1658936310104,27/07/2022 15:38:30,1658936309983,1,27/07/2022 16:38:29,94050,2,task-lkrz,NA,23334907,6847693,NA,complete,NA,62e15b44b62df8710d364cd5,computer,Desktop or Laptop,Mac OS 10.15.7,Chrome 103.0.0.0,1440x900,1440x703,NA,ITT Ratings,3,For,2,ACCEPT,NA,NA,NA,NA,NA,NA,NA,NA,NA,batch2hes,batch2hes,8,22,1,Screen 1,continueButton,response_rating_scale_likert_active,6653.300000000745,NA,NA,Agree,1,0,1,0,NA,NA,NA,NA,1,statements,I want to get back to normal life and want this to be over soon and want to protect the wider public (Hurd immunity).,1,17/05/2021 10:37,17/05/2021 11:15,2299,Once or twice a year,A few times a year,24,Female,-99,A levels,11,2,Against,For
25,1658936311852,27/07/2022 15:38:31,1658936311781,1,27/07/2022 16:38:31,94050,2,task-lkrz,NA,23334907,6847693,NA,complete,NA,62e15b44b62df8710d364cd5,computer,Desktop or Laptop,Mac OS 10.15.7,Chrome 103.0.0.0,1440x900,1440x703,NA,ITT Ratings,3,For,2,ACCEPT,NA,NA,NA,NA,NA,NA,NA,NA,NA,batch2hes,batch2hes,33,23,1,Screen 1,continueButton,response_rating_scale_likert_active,1781.5,NA,NA,Strongly Agree,1,0,1,0,NA,NA,NA,NA,1,statements,I just want to get back to normal,1,17/05/2021 11:06,17/05/2021 11:19,791,Most months,Most months,27,Female,-99,GCSEs,15,3,Against,For
26,1658936314766,27/07/2022 15:38:34,1658936314688,1,27/07/2022 16:38:34,94050,2,task-lkrz,NA,23334907,6847693,NA,complete,NA,62e15b44b62df8710d364cd5,computer,Desktop or Laptop,Mac OS 10.15.7,Chrome 103.0.0.0,1440x900,1440x703,NA,ITT Ratings,3,For,2,ACCEPT,NA,NA,NA,NA,NA,NA,NA,NA,NA,batch2hes,batch2hes,51,24,1,Screen 1,continueButton,response_rating_scale_likert_active,2890.89999999851,NA,NA,Strongly Agree,1,0,1,0,NA,NA,NA,NA,1,statements,I have responsibility to have the vaccine and keep everybody safe,1,17/05/2021 11:07,17/05/2021 11:21,844,Once or twice a year,A few times a year,61,Female,-99,"Undergraduate degree (BSc, BA)",18,3,Against,For
27,1658936317419,27/07/2022 15:38:37,1658936317346,1,27/07/2022 16:38:37,94050,2,task-lkrz,NA,23334907,6847693,NA,complete,NA,62e15b44b62df8710d364cd5,computer,Desktop or Laptop,Mac OS 10.15.7,Chrome 103.0.0.0,1440x900,1440x703,NA,ITT Ratings,3,For,2,ACCEPT,NA,NA,NA,NA,NA,NA,NA,NA,NA,batch2hes,batch2hes,28,25,1,Screen 1,continueButton,response_rating_scale_likert_active,2641.4000000003725,NA,NA,Strongly Disagree,1,0,1,0,NA,NA,NA,NA,1,statements,Covid is not that serious.,1,17/05/2021 11:06,17/05/2021 11:19,791,Most months,Most months,27,Female,-99,GCSEs,15,1,Against,Against
