Event.Index,UTC.Timestamp,UTC.Date,Local.Timestamp,Local.Timezone,Local.Date,Experiment.ID,Experiment.Version,Tree.Node.Key,Repeat.Key,Schedule.ID,Participant.Private.ID,Participant.Starting.Group,Participant.Status,Participant.Completion.Code,Participant.External.Session.ID,Participant.Device.Type,Participant.Device,Participant.OS,Participant.Browser,Participant.Monitor.Size,Participant.Viewport.Size,Checkpoint,Task.Name,Task.Version,branch.69an,randomiser.8vg2,quota.bqtt,quota.rycs,quota.wtfi,quota.usve,quota.zgic,quota.f3yz,quota.r9vy,quota.tfqq,quota.3dga,quota.dtj6,Spreadsheet,Spreadsheet.Name,Spreadsheet.Row,Trial.Number,Screen.Number,Screen.Name,Zone.Name,Zone.Type,Reaction.Time,Reaction.Onset,Response.Type,Response,Attempt,Correct,Incorrect,Dishonest,X.Coordinate,Y.Coordinate,Timed.Out,randomise_blocks,randomise_trials,display,Arguments,ShowProgressBar,StartDate,EndDate,Duration,discuss_1,read_1,age,gender,gender_4_TEXT,edu,ID,arg_ID,Position,Arg_Position
1,1658935606628,27/07/2022 15:26:46,1658935606399,1,27/07/2022 16:26:46,94050,2,task-ig1e,NA,23334598,6847596,NA,complete,NA,62e158e39a5f40c64449fbc4,tablet,Apple iPad,iOS 15.5,Chrome 103.0.5060.63,768x1024,1024x768,NA,ITT Ratings,3,For,3,NA,ACCEPT,NA,NA,NA,NA,NA,NA,NA,NA,batch3hes,NA,NA,BEGIN TASK,NA,NA,NA,NA,NA,NA,NA,NA,NA,0,1,0,NA,NA,NA,NA,NA,NA,NA,NA,NA,NA,NA,NA,NA,NA,NA,NA,NA,NA,NA,NA,NA
2,1658935614950,27/07/2022 15:26:54,1658935614743,1,27/07/2022 16:26:54,94050,2,task-ig1e,NA,23334598,6847596,NA,complete,NA,62e158e39a5f40c64449fbc4,tablet,Apple iPad,iOS 15.5,Chrome 103.0.5060.63,768x1024,1024x768,NA,ITT Ratings,3,For,3,NA,ACCEPT,NA,NA,NA,NA,NA,NA,NA,NA,batch3hes,batch3hes,1,1,1,Screen 1,advancementZone,continue_button,8270,NA,NA,NA,NA,0,1,0,NA,NA,NA,NA,NA,instructions,NA,NA,NA,NA,NA,NA,NA,NA,NA,NA,NA,NA,NA,NA,NA
3,1658935627221,27/07/2022 15:27:07,1658935627041,1,27/07/2022 16:27:07,94050,2,task-ig1e,NA,23334598,6847596,NA,complete,NA,62e158e39a5f40c64449fbc4,tablet,Apple iPad,iOS 15.5,Chrome 103.0.5060.63,768x1024,1024x768,NA,ITT Ratings,3,For,3,NA,ACCEPT,NA,NA,NA,NA,NA,NA,NA,NA,batch3hes,batch3hes,56,1,1,Screen 1,continueButton,response_rating_scale_likert_active,12261.999999999998,NA,NA,Somewhat Agree,1,0,1,0,NA,NA,NA,NA,1,statements,in case employers say you have to be vaccinated to work,1,17/05/2021 11:19,17/05/2021 11:26,432,Once or twice a year,Most months,37,Female,-99,A levels,29,2,Against,For
4,1658935638325,27/07/2022 15:27:18,1658935638140,1,27/07/2022 16:27:18,94050,2,task-ig1e,NA,23334598,6847596,NA,complete,NA,62e158e39a5f40c64449fbc4,tablet,Apple iPad,iOS 15.5,Chrome 103.0.5060.63,768x1024,1024x768,NA,ITT Ratings,3,For,3,NA,ACCEPT,NA,NA,NA,NA,NA,NA,NA,NA,batch3hes,batch3hes,23,2,1,Screen 1,continueButton,response_rating_scale_likert_active,11067,NA,NA,Strongly Disagree,1,0,1,0,NA,NA,NA,NA,1,statements,"I am concerned the vaccine has been released too soon, not enough testing.",1,17/05/2021 10:52,17/05/2021 11:24,1936,Most weeks,Most days,64,Male,-99,No formal qualifications,24,2,Against,Against
5,1658935641857,27/07/2022 15:27:21,1658935641661,1,27/07/2022 16:27:21,94050,2,task-ig1e,NA,23334598,6847596,NA,complete,NA,62e158e39a5f40c64449fbc4,tablet,Apple iPad,iOS 15.5,Chrome 103.0.5060.63,768x1024,1024x768,NA,ITT Ratings,3,For,3,NA,ACCEPT,NA,NA,NA,NA,NA,NA,NA,NA,batch3hes,batch3hes,43,3,1,Screen 1,continueButton,response_rating_scale_likert_active,3485,NA,NA,Strongly Agree,1,0,1,0,NA,NA,NA,NA,1,statements,Produced quickly and effectively,1,17/05/2021 11:17,17/05/2021 11:25,451,Never,Never,28,Female,-99,A levels,27,1,Against,For
6,1658935646996,27/07/2022 15:27:26,1658935646778,1,27/07/2022 16:27:26,94050,2,task-ig1e,NA,23334598,6847596,NA,complete,NA,62e158e39a5f40c64449fbc4,tablet,Apple iPad,iOS 15.5,Chrome 103.0.5060.63,768x1024,1024x768,NA,ITT Ratings,3,For,3,NA,ACCEPT,NA,NA,NA,NA,NA,NA,NA,NA,batch3hes,batch3hes,33,4,1,Screen 1,continueButton,response_rating_scale_likert_active,5087,NA,NA,Somewhat Agree,1,0,1,0,NA,NA,NA,NA,1,statements,You can travel to countries without quarantine period,1,17/05/2021 11:11,17/05/2021 11:24,795,Most days,Most months,25,Female,-99,"Postgraduate degree (MSc, MA, MPhil)",25,3,Against,For
7,1658935652021,27/07/2022 15:27:32,1658935651830,1,27/07/2022 16:27:31,94050,2,task-ig1e,NA,23334598,6847596,NA,complete,NA,62e158e39a5f40c64449fbc4,tablet,Apple iPad,iOS 15.5,Chrome 103.0.5060.63,768x1024,1024x768,NA,ITT Ratings,3,For,3,NA,ACCEPT,NA,NA,NA,NA,NA,NA,NA,NA,batch3hes,batch3hes,39,5,1,Screen 1,continueButton,response_rating_scale_likert_active,5019,NA,NA,Neither Agree nor Disagree,1,0,1,0,NA,NA,NA,NA,1,statements,Everyone else is having the vaccine,1,17/05/2021 11:12,17/05/2021 11:25,781,Most weeks,Most months,44,Male,-99,A levels,26,3,Against,For
8,1658935656108,27/07/2022 15:27:36,1658935655908,1,27/07/2022 16:27:35,94050,2,task-ig1e,NA,23334598,6847596,NA,complete,NA,62e158e39a5f40c64449fbc4,tablet,Apple iPad,iOS 15.5,Chrome 103.0.5060.63,768x1024,1024x768,NA,ITT Ratings,3,For,3,NA,ACCEPT,NA,NA,NA,NA,NA,NA,NA,NA,batch3hes,batch3hes,17,6,1,Screen 1,continueButton,response_rating_scale_likert_active,4051,NA,NA,Strongly Disagree,1,0,1,0,NA,NA,NA,NA,1,statements,I'm anxious about the long and short term side effects from having the vaccine,1,17/05/2021 11:20,17/05/2021 11:23,190,Most weeks,Most weeks,25,Female,-99,Vocational Training / Apprenticeship,23,2,Against,Against
9,1658935659984,27/07/2022 15:27:39,1658935659791,1,27/07/2022 16:27:39,94050,2,task-ig1e,NA,23334598,6847596,NA,complete,NA,62e158e39a5f40c64449fbc4,tablet,Apple iPad,iOS 15.5,Chrome 103.0.5060.63,768x1024,1024x768,NA,ITT Ratings,3,For,3,NA,ACCEPT,NA,NA,NA,NA,NA,NA,NA,NA,batch3hes,batch3hes,2,7,1,Screen 1,continueButton,response_rating_scale_likert_active,3851,NA,NA,Somewhat Agree,1,0,1,0,NA,NA,NA,NA,1,statements,We would like to check you are reading each argument carefully. Please select 'Somewhat Agree' for this answer,1,NA,NA,NA,NA,NA,NA,NA,NA,NA,NA,check1,NA,NA
10,1658935670101,27/07/2022 15:27:50,1658935669922,1,27/07/2022 16:27:49,94050,2,task-ig1e,NA,23334598,6847596,NA,complete,NA,62e158e39a5f40c64449fbc4,tablet,Apple iPad,iOS 15.5,Chrome 103.0.5060.63,768x1024,1024x768,NA,ITT Ratings,3,For,3,NA,ACCEPT,NA,NA,NA,NA,NA,NA,NA,NA,batch3hes,batch3hes,15,8,1,Screen 1,continueButton,response_rating_scale_likert_active,10105,NA,NA,Strongly Agree,1,0,1,0,NA,NA,NA,NA,1,statements,There are side effects but only a very low probability of it taking place,1,17/05/2021 11:10,17/05/2021 11:23,785,A few times a year,Rarely,19,Male,-99,A levels,22,3,Against,For
11,1658935673811,27/07/2022 15:27:53,1658935673622,1,27/07/2022 16:27:53,94050,2,task-ig1e,NA,23334598,6847596,NA,complete,NA,62e158e39a5f40c64449fbc4,tablet,Apple iPad,iOS 15.5,Chrome 103.0.5060.63,768x1024,1024x768,NA,ITT Ratings,3,For,3,NA,ACCEPT,NA,NA,NA,NA,NA,NA,NA,NA,batch3hes,batch3hes,47,9,1,Screen 1,continueButton,response_rating_scale_likert_active,3673.9999999999927,NA,NA,Strongly Disagree,1,0,1,0,NA,NA,NA,NA,1,statements,"There's money in vaccines, not in natural herbal remedies.",1,17/05/2021 11:17,17/05/2021 11:26,535,Most weeks,Most weeks,29,Female,-99,A levels,28,2,Against,Against
12,1658935676397,27/07/2022 15:27:56,1658935676209,1,27/07/2022 16:27:56,94050,2,task-ig1e,NA,23334598,6847596,NA,complete,NA,62e158e39a5f40c64449fbc4,tablet,Apple iPad,iOS 15.5,Chrome 103.0.5060.63,768x1024,1024x768,NA,ITT Ratings,3,For,3,NA,ACCEPT,NA,NA,NA,NA,NA,NA,NA,NA,batch3hes,batch3hes,49,10,1,Screen 1,continueButton,response_rating_scale_likert_active,2562,NA,NA,Strongly Agree,1,0,1,0,NA,NA,NA,NA,1,statements,It's to protect myself and those around me,1,17/05/2021 11:17,17/05/2021 11:26,535,Most weeks,Most weeks,29,Female,-99,A levels,28,1,Against,For
13,1658935679466,27/07/2022 15:27:59,1658935679275,1,27/07/2022 16:27:59,94050,2,task-ig1e,NA,23334598,6847596,NA,complete,NA,62e158e39a5f40c64449fbc4,tablet,Apple iPad,iOS 15.5,Chrome 103.0.5060.63,768x1024,1024x768,NA,ITT Ratings,3,For,3,NA,ACCEPT,NA,NA,NA,NA,NA,NA,NA,NA,batch3hes,batch3hes,54,11,1,Screen 1,continueButton,response_rating_scale_likert_active,3035,NA,NA,Strongly Disagree,1,0,1,0,NA,NA,NA,NA,1,statements,it was rolled out too quick and not tested well enough,1,17/05/2021 11:19,17/05/2021 11:26,432,Once or twice a year,Most months,37,Female,-99,A levels,29,3,Against,Against
14,1658935689382,27/07/2022 15:28:09,1658935689192,1,27/07/2022 16:28:09,94050,2,task-ig1e,NA,23334598,6847596,NA,complete,NA,62e158e39a5f40c64449fbc4,tablet,Apple iPad,iOS 15.5,Chrome 103.0.5060.63,768x1024,1024x768,NA,ITT Ratings,3,For,3,NA,ACCEPT,NA,NA,NA,NA,NA,NA,NA,NA,batch3hes,batch3hes,48,12,1,Screen 1,continueButton,response_rating_scale_likert_active,9890,NA,NA,Somewhat Disagree,1,0,1,0,NA,NA,NA,NA,1,statements,"Lack of trust - non disclosure forms are filled in left, right and centre so I have lost trust in the government and hospitals",1,17/05/2021 11:17,17/05/2021 11:26,535,Most weeks,Most weeks,29,Female,-99,A levels,28,3,Against,Against
15,1658935693177,27/07/2022 15:28:13,1658935692993,1,27/07/2022 16:28:12,94050,2,task-ig1e,NA,23334598,6847596,NA,complete,NA,62e158e39a5f40c64449fbc4,tablet,Apple iPad,iOS 15.5,Chrome 103.0.5060.63,768x1024,1024x768,NA,ITT Ratings,3,For,3,NA,ACCEPT,NA,NA,NA,NA,NA,NA,NA,NA,batch3hes,batch3hes,61,13,1,Screen 1,continueButton,response_rating_scale_likert_active,3775,NA,NA,Strongly Agree,1,0,1,0,NA,NA,NA,NA,1,statements,It will help get rid of the presence of COVID in our world,1,17/05/2021 11:19,17/05/2021 11:28,553,Most months,Most months,48,Female,-99,A levels,30,1,Against,For
16,1658935709845,27/07/2022 15:28:29,1658935709660,1,27/07/2022 16:28:29,94050,2,task-ig1e,NA,23334598,6847596,NA,complete,NA,62e158e39a5f40c64449fbc4,tablet,Apple iPad,iOS 15.5,Chrome 103.0.5060.63,768x1024,1024x768,NA,ITT Ratings,3,For,3,NA,ACCEPT,NA,NA,NA,NA,NA,NA,NA,NA,batch3hes,batch3hes,26,14,1,Screen 1,continueButton,response_rating_scale_likert_active,16640,NA,NA,Strongly Agree,1,0,1,0,NA,NA,NA,NA,1,statements,I think the positives outweigh the negatives.,1,17/05/2021 10:52,17/05/2021 11:24,1936,Most weeks,Most days,64,Male,-99,No formal qualifications,24,2,Against,For
17,1658935714243,27/07/2022 15:28:34,1658935714059,1,27/07/2022 16:28:34,94050,2,task-ig1e,NA,23334598,6847596,NA,complete,NA,62e158e39a5f40c64449fbc4,tablet,Apple iPad,iOS 15.5,Chrome 103.0.5060.63,768x1024,1024x768,NA,ITT Ratings,3,For,3,NA,ACCEPT,NA,NA,NA,NA,NA,NA,NA,NA,batch3hes,batch3hes,34,15,1,Screen 1,continueButton,response_rating_scale_likert_active,4375,NA,NA,Strongly Disagree,1,0,1,0,NA,NA,NA,NA,1,statements,Not been clearly tested over a long period and still being tested hence being called clinical trials.,1,17/05/2021 11:12,17/05/2021 11:25,781,Most weeks,Most months,44,Male,-99,A levels,26,1,Against,Against
18,1658935719538,27/07/2022 15:28:39,1658935719360,1,27/07/2022 16:28:39,94050,2,task-ig1e,NA,23334598,6847596,NA,complete,NA,62e158e39a5f40c64449fbc4,tablet,Apple iPad,iOS 15.5,Chrome 103.0.5060.63,768x1024,1024x768,NA,ITT Ratings,3,For,3,NA,ACCEPT,NA,NA,NA,NA,NA,NA,NA,NA,batch3hes,batch3hes,4,16,1,Screen 1,continueButton,response_rating_scale_likert_active,5277,NA,NA,Somewhat Disagree,1,0,1,0,NA,NA,NA,NA,1,statements,I dont know the true side effects years down the line,1,17/05/2021 11:09,17/05/2021 11:22,779,Most months,Most months,45,Female,-99,GCSEs,21,1,Against,Against
19,1658935723622,27/07/2022 15:28:43,1658935723440,1,27/07/2022 16:28:43,94050,2,task-ig1e,NA,23334598,6847596,NA,complete,NA,62e158e39a5f40c64449fbc4,tablet,Apple iPad,iOS 15.5,Chrome 103.0.5060.63,768x1024,1024x768,NA,ITT Ratings,3,For,3,NA,ACCEPT,NA,NA,NA,NA,NA,NA,NA,NA,batch3hes,batch3hes,27,17,1,Screen 1,continueButton,response_rating_scale_likert_active,4056.0000000000146,NA,NA,Neither Agree nor Disagree,1,0,1,0,NA,NA,NA,NA,1,statements,Everyone else is getting it and I don't want to be left behind.,1,17/05/2021 10:52,17/05/2021 11:24,1936,Most weeks,Most days,64,Male,-99,No formal qualifications,24,3,Against,For
20,1658935726244,27/07/2022 15:28:46,1658935725977,1,27/07/2022 16:28:45,94050,2,task-ig1e,NA,23334598,6847596,NA,complete,NA,62e158e39a5f40c64449fbc4,tablet,Apple iPad,iOS 15.5,Chrome 103.0.5060.63,768x1024,1024x768,NA,ITT Ratings,3,For,3,NA,ACCEPT,NA,NA,NA,NA,NA,NA,NA,NA,batch3hes,batch3hes,25,18,1,Screen 1,continueButton,response_rating_scale_likert_active,2516,NA,NA,Strongly Agree,1,0,1,0,NA,NA,NA,NA,1,statements,I want the vaccine as soon as possible to protect myself from covid.,1,17/05/2021 10:52,17/05/2021 11:24,1936,Most weeks,Most days,64,Male,-99,No formal qualifications,24,1,Against,For
21,1658935729351,27/07/2022 15:28:49,1658935729200,1,27/07/2022 16:28:49,94050,2,task-ig1e,NA,23334598,6847596,NA,complete,NA,62e158e39a5f40c64449fbc4,tablet,Apple iPad,iOS 15.5,Chrome 103.0.5060.63,768x1024,1024x768,NA,ITT Ratings,3,For,3,NA,ACCEPT,NA,NA,NA,NA,NA,NA,NA,NA,batch3hes,batch3hes,53,19,1,Screen 1,continueButton,response_rating_scale_likert_active,3194.0000000000146,NA,NA,Disagree,1,0,1,0,NA,NA,NA,NA,1,statements,not enough time given to see the long term effects of having the vaccine,1,17/05/2021 11:19,17/05/2021 11:26,432,Once or twice a year,Most months,37,Female,-99,A levels,29,2,Against,Against
22,1658935733622,27/07/2022 15:28:53,1658935733443,1,27/07/2022 16:28:53,94050,2,task-ig1e,NA,23334598,6847596,NA,complete,NA,62e158e39a5f40c64449fbc4,tablet,Apple iPad,iOS 15.5,Chrome 103.0.5060.63,768x1024,1024x768,NA,ITT Ratings,3,For,3,NA,ACCEPT,NA,NA,NA,NA,NA,NA,NA,NA,batch3hes,batch3hes,30,20,1,Screen 1,continueButton,response_rating_scale_likert_active,4219,NA,NA,Strongly Disagree,1,0,1,0,NA,NA,NA,NA,1,statements,You can still get the virus,1,17/05/2021 11:11,17/05/2021 11:24,795,Most days,Most months,25,Female,-99,"Postgraduate degree (MSc, MA, MPhil)",25,3,Against,Against
23,1658935736007,27/07/2022 15:28:56,1658935735810,1,27/07/2022 16:28:55,94050,2,task-ig1e,NA,23334598,6847596,NA,complete,NA,62e158e39a5f40c64449fbc4,tablet,Apple iPad,iOS 15.5,Chrome 103.0.5060.63,768x1024,1024x768,NA,ITT Ratings,3,For,3,NA,ACCEPT,NA,NA,NA,NA,NA,NA,NA,NA,batch3hes,batch3hes,42,21,1,Screen 1,continueButton,response_rating_scale_likert_active,2342.9999999999854,NA,NA,Strongly Agree,1,0,1,0,NA,NA,NA,NA,1,statements,Safer for the population,1,17/05/2021 11:17,17/05/2021 11:25,451,Never,Never,28,Female,-99,A levels,27,3,Against,Against
24,1658935738424,27/07/2022 15:28:58,1658935738245,1,27/07/2022 16:28:58,94050,2,task-ig1e,NA,23334598,6847596,NA,complete,NA,62e158e39a5f40c64449fbc4,tablet,Apple iPad,iOS 15.5,Chrome 103.0.5060.63,768x1024,1024x768,NA,ITT Ratings,3,For,3,NA,ACCEPT,NA,NA,NA,NA,NA,NA,NA,NA,batch3hes,batch3hes,52,22,1,Screen 1,continueButton,response_rating_scale_likert_active,2412.0000000000146,NA,NA,Strongly Disagree,1,0,1,0,NA,NA,NA,NA,1,statements,it does not work its all a hoax,1,17/05/2021 11:19,17/05/2021 11:26,432,Once or twice a year,Most months,37,Female,-99,A levels,29,1,Against,Against
25,1658935742145,27/07/2022 15:29:02,1658935741972,1,27/07/2022 16:29:01,94050,2,task-ig1e,NA,23334598,6847596,NA,complete,NA,62e158e39a5f40c64449fbc4,tablet,Apple iPad,iOS 15.5,Chrome 103.0.5060.63,768x1024,1024x768,NA,ITT Ratings,3,For,3,NA,ACCEPT,NA,NA,NA,NA,NA,NA,NA,NA,batch3hes,batch3hes,55,23,1,Screen 1,continueButton,response_rating_scale_likert_active,3703,NA,NA,Neither Agree nor Disagree,1,0,1,0,NA,NA,NA,NA,1,statements,so I can go on holiday as we wont be able to travel without one,1,17/05/2021 11:19,17/05/2021 11:26,432,Once or twice a year,Most months,37,Female,-99,A levels,29,1,Against,For
26,1658935744382,27/07/2022 15:29:04,1658935744211,1,27/07/2022 16:29:04,94050,2,task-ig1e,NA,23334598,6847596,NA,complete,NA,62e158e39a5f40c64449fbc4,tablet,Apple iPad,iOS 15.5,Chrome 103.0.5060.63,768x1024,1024x768,NA,ITT Ratings,3,For,3,NA,ACCEPT,NA,NA,NA,NA,NA,NA,NA,NA,batch3hes,batch3hes,51,24,1,Screen 1,continueButton,response_rating_scale_likert_active,2221,NA,NA,Neither Agree nor Disagree,1,0,1,0,NA,NA,NA,NA,1,statements,Everyone else is getting one,1,17/05/2021 11:17,17/05/2021 11:26,535,Most weeks,Most weeks,29,Female,-99,A levels,28,3,Against,For
27,1658935747867,27/07/2022 15:29:07,1658935747695,1,27/07/2022 16:29:07,94050,2,task-ig1e,NA,23334598,6847596,NA,complete,NA,62e158e39a5f40c64449fbc4,tablet,Apple iPad,iOS 15.5,Chrome 103.0.5060.63,768x1024,1024x768,NA,ITT Ratings,3,For,3,NA,ACCEPT,NA,NA,NA,NA,NA,NA,NA,NA,batch3hes,batch3hes,35,25,1,Screen 1,continueButton,response_rating_scale_likert_active,3461,NA,NA,Strongly Disagree,1,0,1,0,NA,NA,NA,NA,1,statements,No proof vaccine works against current or new strains,1,17/05/2021 11:12,17/05/2021 11:25,781,Most weeks,Most months,44,Male,-99,A levels,26,2,Against,Against
28,1658935750949,27/07/2022 15:29:10,1658935750762,1,27/07/2022 16:29:10,94050,2,task-ig1e,NA,23334598,6847596,NA,complete,NA,62e158e39a5f40c64449fbc4,tablet,Apple iPad,iOS 15.5,Chrome 103.0.5060.63,768x1024,1024x768,NA,ITT Ratings,3,For,3,NA,ACCEPT,NA,NA,NA,NA,NA,NA,NA,NA,batch3hes,batch3hes,22,26,1,Screen 1,continueButton,response_rating_scale_likert_active,3040.999999999971,NA,NA,Disagree,1,0,1,0,NA,NA,NA,NA,1,statements,I am worried about possible side effects.,1,17/05/2021 10:52,17/05/2021 11:24,1936,Most weeks,Most days,64,Male,-99,No formal qualifications,24,1,Against,Against
29,1658935754939,27/07/2022 15:29:14,1658935754745,1,27/07/2022 16:29:14,94050,2,task-ig1e,NA,23334598,6847596,NA,complete,NA,62e158e39a5f40c64449fbc4,tablet,Apple iPad,iOS 15.5,Chrome 103.0.5060.63,768x1024,1024x768,NA,ITT Ratings,3,For,3,NA,ACCEPT,NA,NA,NA,NA,NA,NA,NA,NA,batch3hes,batch3hes,60,27,1,Screen 1,continueButton,response_rating_scale_likert_active,3956.000000000029,NA,NA,Strongly Disagree,1,0,1,0,NA,NA,NA,NA,1,statements,It may not completely eradicate the virus,1,17/05/2021 11:19,17/05/2021 11:28,553,Most months,Most months,48,Female,-99,A levels,30,3,Against,Against
30,1658935770519,27/07/2022 15:29:30,1658935770200,1,27/07/2022 16:29:30,94050,2,task-ig1e,NA,23334598,6847596,NA,complete,NA,62e158e39a5f40c64449fbc4,tablet,Apple iPad,iOS 15.5,Chrome 103.0.5060.63,768x1024,1024x768,NA,ITT Ratings,3,For,3,NA,ACCEPT,NA,NA,NA,NA,NA,NA,NA,NA,batch3hes,batch3hes,40,28,1,Screen 1,continueButton,response_rating_scale_likert_active,15430,NA,NA,Agree,1,0,1,0,NA,NA,NA,NA,1,statements,Produced effectively,1,17/05/2021 11:17,17/05/2021 11:25,451,Never,Never,28,Female,-99,A levels,27,1,Against,Against
31,1658935776085,27/07/2022 15:29:36,1658935775912,1,27/07/2022 16:29:35,94050,2,task-ig1e,NA,23334598,6847596,NA,complete,NA,62e158e39a5f40c64449fbc4,tablet,Apple iPad,iOS 15.5,Chrome 103.0.5060.63,768x1024,1024x768,NA,ITT Ratings,3,For,3,NA,ACCEPT,NA,NA,NA,NA,NA,NA,NA,NA,batch3hes,batch3hes,12,29,1,Screen 1,continueButton,response_rating_scale_likert_active,5688.000000000029,NA,NA,Strongly Disagree,1,0,1,0,NA,NA,NA,NA,1,statements,The rare cases and side effects that take place due to taking the vaccine,1,17/05/2021 11:10,17/05/2021 11:23,785,A few times a year,Rarely,19,Male,-99,A levels,22,3,Against,Against
32,1658935779124,27/07/2022 15:29:39,1658935778949,1,27/07/2022 16:29:38,94050,2,task-ig1e,NA,23334598,6847596,NA,complete,NA,62e158e39a5f40c64449fbc4,tablet,Apple iPad,iOS 15.5,Chrome 103.0.5060.63,768x1024,1024x768,NA,ITT Ratings,3,For,3,NA,ACCEPT,NA,NA,NA,NA,NA,NA,NA,NA,batch3hes,batch3hes,5,30,1,Screen 1,continueButton,response_rating_scale_likert_active,3011,NA,NA,Strongly Disagree,1,0,1,0,NA,NA,NA,NA,1,statements,Will it even work given the virus is changing all the time,1,17/05/2021 11:09,17/05/2021 11:22,779,Most months,Most months,45,Female,-99,GCSEs,21,2,Against,Against
33,1658935782476,27/07/2022 15:29:42,1658935782297,1,27/07/2022 16:29:42,94050,2,task-ig1e,NA,23334598,6847596,NA,complete,NA,62e158e39a5f40c64449fbc4,tablet,Apple iPad,iOS 15.5,Chrome 103.0.5060.63,768x1024,1024x768,NA,ITT Ratings,3,For,3,NA,ACCEPT,NA,NA,NA,NA,NA,NA,NA,NA,batch3hes,batch3hes,20,31,1,Screen 1,continueButton,response_rating_scale_likert_active,3324,NA,NA,Agree,1,0,1,0,NA,NA,NA,NA,1,statements,It wouldn't have been offered out if it wasn't safe,1,17/05/2021 11:20,17/05/2021 11:23,190,Most weeks,Most weeks,25,Female,-99,Vocational Training / Apprenticeship,23,2,Against,For
34,1658935787354,27/07/2022 15:29:47,1658935787176,1,27/07/2022 16:29:47,94050,2,task-ig1e,NA,23334598,6847596,NA,complete,NA,62e158e39a5f40c64449fbc4,tablet,Apple iPad,iOS 15.5,Chrome 103.0.5060.63,768x1024,1024x768,NA,ITT Ratings,3,For,3,NA,ACCEPT,NA,NA,NA,NA,NA,NA,NA,NA,batch3hes,batch3hes,58,32,1,Screen 1,continueButton,response_rating_scale_likert_active,4847,NA,NA,Strongly Disagree,1,0,1,0,NA,NA,NA,NA,1,statements,"I do not want the side effects associated with the virus, such as blood clots, to effect me",1,17/05/2021 11:19,17/05/2021 11:28,553,Most months,Most months,48,Female,-99,A levels,30,1,Against,Against
35,1658935789605,27/07/2022 15:29:49,1658935789434,1,27/07/2022 16:29:49,94050,2,task-ig1e,NA,23334598,6847596,NA,complete,NA,62e158e39a5f40c64449fbc4,tablet,Apple iPad,iOS 15.5,Chrome 103.0.5060.63,768x1024,1024x768,NA,ITT Ratings,3,For,3,NA,ACCEPT,NA,NA,NA,NA,NA,NA,NA,NA,batch3hes,batch3hes,50,33,1,Screen 1,continueButton,response_rating_scale_likert_active,2232,NA,NA,Agree,1,0,1,0,NA,NA,NA,NA,1,statements,It's a way of getting life back to normal,1,17/05/2021 11:17,17/05/2021 11:26,535,Most weeks,Most weeks,29,Female,-99,A levels,28,2,Against,For
36,1658935794577,27/07/2022 15:29:54,1658935794397,1,27/07/2022 16:29:54,94050,2,task-ig1e,NA,23334598,6847596,NA,complete,NA,62e158e39a5f40c64449fbc4,tablet,Apple iPad,iOS 15.5,Chrome 103.0.5060.63,768x1024,1024x768,NA,ITT Ratings,3,For,3,NA,ACCEPT,NA,NA,NA,NA,NA,NA,NA,NA,batch3hes,batch3hes,29,34,1,Screen 1,continueButton,response_rating_scale_likert_active,4937,NA,NA,Disagree,1,0,1,0,NA,NA,NA,NA,1,statements,"After getting the vaccine, I've heard that your arm largely swells and  aches for weeks before you can go back to normal activities",1,17/05/2021 11:11,17/05/2021 11:24,795,Most days,Most months,25,Female,-99,"Postgraduate degree (MSc, MA, MPhil)",25,2,Against,Against
37,1658935799120,27/07/2022 15:29:59,1658935798947,1,27/07/2022 16:29:58,94050,2,task-ig1e,NA,23334598,6847596,NA,complete,NA,62e158e39a5f40c64449fbc4,tablet,Apple iPad,iOS 15.5,Chrome 103.0.5060.63,768x1024,1024x768,NA,ITT Ratings,3,For,3,NA,ACCEPT,NA,NA,NA,NA,NA,NA,NA,NA,batch3hes,batch3hes,11,35,1,Screen 1,continueButton,response_rating_scale_likert_active,4525,NA,NA,Strongly Disagree,1,0,1,0,NA,NA,NA,NA,1,statements,The doctors are not to be trusted as they're only interested in increasing the daily infection rate counts.,1,17/05/2021 11:10,17/05/2021 11:23,785,A few times a year,Rarely,19,Male,-99,A levels,22,2,Against,Against
38,1658935801197,27/07/2022 15:30:01,1658935801011,1,27/07/2022 16:30:01,94050,2,task-ig1e,NA,23334598,6847596,NA,complete,NA,62e158e39a5f40c64449fbc4,tablet,Apple iPad,iOS 15.5,Chrome 103.0.5060.63,768x1024,1024x768,NA,ITT Ratings,3,For,3,NA,ACCEPT,NA,NA,NA,NA,NA,NA,NA,NA,batch3hes,batch3hes,37,36,1,Screen 1,continueButton,response_rating_scale_likert_active,2040,NA,NA,Agree,1,0,1,0,NA,NA,NA,NA,1,statements,To get back to normality,1,17/05/2021 11:12,17/05/2021 11:25,781,Most weeks,Most months,44,Male,-99,A levels,26,1,Against,For
39,1658935802932,27/07/2022 15:30:02,1658935802761,1,27/07/2022 16:30:02,94050,2,task-ig1e,NA,23334598,6847596,NA,complete,NA,62e158e39a5f40c64449fbc4,tablet,Apple iPad,iOS 15.5,Chrome 103.0.5060.63,768x1024,1024x768,NA,ITT Ratings,3,For,3,NA,ACCEPT,NA,NA,NA,NA,NA,NA,NA,NA,batch3hes,batch3hes,19,37,1,Screen 1,continueButton,response_rating_scale_likert_active,1727,NA,NA,Strongly Agree,1,0,1,0,NA,NA,NA,NA,1,statements,It is the best way to protect yourself and your loved ones,1,17/05/2021 11:20,17/05/2021 11:23,190,Most weeks,Most weeks,25,Female,-99,Vocational Training / Apprenticeship,23,1,Against,For
40,1658935805858,27/07/2022 15:30:05,1658935805679,1,27/07/2022 16:30:05,94050,2,task-ig1e,NA,23334598,6847596,NA,complete,NA,62e158e39a5f40c64449fbc4,tablet,Apple iPad,iOS 15.5,Chrome 103.0.5060.63,768x1024,1024x768,NA,ITT Ratings,3,For,3,NA,ACCEPT,NA,NA,NA,NA,NA,NA,NA,NA,batch3hes,batch3hes,3,38,1,Screen 1,continueButton,response_rating_scale_likert_active,2895.000000000029,NA,NA,Somewhat Disagree,1,0,1,0,NA,NA,NA,NA,1,statements,We would like to check you are reading each argument carefully. Please select 'Somewhat Disagree' for this answer,1,NA,NA,NA,NA,NA,NA,NA,NA,NA,NA,check2,NA,NA
41,1658935808800,27/07/2022 15:30:08,1658935808619,1,27/07/2022 16:30:08,94050,2,task-ig1e,NA,23334598,6847596,NA,complete,NA,62e158e39a5f40c64449fbc4,tablet,Apple iPad,iOS 15.5,Chrome 103.0.5060.63,768x1024,1024x768,NA,ITT Ratings,3,For,3,NA,ACCEPT,NA,NA,NA,NA,NA,NA,NA,NA,batch3hes,batch3hes,21,39,1,Screen 1,continueButton,response_rating_scale_likert_active,2919.000000000029,NA,NA,Agree,1,0,1,0,NA,NA,NA,NA,1,statements,the pro's out weigh the con's of the vaccine,1,17/05/2021 11:20,17/05/2021 11:23,190,Most weeks,Most weeks,25,Female,-99,Vocational Training / Apprenticeship,23,3,Against,For
42,1658935811983,27/07/2022 15:30:11,1658935811798,1,27/07/2022 16:30:11,94050,2,task-ig1e,NA,23334598,6847596,NA,complete,NA,62e158e39a5f40c64449fbc4,tablet,Apple iPad,iOS 15.5,Chrome 103.0.5060.63,768x1024,1024x768,NA,ITT Ratings,3,For,3,NA,ACCEPT,NA,NA,NA,NA,NA,NA,NA,NA,batch3hes,batch3hes,16,40,1,Screen 1,continueButton,response_rating_scale_likert_active,3157.000000000029,NA,NA,Disagree,1,0,1,0,NA,NA,NA,NA,1,statements,I don't trust how quickly the vaccination has been developed,1,17/05/2021 11:20,17/05/2021 11:23,190,Most weeks,Most weeks,25,Female,-99,Vocational Training / Apprenticeship,23,1,Against,Against
43,1658935815631,27/07/2022 15:30:15,1658935815448,1,27/07/2022 16:30:15,94050,2,task-ig1e,NA,23334598,6847596,NA,complete,NA,62e158e39a5f40c64449fbc4,tablet,Apple iPad,iOS 15.5,Chrome 103.0.5060.63,768x1024,1024x768,NA,ITT Ratings,3,For,3,NA,ACCEPT,NA,NA,NA,NA,NA,NA,NA,NA,batch3hes,batch3hes,18,41,1,Screen 1,continueButton,response_rating_scale_likert_active,3625,NA,NA,Strongly Agree,1,0,1,0,NA,NA,NA,NA,1,statements,There is no proof that the vaccine actually protects you or others against covid,1,17/05/2021 11:20,17/05/2021 11:23,190,Most weeks,Most weeks,25,Female,-99,Vocational Training / Apprenticeship,23,3,Against,Against
44,1658935819880,27/07/2022 15:30:19,1658935819693,1,27/07/2022 16:30:19,94050,2,task-ig1e,NA,23334598,6847596,NA,complete,NA,62e158e39a5f40c64449fbc4,tablet,Apple iPad,iOS 15.5,Chrome 103.0.5060.63,768x1024,1024x768,NA,ITT Ratings,3,For,3,NA,ACCEPT,NA,NA,NA,NA,NA,NA,NA,NA,batch3hes,batch3hes,31,42,1,Screen 1,continueButton,response_rating_scale_likert_active,4223.999999999971,NA,NA,Strongly Agree,1,0,1,0,NA,NA,NA,NA,1,statements,You're chances of getting the virus are reduced,1,17/05/2021 11:11,17/05/2021 11:24,795,Most days,Most months,25,Female,-99,"Postgraduate degree (MSc, MA, MPhil)",25,1,Against,For
45,1658935822589,27/07/2022 15:30:22,1658935822400,1,27/07/2022 16:30:22,94050,2,task-ig1e,NA,23334598,6847596,NA,complete,NA,62e158e39a5f40c64449fbc4,tablet,Apple iPad,iOS 15.5,Chrome 103.0.5060.63,768x1024,1024x768,NA,ITT Ratings,3,For,3,NA,ACCEPT,NA,NA,NA,NA,NA,NA,NA,NA,batch3hes,batch3hes,8,43,1,Screen 1,continueButton,response_rating_scale_likert_active,2688,NA,NA,Neither Agree nor Disagree,1,0,1,0,NA,NA,NA,NA,1,statements,I have to because my employer insists on it,1,17/05/2021 11:09,17/05/2021 11:22,779,Most months,Most months,45,Female,-99,GCSEs,21,2,Against,For
46,1658935826994,27/07/2022 15:30:26,1658935826815,1,27/07/2022 16:30:26,94050,2,task-ig1e,NA,23334598,6847596,NA,complete,NA,62e158e39a5f40c64449fbc4,tablet,Apple iPad,iOS 15.5,Chrome 103.0.5060.63,768x1024,1024x768,NA,ITT Ratings,3,For,3,NA,ACCEPT,NA,NA,NA,NA,NA,NA,NA,NA,batch3hes,batch3hes,59,44,1,Screen 1,continueButton,response_rating_scale_likert_active,4391.999999999971,NA,NA,Strongly Disagree,1,0,1,0,NA,NA,NA,NA,1,statements,"I do not trust how quickly the vaccine has been processed, neither who has made them",1,17/05/2021 11:19,17/05/2021 11:28,553,Most months,Most months,48,Female,-99,A levels,30,2,Against,Against
47,1658935830205,27/07/2022 15:30:30,1658935830015,1,27/07/2022 16:30:30,94050,2,task-ig1e,NA,23334598,6847596,NA,complete,NA,62e158e39a5f40c64449fbc4,tablet,Apple iPad,iOS 15.5,Chrome 103.0.5060.63,768x1024,1024x768,NA,ITT Ratings,3,For,3,NA,ACCEPT,NA,NA,NA,NA,NA,NA,NA,NA,batch3hes,batch3hes,14,45,1,Screen 1,continueButton,response_rating_scale_likert_active,3174,NA,NA,Agree,1,0,1,0,NA,NA,NA,NA,1,statements,The NHS put their lives on the line for the peoples safety.,1,17/05/2021 11:10,17/05/2021 11:23,785,A few times a year,Rarely,19,Male,-99,A levels,22,2,Against,For
48,1658935834903,27/07/2022 15:30:34,1658935834733,1,27/07/2022 16:30:34,94050,2,task-ig1e,NA,23334598,6847596,NA,complete,NA,62e158e39a5f40c64449fbc4,tablet,Apple iPad,iOS 15.5,Chrome 103.0.5060.63,768x1024,1024x768,NA,ITT Ratings,3,For,3,NA,ACCEPT,NA,NA,NA,NA,NA,NA,NA,NA,batch3hes,batch3hes,46,46,1,Screen 1,continueButton,response_rating_scale_likert_active,4691.999999999971,NA,NA,Strongly Disagree,1,0,1,0,NA,NA,NA,NA,1,statements,Produced too quickly when they've had years to develop a cure for other diseases and failed,1,17/05/2021 11:17,17/05/2021 11:26,535,Most weeks,Most weeks,29,Female,-99,A levels,28,1,Against,Against
49,1658935840824,27/07/2022 15:30:40,1658935840650,1,27/07/2022 16:30:40,94050,2,task-ig1e,NA,23334598,6847596,NA,complete,NA,62e158e39a5f40c64449fbc4,tablet,Apple iPad,iOS 15.5,Chrome 103.0.5060.63,768x1024,1024x768,NA,ITT Ratings,3,For,3,NA,ACCEPT,NA,NA,NA,NA,NA,NA,NA,NA,batch3hes,batch3hes,38,47,1,Screen 1,continueButton,response_rating_scale_likert_active,5893.999999999971,NA,NA,Agree,1,0,1,0,NA,NA,NA,NA,1,statements,Don't want to get sick of covid,1,17/05/2021 11:12,17/05/2021 11:25,781,Most weeks,Most months,44,Male,-99,A levels,26,2,Against,For
50,1658935844896,27/07/2022 15:30:44,1658935844735,1,27/07/2022 16:30:44,94050,2,task-ig1e,NA,23334598,6847596,NA,complete,NA,62e158e39a5f40c64449fbc4,tablet,Apple iPad,iOS 15.5,Chrome 103.0.5060.63,768x1024,1024x768,NA,ITT Ratings,3,For,3,NA,ACCEPT,NA,NA,NA,NA,NA,NA,NA,NA,batch3hes,batch3hes,13,48,1,Screen 1,continueButton,response_rating_scale_likert_active,4060,NA,NA,Agree,1,0,1,0,NA,NA,NA,NA,1,statements,That its a necessity for the virus to be eradicated for good and it's the only way out of this pandemic.,1,17/05/2021 11:10,17/05/2021 11:23,785,A few times a year,Rarely,19,Male,-99,A levels,22,1,Against,For
51,1658935847781,27/07/2022 15:30:47,1658935847617,1,27/07/2022 16:30:47,94050,2,task-ig1e,NA,23334598,6847596,NA,complete,NA,62e158e39a5f40c64449fbc4,tablet,Apple iPad,iOS 15.5,Chrome 103.0.5060.63,768x1024,1024x768,NA,ITT Ratings,3,For,3,NA,ACCEPT,NA,NA,NA,NA,NA,NA,NA,NA,batch3hes,batch3hes,32,49,1,Screen 1,continueButton,response_rating_scale_likert_active,2858,NA,NA,Neither Agree nor Disagree,1,0,1,0,NA,NA,NA,NA,1,statements,You apparently don't have to wear a mask,1,17/05/2021 11:11,17/05/2021 11:24,795,Most days,Most months,25,Female,-99,"Postgraduate degree (MSc, MA, MPhil)",25,2,Against,For
52,1658935851866,27/07/2022 15:30:51,1658935851683,1,27/07/2022 16:30:51,94050,2,task-ig1e,NA,23334598,6847596,NA,complete,NA,62e158e39a5f40c64449fbc4,tablet,Apple iPad,iOS 15.5,Chrome 103.0.5060.63,768x1024,1024x768,NA,ITT Ratings,3,For,3,NA,ACCEPT,NA,NA,NA,NA,NA,NA,NA,NA,batch3hes,batch3hes,10,50,1,Screen 1,continueButton,response_rating_scale_likert_active,4042,NA,NA,Strongly Disagree,1,0,1,0,NA,NA,NA,NA,1,statements,It's not safe. Because of the viral videos of people passing out and the conspiracy theories of trolls on the internet instigating doubts.,1,17/05/2021 11:10,17/05/2021 11:23,785,A few times a year,Rarely,19,Male,-99,A levels,22,1,Against,Against
53,1658935853701,27/07/2022 15:30:53,1658935853532,1,27/07/2022 16:30:53,94050,2,task-ig1e,NA,23334598,6847596,NA,complete,NA,62e158e39a5f40c64449fbc4,tablet,Apple iPad,iOS 15.5,Chrome 103.0.5060.63,768x1024,1024x768,NA,ITT Ratings,3,For,3,NA,ACCEPT,NA,NA,NA,NA,NA,NA,NA,NA,batch3hes,batch3hes,62,51,1,Screen 1,continueButton,response_rating_scale_likert_active,1828,NA,NA,Strongly Agree,1,0,1,0,NA,NA,NA,NA,1,statements,It protects us and other people,1,17/05/2021 11:19,17/05/2021 11:28,553,Most months,Most months,48,Female,-99,A levels,30,2,Against,For
54,1658935856386,27/07/2022 15:30:56,1658935856199,1,27/07/2022 16:30:56,94050,2,task-ig1e,NA,23334598,6847596,NA,complete,NA,62e158e39a5f40c64449fbc4,tablet,Apple iPad,iOS 15.5,Chrome 103.0.5060.63,768x1024,1024x768,NA,ITT Ratings,3,For,3,NA,ACCEPT,NA,NA,NA,NA,NA,NA,NA,NA,batch3hes,batch3hes,44,52,1,Screen 1,continueButton,response_rating_scale_likert_active,2645.999999999971,NA,NA,Neither Agree nor Disagree,1,0,1,0,NA,NA,NA,NA,1,statements,Plenty of case studies,1,17/05/2021 11:17,17/05/2021 11:25,451,Never,Never,28,Female,-99,A levels,27,2,Against,For
55,1658935861614,27/07/2022 15:31:01,1658935861434,1,27/07/2022 16:31:01,94050,2,task-ig1e,NA,23334598,6847596,NA,complete,NA,62e158e39a5f40c64449fbc4,tablet,Apple iPad,iOS 15.5,Chrome 103.0.5060.63,768x1024,1024x768,NA,ITT Ratings,3,For,3,NA,ACCEPT,NA,NA,NA,NA,NA,NA,NA,NA,batch3hes,batch3hes,45,53,1,Screen 1,continueButton,response_rating_scale_likert_active,5208.000000000029,NA,NA,Agree,1,0,1,0,NA,NA,NA,NA,1,statements,Non profit vaccination,1,17/05/2021 11:17,17/05/2021 11:25,451,Never,Never,28,Female,-99,A levels,27,3,Against,For
56,1658935867598,27/07/2022 15:31:07,1658935867417,1,27/07/2022 16:31:07,94050,2,task-ig1e,NA,23334598,6847596,NA,complete,NA,62e158e39a5f40c64449fbc4,tablet,Apple iPad,iOS 15.5,Chrome 103.0.5060.63,768x1024,1024x768,NA,ITT Ratings,3,For,3,NA,ACCEPT,NA,NA,NA,NA,NA,NA,NA,NA,batch3hes,batch3hes,36,54,1,Screen 1,continueButton,response_rating_scale_likert_active,5958.000000000029,NA,NA,Somewhat Disagree,1,0,1,0,NA,NA,NA,NA,1,statements,Being pushed by government and they can't be trusted as gone against expert advice in the past,1,17/05/2021 11:12,17/05/2021 11:25,781,Most weeks,Most months,44,Male,-99,A levels,26,3,Against,Against
57,1658935869630,27/07/2022 15:31:09,1658935869470,1,27/07/2022 16:31:09,94050,2,task-ig1e,NA,23334598,6847596,NA,complete,NA,62e158e39a5f40c64449fbc4,tablet,Apple iPad,iOS 15.5,Chrome 103.0.5060.63,768x1024,1024x768,NA,ITT Ratings,3,For,3,NA,ACCEPT,NA,NA,NA,NA,NA,NA,NA,NA,batch3hes,batch3hes,57,55,1,Screen 1,continueButton,response_rating_scale_likert_active,2032.000000000029,NA,NA,Strongly Agree,1,0,1,0,NA,NA,NA,NA,1,statements,to protect the elderly and vulnerable,1,17/05/2021 11:19,17/05/2021 11:26,432,Once or twice a year,Most months,37,Female,-99,A levels,29,3,Against,For
58,1658935873024,27/07/2022 15:31:13,1658935872849,1,27/07/2022 16:31:12,94050,2,task-ig1e,NA,23334598,6847596,NA,complete,NA,62e158e39a5f40c64449fbc4,tablet,Apple iPad,iOS 15.5,Chrome 103.0.5060.63,768x1024,1024x768,NA,ITT Ratings,3,For,3,NA,ACCEPT,NA,NA,NA,NA,NA,NA,NA,NA,batch3hes,batch3hes,9,56,1,Screen 1,continueButton,response_rating_scale_likert_active,3356,NA,NA,Neither Agree nor Disagree,1,0,1,0,NA,NA,NA,NA,1,statements,I work in the NHS or health sector,1,17/05/2021 11:09,17/05/2021 11:22,779,Most months,Most months,45,Female,-99,GCSEs,21,3,Against,For
59,1658935876476,27/07/2022 15:31:16,1658935876315,1,27/07/2022 16:31:16,94050,2,task-ig1e,NA,23334598,6847596,NA,complete,NA,62e158e39a5f40c64449fbc4,tablet,Apple iPad,iOS 15.5,Chrome 103.0.5060.63,768x1024,1024x768,NA,ITT Ratings,3,For,3,NA,ACCEPT,NA,NA,NA,NA,NA,NA,NA,NA,batch3hes,batch3hes,7,57,1,Screen 1,continueButton,response_rating_scale_likert_active,3442,NA,NA,Agree,1,0,1,0,NA,NA,NA,NA,1,statements,I  have elderly family which I want to protect,1,17/05/2021 11:09,17/05/2021 11:22,779,Most months,Most months,45,Female,-99,GCSEs,21,1,Against,For
60,1658935882914,27/07/2022 15:31:22,1658935882701,1,27/07/2022 16:31:22,94050,2,task-ig1e,NA,23334598,6847596,NA,complete,NA,62e158e39a5f40c64449fbc4,tablet,Apple iPad,iOS 15.5,Chrome 103.0.5060.63,768x1024,1024x768,NA,ITT Ratings,3,For,3,NA,ACCEPT,NA,NA,NA,NA,NA,NA,NA,NA,batch3hes,batch3hes,6,58,1,Screen 1,continueButton,response_rating_scale_likert_active,6366,NA,NA,Strongly Disagree,1,0,1,0,NA,NA,NA,NA,1,statements,Im confused into whether to receive it or not,1,17/05/2021 11:09,17/05/2021 11:22,779,Most months,Most months,45,Female,-99,GCSEs,21,3,Against,Against
61,1658935886216,27/07/2022 15:31:26,1658935886032,1,27/07/2022 16:31:26,94050,2,task-ig1e,NA,23334598,6847596,NA,complete,NA,62e158e39a5f40c64449fbc4,tablet,Apple iPad,iOS 15.5,Chrome 103.0.5060.63,768x1024,1024x768,NA,ITT Ratings,3,For,3,NA,ACCEPT,NA,NA,NA,NA,NA,NA,NA,NA,batch3hes,batch3hes,63,59,1,Screen 1,continueButton,response_rating_scale_likert_active,3307.000000000058,NA,NA,Agree,1,0,1,0,NA,NA,NA,NA,1,statements,"Vaccines in the past have proved successful, such as the influenza vaccine",1,17/05/2021 11:19,17/05/2021 11:28,553,Most months,Most months,48,Female,-99,A levels,30,3,Against,For
62,1658935889898,27/07/2022 15:31:29,1658935889719,1,27/07/2022 16:31:29,94050,2,task-ig1e,NA,23334598,6847596,NA,complete,NA,62e158e39a5f40c64449fbc4,tablet,Apple iPad,iOS 15.5,Chrome 103.0.5060.63,768x1024,1024x768,NA,ITT Ratings,3,For,3,NA,ACCEPT,NA,NA,NA,NA,NA,NA,NA,NA,batch3hes,batch3hes,28,60,1,Screen 1,continueButton,response_rating_scale_likert_active,3666,NA,NA,Neither Agree nor Disagree,1,0,1,0,NA,NA,NA,NA,1,statements,There's still a chance of getting a blood clot and dying,1,17/05/2021 11:11,17/05/2021 11:24,795,Most days,Most months,25,Female,-99,"Postgraduate degree (MSc, MA, MPhil)",25,1,Against,Against
63,1658935893152,27/07/2022 15:31:33,1658935892983,1,27/07/2022 16:31:32,94050,2,task-ig1e,NA,23334598,6847596,NA,complete,NA,62e158e39a5f40c64449fbc4,tablet,Apple iPad,iOS 15.5,Chrome 103.0.5060.63,768x1024,1024x768,NA,ITT Ratings,3,For,3,NA,ACCEPT,NA,NA,NA,NA,NA,NA,NA,NA,batch3hes,batch3hes,24,61,1,Screen 1,continueButton,response_rating_scale_likert_active,3245.000000000058,NA,NA,Neither Agree nor Disagree,1,0,1,0,NA,NA,NA,NA,1,statements,I don't have enough information on the possible long term effects of the vaccine.,1,17/05/2021 10:52,17/05/2021 11:24,1936,Most weeks,Most days,64,Male,-99,No formal qualifications,24,3,Against,Against
64,1658935896338,27/07/2022 15:31:36,1658935895970,1,27/07/2022 16:31:35,94050,2,task-ig1e,NA,23334598,6847596,NA,complete,NA,62e158e39a5f40c64449fbc4,tablet,Apple iPad,iOS 15.5,Chrome 103.0.5060.63,768x1024,1024x768,NA,ITT Ratings,3,For,3,NA,ACCEPT,NA,NA,NA,NA,NA,NA,NA,NA,batch3hes,batch3hes,41,62,1,Screen 1,continueButton,response_rating_scale_likert_active,2965,NA,NA,Agree,1,0,1,0,NA,NA,NA,NA,1,statements,Plenty of research been done,1,17/05/2021 11:17,17/05/2021 11:25,451,Never,Never,28,Female,-99,A levels,27,2,Against,Against
65,1658935896495,27/07/2022 15:31:36,1658935895977,1,27/07/2022 16:31:35,94050,2,task-ig1e,NA,23334598,6847596,NA,complete,NA,62e158e39a5f40c64449fbc4,tablet,Apple iPad,iOS 15.5,Chrome 103.0.5060.63,768x1024,1024x768,NA,ITT Ratings,3,For,3,NA,ACCEPT,NA,NA,NA,NA,NA,NA,NA,NA,batch3hes,NA,NA,END TASK,NA,NA,NA,NA,289578,NA,NA,NA,NA,0,1,0,NA,NA,NA,NA,NA,NA,NA,NA,NA,NA,NA,NA,NA,NA,NA,NA,NA,NA,NA,NA,NA
1,1658935724314,27/07/2022 15:28:44,1658935724241,1,27/07/2022 16:28:44,94050,2,task-ig1e,NA,23334662,6847610,NA,complete,NA,62e1596aeac2f7e73f7a59fe,mobile,Apple iPhone,iOS 15.2.1,Mobile Safari 15.2,390x844,750x307,NA,ITT Ratings,3,For,3,NA,ACCEPT,NA,NA,NA,NA,NA,NA,NA,NA,batch3hes,NA,NA,BEGIN TASK,NA,NA,NA,NA,NA,NA,NA,NA,NA,0,1,0,NA,NA,NA,NA,NA,NA,NA,NA,NA,NA,NA,NA,NA,NA,NA,NA,NA,NA,NA,NA,NA
2,1658935731296,27/07/2022 15:28:51,1658935731259,1,27/07/2022 16:28:51,94050,2,task-ig1e,NA,23334662,6847610,NA,complete,NA,62e1596aeac2f7e73f7a59fe,mobile,Apple iPhone,iOS 15.2.1,Mobile Safari 15.2,390x844,750x307,NA,ITT Ratings,3,For,3,NA,ACCEPT,NA,NA,NA,NA,NA,NA,NA,NA,batch3hes,batch3hes,1,1,1,Screen 1,advancementZone,continue_button,6978,NA,NA,NA,NA,0,1,0,NA,NA,NA,NA,NA,instructions,NA,NA,NA,NA,NA,NA,NA,NA,NA,NA,NA,NA,NA,NA,NA
3,1658935745879,27/07/2022 15:29:05,1658935745828,1,27/07/2022 16:29:05,94050,2,task-ig1e,NA,23334662,6847610,NA,complete,NA,62e1596aeac2f7e73f7a59fe,mobile,Apple iPhone,iOS 15.2.1,Mobile Safari 15.2,390x844,750x307,NA,ITT Ratings,3,For,3,NA,ACCEPT,NA,NA,NA,NA,NA,NA,NA,NA,batch3hes,batch3hes,38,1,1,Screen 1,continueButton,response_rating_scale_likert_active,14547,NA,NA,Neither Agree nor Disagree,1,0,1,0,NA,NA,NA,NA,1,statements,Don't want to get sick of covid,1,17/05/2021 11:12,17/05/2021 11:25,781,Most weeks,Most months,44,Male,-99,A levels,26,2,Against,For
4,1658935752703,27/07/2022 15:29:12,1658935752679,1,27/07/2022 16:29:12,94050,2,task-ig1e,NA,23334662,6847610,NA,complete,NA,62e1596aeac2f7e73f7a59fe,mobile,Apple iPhone,iOS 15.2.1,Mobile Safari 15.2,390x844,750x307,NA,ITT Ratings,3,For,3,NA,ACCEPT,NA,NA,NA,NA,NA,NA,NA,NA,batch3hes,batch3hes,21,2,1,Screen 1,continueButton,response_rating_scale_likert_active,6830,NA,NA,Strongly Agree,1,0,1,0,NA,NA,NA,NA,1,statements,the pro's out weigh the con's of the vaccine,1,17/05/2021 11:20,17/05/2021 11:23,190,Most weeks,Most weeks,25,Female,-99,Vocational Training / Apprenticeship,23,3,Against,For
5,1658935758717,27/07/2022 15:29:18,1658935758690,1,27/07/2022 16:29:18,94050,2,task-ig1e,NA,23334662,6847610,NA,complete,NA,62e1596aeac2f7e73f7a59fe,mobile,Apple iPhone,iOS 15.2.1,Mobile Safari 15.2,390x844,750x307,NA,ITT Ratings,3,For,3,NA,ACCEPT,NA,NA,NA,NA,NA,NA,NA,NA,batch3hes,batch3hes,34,3,1,Screen 1,continueButton,response_rating_scale_likert_active,5988,NA,NA,Disagree,1,0,1,0,NA,NA,NA,NA,1,statements,Not been clearly tested over a long period and still being tested hence being called clinical trials.,1,17/05/2021 11:12,17/05/2021 11:25,781,Most weeks,Most months,44,Male,-99,A levels,26,1,Against,Against
6,1658935762418,27/07/2022 15:29:22,1658935762399,1,27/07/2022 16:29:22,94050,2,task-ig1e,NA,23334662,6847610,NA,complete,NA,62e1596aeac2f7e73f7a59fe,mobile,Apple iPhone,iOS 15.2.1,Mobile Safari 15.2,390x844,750x307,NA,ITT Ratings,3,For,3,NA,ACCEPT,NA,NA,NA,NA,NA,NA,NA,NA,batch3hes,batch3hes,14,4,1,Screen 1,continueButton,response_rating_scale_likert_active,3688,NA,NA,Strongly Agree,1,0,1,0,NA,NA,NA,NA,1,statements,The NHS put their lives on the line for the peoples safety.,1,17/05/2021 11:10,17/05/2021 11:23,785,A few times a year,Rarely,19,Male,-99,A levels,22,2,Against,For
7,1658935764972,27/07/2022 15:29:24,1658935764938,1,27/07/2022 16:29:24,94050,2,task-ig1e,NA,23334662,6847610,NA,complete,NA,62e1596aeac2f7e73f7a59fe,mobile,Apple iPhone,iOS 15.2.1,Mobile Safari 15.2,390x844,750x307,NA,ITT Ratings,3,For,3,NA,ACCEPT,NA,NA,NA,NA,NA,NA,NA,NA,batch3hes,batch3hes,6,5,1,Screen 1,continueButton,response_rating_scale_likert_active,2519.9999999999927,NA,NA,Disagree,1,0,1,0,NA,NA,NA,NA,1,statements,Im confused into whether to receive it or not,1,17/05/2021 11:09,17/05/2021 11:22,779,Most months,Most months,45,Female,-99,GCSEs,21,3,Against,Against
8,1658935770423,27/07/2022 15:29:30,1658935770401,1,27/07/2022 16:29:30,94050,2,task-ig1e,NA,23334662,6847610,NA,complete,NA,62e1596aeac2f7e73f7a59fe,mobile,Apple iPhone,iOS 15.2.1,Mobile Safari 15.2,390x844,750x307,NA,ITT Ratings,3,For,3,NA,ACCEPT,NA,NA,NA,NA,NA,NA,NA,NA,batch3hes,batch3hes,58,6,1,Screen 1,continueButton,response_rating_scale_likert_active,5439,NA,NA,Somewhat Disagree,1,0,1,0,NA,NA,NA,NA,1,statements,"I do not want the side effects associated with the virus, such as blood clots, to effect me",1,17/05/2021 11:19,17/05/2021 11:28,553,Most months,Most months,48,Female,-99,A levels,30,1,Against,Against
9,1658935775758,27/07/2022 15:29:35,1658935775731,1,27/07/2022 16:29:35,94050,2,task-ig1e,NA,23334662,6847610,NA,complete,NA,62e1596aeac2f7e73f7a59fe,mobile,Apple iPhone,iOS 15.2.1,Mobile Safari 15.2,390x844,750x307,NA,ITT Ratings,3,For,3,NA,ACCEPT,NA,NA,NA,NA,NA,NA,NA,NA,batch3hes,batch3hes,24,7,1,Screen 1,continueButton,response_rating_scale_likert_active,5308,NA,NA,Disagree,1,0,1,0,NA,NA,NA,NA,1,statements,I don't have enough information on the possible long term effects of the vaccine.,1,17/05/2021 10:52,17/05/2021 11:24,1936,Most weeks,Most days,64,Male,-99,No formal qualifications,24,3,Against,Against
10,1658935782527,27/07/2022 15:29:42,1658935782498,1,27/07/2022 16:29:42,94050,2,task-ig1e,NA,23334662,6847610,NA,complete,NA,62e1596aeac2f7e73f7a59fe,mobile,Apple iPhone,iOS 15.2.1,Mobile Safari 15.2,390x844,750x307,NA,ITT Ratings,3,For,3,NA,ACCEPT,NA,NA,NA,NA,NA,NA,NA,NA,batch3hes,batch3hes,10,8,1,Screen 1,continueButton,response_rating_scale_likert_active,6744.000000000007,NA,NA,Strongly Disagree,1,0,1,0,NA,NA,NA,NA,1,statements,It's not safe. Because of the viral videos of people passing out and the conspiracy theories of trolls on the internet instigating doubts.,1,17/05/2021 11:10,17/05/2021 11:23,785,A few times a year,Rarely,19,Male,-99,A levels,22,1,Against,Against
11,1658935787176,27/07/2022 15:29:47,1658935787156,1,27/07/2022 16:29:47,94050,2,task-ig1e,NA,23334662,6847610,NA,complete,NA,62e1596aeac2f7e73f7a59fe,mobile,Apple iPhone,iOS 15.2.1,Mobile Safari 15.2,390x844,750x307,NA,ITT Ratings,3,For,3,NA,ACCEPT,NA,NA,NA,NA,NA,NA,NA,NA,batch3hes,batch3hes,43,9,1,Screen 1,continueButton,response_rating_scale_likert_active,4637,NA,NA,Strongly Agree,1,0,1,0,NA,NA,NA,NA,1,statements,Produced quickly and effectively,1,17/05/2021 11:17,17/05/2021 11:25,451,Never,Never,28,Female,-99,A levels,27,1,Against,For
12,1658935790437,27/07/2022 15:29:50,1658935790418,1,27/07/2022 16:29:50,94050,2,task-ig1e,NA,23334662,6847610,NA,complete,NA,62e1596aeac2f7e73f7a59fe,mobile,Apple iPhone,iOS 15.2.1,Mobile Safari 15.2,390x844,750x307,NA,ITT Ratings,3,For,3,NA,ACCEPT,NA,NA,NA,NA,NA,NA,NA,NA,batch3hes,batch3hes,33,10,1,Screen 1,continueButton,response_rating_scale_likert_active,3242,NA,NA,Strongly Agree,1,0,1,0,NA,NA,NA,NA,1,statements,You can travel to countries without quarantine period,1,17/05/2021 11:11,17/05/2021 11:24,795,Most days,Most months,25,Female,-99,"Postgraduate degree (MSc, MA, MPhil)",25,3,Against,For
13,1658935795734,27/07/2022 15:29:55,1658935795714,1,27/07/2022 16:29:55,94050,2,task-ig1e,NA,23334662,6847610,NA,complete,NA,62e1596aeac2f7e73f7a59fe,mobile,Apple iPhone,iOS 15.2.1,Mobile Safari 15.2,390x844,750x307,NA,ITT Ratings,3,For,3,NA,ACCEPT,NA,NA,NA,NA,NA,NA,NA,NA,batch3hes,batch3hes,55,11,1,Screen 1,continueButton,response_rating_scale_likert_active,5274,NA,NA,Somewhat Agree,1,0,1,0,NA,NA,NA,NA,1,statements,so I can go on holiday as we wont be able to travel without one,1,17/05/2021 11:19,17/05/2021 11:26,432,Once or twice a year,Most months,37,Female,-99,A levels,29,1,Against,For
14,1658935800642,27/07/2022 15:30:00,1658935800558,1,27/07/2022 16:30:00,94050,2,task-ig1e,NA,23334662,6847610,NA,complete,NA,62e1596aeac2f7e73f7a59fe,mobile,Apple iPhone,iOS 15.2.1,Mobile Safari 15.2,390x844,750x307,NA,ITT Ratings,3,For,3,NA,ACCEPT,NA,NA,NA,NA,NA,NA,NA,NA,batch3hes,batch3hes,13,12,1,Screen 1,continueButton,response_rating_scale_likert_active,4823,NA,NA,Strongly Agree,1,0,1,0,NA,NA,NA,NA,1,statements,That its a necessity for the virus to be eradicated for good and it's the only way out of this pandemic.,1,17/05/2021 11:10,17/05/2021 11:23,785,A few times a year,Rarely,19,Male,-99,A levels,22,1,Against,For
15,1658935801955,27/07/2022 15:30:01,1658935801930,1,27/07/2022 16:30:01,94050,2,task-ig1e,NA,23334662,6847610,NA,complete,NA,62e1596aeac2f7e73f7a59fe,mobile,Apple iPhone,iOS 15.2.1,Mobile Safari 15.2,390x844,750x307,NA,ITT Ratings,3,For,3,NA,ACCEPT,NA,NA,NA,NA,NA,NA,NA,NA,batch3hes,batch3hes,42,13,1,Screen 1,continueButton,response_rating_scale_likert_active,1350,NA,NA,Strongly Agree,1,0,1,0,NA,NA,NA,NA,1,statements,Safer for the population,1,17/05/2021 11:17,17/05/2021 11:25,451,Never,Never,28,Female,-99,A levels,27,3,Against,Against
16,1658935804774,27/07/2022 15:30:04,1658935804752,1,27/07/2022 16:30:04,94050,2,task-ig1e,NA,23334662,6847610,NA,complete,NA,62e1596aeac2f7e73f7a59fe,mobile,Apple iPhone,iOS 15.2.1,Mobile Safari 15.2,390x844,750x307,NA,ITT Ratings,3,For,3,NA,ACCEPT,NA,NA,NA,NA,NA,NA,NA,NA,batch3hes,batch3hes,7,14,1,Screen 1,continueButton,response_rating_scale_likert_active,2803,NA,NA,Neither Agree nor Disagree,1,0,1,0,NA,NA,NA,NA,1,statements,I  have elderly family which I want to protect,1,17/05/2021 11:09,17/05/2021 11:22,779,Most months,Most months,45,Female,-99,GCSEs,21,1,Against,For
17,1658935809952,27/07/2022 15:30:09,1658935809930,1,27/07/2022 16:30:09,94050,2,task-ig1e,NA,23334662,6847610,NA,complete,NA,62e1596aeac2f7e73f7a59fe,mobile,Apple iPhone,iOS 15.2.1,Mobile Safari 15.2,390x844,750x307,NA,ITT Ratings,3,For,3,NA,ACCEPT,NA,NA,NA,NA,NA,NA,NA,NA,batch3hes,batch3hes,45,15,1,Screen 1,continueButton,response_rating_scale_likert_active,5157,NA,NA,Disagree,1,0,1,0,NA,NA,NA,NA,1,statements,Non profit vaccination,1,17/05/2021 11:17,17/05/2021 11:25,451,Never,Never,28,Female,-99,A levels,27,3,Against,For
18,1658935818171,27/07/2022 15:30:18,1658935818150,1,27/07/2022 16:30:18,94050,2,task-ig1e,NA,23334662,6847610,NA,complete,NA,62e1596aeac2f7e73f7a59fe,mobile,Apple iPhone,iOS 15.2.1,Mobile Safari 15.2,390x844,750x307,NA,ITT Ratings,3,For,3,NA,ACCEPT,NA,NA,NA,NA,NA,NA,NA,NA,batch3hes,batch3hes,47,16,1,Screen 1,continueButton,response_rating_scale_likert_active,8198,NA,NA,Somewhat Agree,1,0,1,0,NA,NA,NA,NA,1,statements,"There's money in vaccines, not in natural herbal remedies.",1,17/05/2021 11:17,17/05/2021 11:26,535,Most weeks,Most weeks,29,Female,-99,A levels,28,2,Against,Against
19,1658935822349,27/07/2022 15:30:22,1658935822322,1,27/07/2022 16:30:22,94050,2,task-ig1e,NA,23334662,6847610,NA,complete,NA,62e1596aeac2f7e73f7a59fe,mobile,Apple iPhone,iOS 15.2.1,Mobile Safari 15.2,390x844,750x307,NA,ITT Ratings,3,For,3,NA,ACCEPT,NA,NA,NA,NA,NA,NA,NA,NA,batch3hes,batch3hes,17,17,1,Screen 1,continueButton,response_rating_scale_likert_active,4150.000000000015,NA,NA,Disagree,1,0,1,0,NA,NA,NA,NA,1,statements,I'm anxious about the long and short term side effects from having the vaccine,1,17/05/2021 11:20,17/05/2021 11:23,190,Most weeks,Most weeks,25,Female,-99,Vocational Training / Apprenticeship,23,2,Against,Against
20,1658935825784,27/07/2022 15:30:25,1658935825766,1,27/07/2022 16:30:25,94050,2,task-ig1e,NA,23334662,6847610,NA,complete,NA,62e1596aeac2f7e73f7a59fe,mobile,Apple iPhone,iOS 15.2.1,Mobile Safari 15.2,390x844,750x307,NA,ITT Ratings,3,For,3,NA,ACCEPT,NA,NA,NA,NA,NA,NA,NA,NA,batch3hes,batch3hes,63,18,1,Screen 1,continueButton,response_rating_scale_likert_active,3423,NA,NA,Strongly Agree,1,0,1,0,NA,NA,NA,NA,1,statements,"Vaccines in the past have proved successful, such as the influenza vaccine",1,17/05/2021 11:19,17/05/2021 11:28,553,Most months,Most months,48,Female,-99,A levels,30,3,Against,For
21,1658935828057,27/07/2022 15:30:28,1658935828036,1,27/07/2022 16:30:28,94050,2,task-ig1e,NA,23334662,6847610,NA,complete,NA,62e1596aeac2f7e73f7a59fe,mobile,Apple iPhone,iOS 15.2.1,Mobile Safari 15.2,390x844,750x307,NA,ITT Ratings,3,For,3,NA,ACCEPT,NA,NA,NA,NA,NA,NA,NA,NA,batch3hes,batch3hes,39,19,1,Screen 1,continueButton,response_rating_scale_likert_active,2248,NA,NA,Agree,1,0,1,0,NA,NA,NA,NA,1,statements,Everyone else is having the vaccine,1,17/05/2021 11:12,17/05/2021 11:25,781,Most weeks,Most months,44,Male,-99,A levels,26,3,Against,For
22,1658935835381,27/07/2022 15:30:35,1658935835355,1,27/07/2022 16:30:35,94050,2,task-ig1e,NA,23334662,6847610,NA,complete,NA,62e1596aeac2f7e73f7a59fe,mobile,Apple iPhone,iOS 15.2.1,Mobile Safari 15.2,390x844,750x307,NA,ITT Ratings,3,For,3,NA,ACCEPT,NA,NA,NA,NA,NA,NA,NA,NA,batch3hes,batch3hes,56,20,1,Screen 1,continueButton,response_rating_scale_likert_active,7300,NA,NA,Somewhat Agree,1,0,1,0,NA,NA,NA,NA,1,statements,in case employers say you have to be vaccinated to work,1,17/05/2021 11:19,17/05/2021 11:26,432,Once or twice a year,Most months,37,Female,-99,A levels,29,2,Against,For
23,1658935837135,27/07/2022 15:30:37,1658935837110,1,27/07/2022 16:30:37,94050,2,task-ig1e,NA,23334662,6847610,NA,complete,NA,62e1596aeac2f7e73f7a59fe,mobile,Apple iPhone,iOS 15.2.1,Mobile Safari 15.2,390x844,750x307,NA,ITT Ratings,3,For,3,NA,ACCEPT,NA,NA,NA,NA,NA,NA,NA,NA,batch3hes,batch3hes,57,21,1,Screen 1,continueButton,response_rating_scale_likert_active,1733,NA,NA,Strongly Agree,1,0,1,0,NA,NA,NA,NA,1,statements,to protect the elderly and vulnerable,1,17/05/2021 11:19,17/05/2021 11:26,432,Once or twice a year,Most months,37,Female,-99,A levels,29,3,Against,For
24,1658935839172,27/07/2022 15:30:39,1658935839147,1,27/07/2022 16:30:39,94050,2,task-ig1e,NA,23334662,6847610,NA,complete,NA,62e1596aeac2f7e73f7a59fe,mobile,Apple iPhone,iOS 15.2.1,Mobile Safari 15.2,390x844,750x307,NA,ITT Ratings,3,For,3,NA,ACCEPT,NA,NA,NA,NA,NA,NA,NA,NA,batch3hes,batch3hes,22,22,1,Screen 1,continueButton,response_rating_scale_likert_active,2016,NA,NA,Disagree,1,0,1,0,NA,NA,NA,NA,1,statements,I am worried about possible side effects.,1,17/05/2021 10:52,17/05/2021 11:24,1936,Most weeks,Most days,64,Male,-99,No formal qualifications,24,1,Against,Against
25,1658935849894,27/07/2022 15:30:49,1658935849875,1,27/07/2022 16:30:49,94050,2,task-ig1e,NA,23334662,6847610,NA,complete,NA,62e1596aeac2f7e73f7a59fe,mobile,Apple iPhone,iOS 15.2.1,Mobile Safari 15.2,390x844,750x307,NA,ITT Ratings,3,For,3,NA,ACCEPT,NA,NA,NA,NA,NA,NA,NA,NA,batch3hes,batch3hes,18,23,1,Screen 1,continueButton,response_rating_scale_likert_active,10708.999999999984,NA,NA,Disagree,1,0,1,0,NA,NA,NA,NA,1,statements,There is no proof that the vaccine actually protects you or others against covid,1,17/05/2021 11:20,17/05/2021 11:23,190,Most weeks,Most weeks,25,Female,-99,Vocational Training / Apprenticeship,23,3,Against,Against
26,1658935856606,27/07/2022 15:30:56,1658935856581,1,27/07/2022 16:30:56,94050,2,task-ig1e,NA,23334662,6847610,NA,complete,NA,62e1596aeac2f7e73f7a59fe,mobile,Apple iPhone,iOS 15.2.1,Mobile Safari 15.2,390x844,750x307,NA,ITT Ratings,3,For,3,NA,ACCEPT,NA,NA,NA,NA,NA,NA,NA,NA,batch3hes,batch3hes,60,24,1,Screen 1,continueButton,response_rating_scale_likert_active,6687,NA,NA,Neither Agree nor Disagree,1,0,1,0,NA,NA,NA,NA,1,statements,It may not completely eradicate the virus,1,17/05/2021 11:19,17/05/2021 11:28,553,Most months,Most months,48,Female,-99,A levels,30,3,Against,Against
27,1658935860089,27/07/2022 15:31:00,1658935860070,1,27/07/2022 16:31:00,94050,2,task-ig1e,NA,23334662,6847610,NA,complete,NA,62e1596aeac2f7e73f7a59fe,mobile,Apple iPhone,iOS 15.2.1,Mobile Safari 15.2,390x844,750x307,NA,ITT Ratings,3,For,3,NA,ACCEPT,NA,NA,NA,NA,NA,NA,NA,NA,batch3hes,batch3hes,46,25,1,Screen 1,continueButton,response_rating_scale_likert_active,3470,NA,NA,Disagree,1,0,1,0,NA,NA,NA,NA,1,statements,Produced too quickly when they've had years to develop a cure for other diseases and failed,1,17/05/2021 11:17,17/05/2021 11:26,535,Most weeks,Most weeks,29,Female,-99,A levels,28,1,Against,Against
28,1658935881580,27/07/2022 15:31:21,1658935881556,1,27/07/2022 16:31:21,94050,2,task-ig1e,NA,23334662,6847610,NA,complete,NA,62e1596aeac2f7e73f7a59fe,mobile,Apple iPhone,iOS 15.2.1,Mobile Safari 15.2,390x844,750x307,NA,ITT Ratings,3,For,3,NA,ACCEPT,NA,NA,NA,NA,NA,NA,NA,NA,batch3hes,batch3hes,48,26,1,Screen 1,continueButton,response_rating_scale_likert_active,21464,NA,NA,Strongly Disagree,1,0,1,0,NA,NA,NA,NA,1,statements,"Lack of trust - non disclosure forms are filled in left, right and centre so I have lost trust in the government and hospitals",1,17/05/2021 11:17,17/05/2021 11:26,535,Most weeks,Most weeks,29,Female,-99,A levels,28,3,Against,Against
29,1658935885330,27/07/2022 15:31:25,1658935885303,1,27/07/2022 16:31:25,94050,2,task-ig1e,NA,23334662,6847610,NA,complete,NA,62e1596aeac2f7e73f7a59fe,mobile,Apple iPhone,iOS 15.2.1,Mobile Safari 15.2,390x844,750x307,NA,ITT Ratings,3,For,3,NA,ACCEPT,NA,NA,NA,NA,NA,NA,NA,NA,batch3hes,batch3hes,44,27,1,Screen 1,continueButton,response_rating_scale_likert_active,3729,NA,NA,Agree,1,0,1,0,NA,NA,NA,NA,1,statements,Plenty of case studies,1,17/05/2021 11:17,17/05/2021 11:25,451,Never,Never,28,Female,-99,A levels,27,2,Against,For
30,1658935887469,27/07/2022 15:31:27,1658935887441,1,27/07/2022 16:31:27,94050,2,task-ig1e,NA,23334662,6847610,NA,complete,NA,62e1596aeac2f7e73f7a59fe,mobile,Apple iPhone,iOS 15.2.1,Mobile Safari 15.2,390x844,750x307,NA,ITT Ratings,3,For,3,NA,ACCEPT,NA,NA,NA,NA,NA,NA,NA,NA,batch3hes,batch3hes,41,28,1,Screen 1,continueButton,response_rating_scale_likert_active,2117,NA,NA,Agree,1,0,1,0,NA,NA,NA,NA,1,statements,Plenty of research been done,1,17/05/2021 11:17,17/05/2021 11:25,451,Never,Never,28,Female,-99,A levels,27,2,Against,Against
31,1658935902109,27/07/2022 15:31:42,1658935902086,1,27/07/2022 16:31:42,94050,2,task-ig1e,NA,23334662,6847610,NA,complete,NA,62e1596aeac2f7e73f7a59fe,mobile,Apple iPhone,iOS 15.2.1,Mobile Safari 15.2,390x844,750x307,NA,ITT Ratings,3,For,3,NA,ACCEPT,NA,NA,NA,NA,NA,NA,NA,NA,batch3hes,batch3hes,29,29,1,Screen 1,continueButton,response_rating_scale_likert_active,14625,NA,NA,Disagree,1,0,1,0,NA,NA,NA,NA,1,statements,"After getting the vaccine, I've heard that your arm largely swells and  aches for weeks before you can go back to normal activities",1,17/05/2021 11:11,17/05/2021 11:24,795,Most days,Most months,25,Female,-99,"Postgraduate degree (MSc, MA, MPhil)",25,2,Against,Against
32,1658935912184,27/07/2022 15:31:52,1658935912157,1,27/07/2022 16:31:52,94050,2,task-ig1e,NA,23334662,6847610,NA,complete,NA,62e1596aeac2f7e73f7a59fe,mobile,Apple iPhone,iOS 15.2.1,Mobile Safari 15.2,390x844,750x307,NA,ITT Ratings,3,For,3,NA,ACCEPT,NA,NA,NA,NA,NA,NA,NA,NA,batch3hes,batch3hes,36,30,1,Screen 1,continueButton,response_rating_scale_likert_active,10049,NA,NA,Disagree,1,0,1,0,NA,NA,NA,NA,1,statements,Being pushed by government and they can't be trusted as gone against expert advice in the past,1,17/05/2021 11:12,17/05/2021 11:25,781,Most weeks,Most months,44,Male,-99,A levels,26,3,Against,Against
33,1658935923075,27/07/2022 15:32:03,1658935923055,1,27/07/2022 16:32:03,94050,2,task-ig1e,NA,23334662,6847610,NA,complete,NA,62e1596aeac2f7e73f7a59fe,mobile,Apple iPhone,iOS 15.2.1,Mobile Safari 15.2,390x844,750x307,NA,ITT Ratings,3,For,3,NA,ACCEPT,NA,NA,NA,NA,NA,NA,NA,NA,batch3hes,batch3hes,3,31,1,Screen 1,continueButton,response_rating_scale_likert_active,10875.99999999997,NA,NA,Somewhat Disagree,1,0,1,0,NA,NA,NA,NA,1,statements,We would like to check you are reading each argument carefully. Please select 'Somewhat Disagree' for this answer,1,NA,NA,NA,NA,NA,NA,NA,NA,NA,NA,check2,NA,NA
34,1658935927786,27/07/2022 15:32:07,1658935927761,1,27/07/2022 16:32:07,94050,2,task-ig1e,NA,23334662,6847610,NA,complete,NA,62e1596aeac2f7e73f7a59fe,mobile,Apple iPhone,iOS 15.2.1,Mobile Safari 15.2,390x844,750x307,NA,ITT Ratings,3,For,3,NA,ACCEPT,NA,NA,NA,NA,NA,NA,NA,NA,batch3hes,batch3hes,30,32,1,Screen 1,continueButton,response_rating_scale_likert_active,4686.000000000029,NA,NA,Agree,1,0,1,0,NA,NA,NA,NA,1,statements,You can still get the virus,1,17/05/2021 11:11,17/05/2021 11:24,795,Most days,Most months,25,Female,-99,"Postgraduate degree (MSc, MA, MPhil)",25,3,Against,Against
35,1658935932552,27/07/2022 15:32:12,1658935932536,1,27/07/2022 16:32:12,94050,2,task-ig1e,NA,23334662,6847610,NA,complete,NA,62e1596aeac2f7e73f7a59fe,mobile,Apple iPhone,iOS 15.2.1,Mobile Safari 15.2,390x844,750x307,NA,ITT Ratings,3,For,3,NA,ACCEPT,NA,NA,NA,NA,NA,NA,NA,NA,batch3hes,batch3hes,28,33,1,Screen 1,continueButton,response_rating_scale_likert_active,4752,NA,NA,Agree,1,0,1,0,NA,NA,NA,NA,1,statements,There's still a chance of getting a blood clot and dying,1,17/05/2021 11:11,17/05/2021 11:24,795,Most days,Most months,25,Female,-99,"Postgraduate degree (MSc, MA, MPhil)",25,1,Against,Against
36,1658935944830,27/07/2022 15:32:24,1658935944803,1,27/07/2022 16:32:24,94050,2,task-ig1e,NA,23334662,6847610,NA,complete,NA,62e1596aeac2f7e73f7a59fe,mobile,Apple iPhone,iOS 15.2.1,Mobile Safari 15.2,390x844,750x307,NA,ITT Ratings,3,For,3,NA,ACCEPT,NA,NA,NA,NA,NA,NA,NA,NA,batch3hes,batch3hes,31,34,1,Screen 1,continueButton,response_rating_scale_likert_active,12256,NA,NA,Somewhat Agree,1,0,1,0,NA,NA,NA,NA,1,statements,You're chances of getting the virus are reduced,1,17/05/2021 11:11,17/05/2021 11:24,795,Most days,Most months,25,Female,-99,"Postgraduate degree (MSc, MA, MPhil)",25,1,Against,For
37,1658935948477,27/07/2022 15:32:28,1658935948452,1,27/07/2022 16:32:28,94050,2,task-ig1e,NA,23334662,6847610,NA,complete,NA,62e1596aeac2f7e73f7a59fe,mobile,Apple iPhone,iOS 15.2.1,Mobile Safari 15.2,390x844,750x307,NA,ITT Ratings,3,For,3,NA,ACCEPT,NA,NA,NA,NA,NA,NA,NA,NA,batch3hes,batch3hes,8,35,1,Screen 1,continueButton,response_rating_scale_likert_active,3636.000000000029,NA,NA,Disagree,1,0,1,0,NA,NA,NA,NA,1,statements,I have to because my employer insists on it,1,17/05/2021 11:09,17/05/2021 11:22,779,Most months,Most months,45,Female,-99,GCSEs,21,2,Against,For
38,1658935956384,27/07/2022 15:32:36,1658935956360,1,27/07/2022 16:32:36,94050,2,task-ig1e,NA,23334662,6847610,NA,complete,NA,62e1596aeac2f7e73f7a59fe,mobile,Apple iPhone,iOS 15.2.1,Mobile Safari 15.2,390x844,750x307,NA,ITT Ratings,3,For,3,NA,ACCEPT,NA,NA,NA,NA,NA,NA,NA,NA,batch3hes,batch3hes,37,36,1,Screen 1,continueButton,response_rating_scale_likert_active,7885,NA,NA,Agree,1,0,1,0,NA,NA,NA,NA,1,statements,To get back to normality,1,17/05/2021 11:12,17/05/2021 11:25,781,Most weeks,Most months,44,Male,-99,A levels,26,1,Against,For
39,1658935965488,27/07/2022 15:32:45,1658935965465,1,27/07/2022 16:32:45,94050,2,task-ig1e,NA,23334662,6847610,NA,complete,NA,62e1596aeac2f7e73f7a59fe,mobile,Apple iPhone,iOS 15.2.1,Mobile Safari 15.2,390x844,750x307,NA,ITT Ratings,3,For,3,NA,ACCEPT,NA,NA,NA,NA,NA,NA,NA,NA,batch3hes,batch3hes,5,37,1,Screen 1,continueButton,response_rating_scale_likert_active,9084.00000000003,NA,NA,Neither Agree nor Disagree,1,0,1,0,NA,NA,NA,NA,1,statements,Will it even work given the virus is changing all the time,1,17/05/2021 11:09,17/05/2021 11:22,779,Most months,Most months,45,Female,-99,GCSEs,21,2,Against,Against
40,1658935969664,27/07/2022 15:32:49,1658935969642,1,27/07/2022 16:32:49,94050,2,task-ig1e,NA,23334662,6847610,NA,complete,NA,62e1596aeac2f7e73f7a59fe,mobile,Apple iPhone,iOS 15.2.1,Mobile Safari 15.2,390x844,750x307,NA,ITT Ratings,3,For,3,NA,ACCEPT,NA,NA,NA,NA,NA,NA,NA,NA,batch3hes,batch3hes,16,38,1,Screen 1,continueButton,response_rating_scale_likert_active,4159.000000000029,NA,NA,Disagree,1,0,1,0,NA,NA,NA,NA,1,statements,I don't trust how quickly the vaccination has been developed,1,17/05/2021 11:20,17/05/2021 11:23,190,Most weeks,Most weeks,25,Female,-99,Vocational Training / Apprenticeship,23,1,Against,Against
41,1658935973727,27/07/2022 15:32:53,1658935973706,1,27/07/2022 16:32:53,94050,2,task-ig1e,NA,23334662,6847610,NA,complete,NA,62e1596aeac2f7e73f7a59fe,mobile,Apple iPhone,iOS 15.2.1,Mobile Safari 15.2,390x844,750x307,NA,ITT Ratings,3,For,3,NA,ACCEPT,NA,NA,NA,NA,NA,NA,NA,NA,batch3hes,batch3hes,2,39,1,Screen 1,continueButton,response_rating_scale_likert_active,4042,NA,NA,Somewhat Agree,1,0,1,0,NA,NA,NA,NA,1,statements,We would like to check you are reading each argument carefully. Please select 'Somewhat Agree' for this answer,1,NA,NA,NA,NA,NA,NA,NA,NA,NA,NA,check1,NA,NA
42,1658935981463,27/07/2022 15:33:01,1658935981440,1,27/07/2022 16:33:01,94050,2,task-ig1e,NA,23334662,6847610,NA,complete,NA,62e1596aeac2f7e73f7a59fe,mobile,Apple iPhone,iOS 15.2.1,Mobile Safari 15.2,390x844,750x307,NA,ITT Ratings,3,For,3,NA,ACCEPT,NA,NA,NA,NA,NA,NA,NA,NA,batch3hes,batch3hes,40,40,1,Screen 1,continueButton,response_rating_scale_likert_active,7715.000000000029,NA,NA,Agree,1,0,1,0,NA,NA,NA,NA,1,statements,Produced effectively,1,17/05/2021 11:17,17/05/2021 11:25,451,Never,Never,28,Female,-99,A levels,27,1,Against,Against
43,1658935985003,27/07/2022 15:33:05,1658935984982,1,27/07/2022 16:33:04,94050,2,task-ig1e,NA,23334662,6847610,NA,complete,NA,62e1596aeac2f7e73f7a59fe,mobile,Apple iPhone,iOS 15.2.1,Mobile Safari 15.2,390x844,750x307,NA,ITT Ratings,3,For,3,NA,ACCEPT,NA,NA,NA,NA,NA,NA,NA,NA,batch3hes,batch3hes,26,41,1,Screen 1,continueButton,response_rating_scale_likert_active,3522.999999999971,NA,NA,Strongly Agree,1,0,1,0,NA,NA,NA,NA,1,statements,I think the positives outweigh the negatives.,1,17/05/2021 10:52,17/05/2021 11:24,1936,Most weeks,Most days,64,Male,-99,No formal qualifications,24,2,Against,For
44,1658935988328,27/07/2022 15:33:08,1658935988295,1,27/07/2022 16:33:08,94050,2,task-ig1e,NA,23334662,6847610,NA,complete,NA,62e1596aeac2f7e73f7a59fe,mobile,Apple iPhone,iOS 15.2.1,Mobile Safari 15.2,390x844,750x307,NA,ITT Ratings,3,For,3,NA,ACCEPT,NA,NA,NA,NA,NA,NA,NA,NA,batch3hes,batch3hes,49,42,1,Screen 1,continueButton,response_rating_scale_likert_active,3294,NA,NA,Strongly Agree,1,0,1,0,NA,NA,NA,NA,1,statements,It's to protect myself and those around me,1,17/05/2021 11:17,17/05/2021 11:26,535,Most weeks,Most weeks,29,Female,-99,A levels,28,1,Against,For
45,1658935993633,27/07/2022 15:33:13,1658935993608,1,27/07/2022 16:33:13,94050,2,task-ig1e,NA,23334662,6847610,NA,complete,NA,62e1596aeac2f7e73f7a59fe,mobile,Apple iPhone,iOS 15.2.1,Mobile Safari 15.2,390x844,750x307,NA,ITT Ratings,3,For,3,NA,ACCEPT,NA,NA,NA,NA,NA,NA,NA,NA,batch3hes,batch3hes,25,43,1,Screen 1,continueButton,response_rating_scale_likert_active,5291,NA,NA,Strongly Agree,1,0,1,0,NA,NA,NA,NA,1,statements,I want the vaccine as soon as possible to protect myself from covid.,1,17/05/2021 10:52,17/05/2021 11:24,1936,Most weeks,Most days,64,Male,-99,No formal qualifications,24,1,Against,For
46,1658935999960,27/07/2022 15:33:19,1658935999925,1,27/07/2022 16:33:19,94050,2,task-ig1e,NA,23334662,6847610,NA,complete,NA,62e1596aeac2f7e73f7a59fe,mobile,Apple iPhone,iOS 15.2.1,Mobile Safari 15.2,390x844,750x307,NA,ITT Ratings,3,For,3,NA,ACCEPT,NA,NA,NA,NA,NA,NA,NA,NA,batch3hes,batch3hes,9,44,1,Screen 1,continueButton,response_rating_scale_likert_active,6296.000000000058,NA,NA,Strongly Disagree,1,0,1,0,NA,NA,NA,NA,1,statements,I work in the NHS or health sector,1,17/05/2021 11:09,17/05/2021 11:22,779,Most months,Most months,45,Female,-99,GCSEs,21,3,Against,For
47,1658936004685,27/07/2022 15:33:24,1658936004653,1,27/07/2022 16:33:24,94050,2,task-ig1e,NA,23334662,6847610,NA,complete,NA,62e1596aeac2f7e73f7a59fe,mobile,Apple iPhone,iOS 15.2.1,Mobile Safari 15.2,390x844,750x307,NA,ITT Ratings,3,For,3,NA,ACCEPT,NA,NA,NA,NA,NA,NA,NA,NA,batch3hes,batch3hes,27,45,1,Screen 1,continueButton,response_rating_scale_likert_active,4707,NA,NA,Disagree,1,0,1,0,NA,NA,NA,NA,1,statements,Everyone else is getting it and I don't want to be left behind.,1,17/05/2021 10:52,17/05/2021 11:24,1936,Most weeks,Most days,64,Male,-99,No formal qualifications,24,3,Against,For
48,1658936009426,27/07/2022 15:33:29,1658936009397,1,27/07/2022 16:33:29,94050,2,task-ig1e,NA,23334662,6847610,NA,complete,NA,62e1596aeac2f7e73f7a59fe,mobile,Apple iPhone,iOS 15.2.1,Mobile Safari 15.2,390x844,750x307,NA,ITT Ratings,3,For,3,NA,ACCEPT,NA,NA,NA,NA,NA,NA,NA,NA,batch3hes,batch3hes,35,46,1,Screen 1,continueButton,response_rating_scale_likert_active,4724,NA,NA,Strongly Disagree,1,0,1,0,NA,NA,NA,NA,1,statements,No proof vaccine works against current or new strains,1,17/05/2021 11:12,17/05/2021 11:25,781,Most weeks,Most months,44,Male,-99,A levels,26,2,Against,Against
49,1658936014768,27/07/2022 15:33:34,1658936014748,1,27/07/2022 16:33:34,94050,2,task-ig1e,NA,23334662,6847610,NA,complete,NA,62e1596aeac2f7e73f7a59fe,mobile,Apple iPhone,iOS 15.2.1,Mobile Safari 15.2,390x844,750x307,NA,ITT Ratings,3,For,3,NA,ACCEPT,NA,NA,NA,NA,NA,NA,NA,NA,batch3hes,batch3hes,4,47,1,Screen 1,continueButton,response_rating_scale_likert_active,5335.000000000058,NA,NA,Somewhat Agree,1,0,1,0,NA,NA,NA,NA,1,statements,I dont know the true side effects years down the line,1,17/05/2021 11:09,17/05/2021 11:22,779,Most months,Most months,45,Female,-99,GCSEs,21,1,Against,Against
50,1658936021028,27/07/2022 15:33:41,1658936020998,1,27/07/2022 16:33:40,94050,2,task-ig1e,NA,23334662,6847610,NA,complete,NA,62e1596aeac2f7e73f7a59fe,mobile,Apple iPhone,iOS 15.2.1,Mobile Safari 15.2,390x844,750x307,NA,ITT Ratings,3,For,3,NA,ACCEPT,NA,NA,NA,NA,NA,NA,NA,NA,batch3hes,batch3hes,32,48,1,Screen 1,continueButton,response_rating_scale_likert_active,6231,NA,NA,Neither Agree nor Disagree,1,0,1,0,NA,NA,NA,NA,1,statements,You apparently don't have to wear a mask,1,17/05/2021 11:11,17/05/2021 11:24,795,Most days,Most months,25,Female,-99,"Postgraduate degree (MSc, MA, MPhil)",25,2,Against,For
51,1658936027025,27/07/2022 15:33:47,1658936027001,1,27/07/2022 16:33:47,94050,2,task-ig1e,NA,23334662,6847610,NA,complete,NA,62e1596aeac2f7e73f7a59fe,mobile,Apple iPhone,iOS 15.2.1,Mobile Safari 15.2,390x844,750x307,NA,ITT Ratings,3,For,3,NA,ACCEPT,NA,NA,NA,NA,NA,NA,NA,NA,batch3hes,batch3hes,53,49,1,Screen 1,continueButton,response_rating_scale_likert_active,5984,NA,NA,Neither Agree nor Disagree,1,0,1,0,NA,NA,NA,NA,1,statements,not enough time given to see the long term effects of having the vaccine,1,17/05/2021 11:19,17/05/2021 11:26,432,Once or twice a year,Most months,37,Female,-99,A levels,29,2,Against,Against
52,1658936040767,27/07/2022 15:34:00,1658936040657,1,27/07/2022 16:34:00,94050,2,task-ig1e,NA,23334662,6847610,NA,complete,NA,62e1596aeac2f7e73f7a59fe,mobile,Apple iPhone,iOS 15.2.1,Mobile Safari 15.2,390x844,750x307,NA,ITT Ratings,3,For,3,NA,ACCEPT,NA,NA,NA,NA,NA,NA,NA,NA,batch3hes,batch3hes,19,50,1,Screen 1,continueButton,response_rating_scale_likert_active,13641,NA,NA,Strongly Agree,1,0,1,0,NA,NA,NA,NA,1,statements,It is the best way to protect yourself and your loved ones,1,17/05/2021 11:20,17/05/2021 11:23,190,Most weeks,Most weeks,25,Female,-99,Vocational Training / Apprenticeship,23,1,Against,For
53,1658936044931,27/07/2022 15:34:04,1658936044914,1,27/07/2022 16:34:04,94050,2,task-ig1e,NA,23334662,6847610,NA,complete,NA,62e1596aeac2f7e73f7a59fe,mobile,Apple iPhone,iOS 15.2.1,Mobile Safari 15.2,390x844,750x307,NA,ITT Ratings,3,For,3,NA,ACCEPT,NA,NA,NA,NA,NA,NA,NA,NA,batch3hes,batch3hes,59,51,1,Screen 1,continueButton,response_rating_scale_likert_active,4241,NA,NA,Strongly Disagree,1,0,1,0,NA,NA,NA,NA,1,statements,"I do not trust how quickly the vaccine has been processed, neither who has made them",1,17/05/2021 11:19,17/05/2021 11:28,553,Most months,Most months,48,Female,-99,A levels,30,2,Against,Against
54,1658936049645,27/07/2022 15:34:09,1658936049631,1,27/07/2022 16:34:09,94050,2,task-ig1e,NA,23334662,6847610,NA,complete,NA,62e1596aeac2f7e73f7a59fe,mobile,Apple iPhone,iOS 15.2.1,Mobile Safari 15.2,390x844,750x307,NA,ITT Ratings,3,For,3,NA,ACCEPT,NA,NA,NA,NA,NA,NA,NA,NA,batch3hes,batch3hes,23,52,1,Screen 1,continueButton,response_rating_scale_likert_active,4702,NA,NA,Disagree,1,0,1,0,NA,NA,NA,NA,1,statements,"I am concerned the vaccine has been released too soon, not enough testing.",1,17/05/2021 10:52,17/05/2021 11:24,1936,Most weeks,Most days,64,Male,-99,No formal qualifications,24,2,Against,Against
55,1658936052373,27/07/2022 15:34:12,1658936052359,1,27/07/2022 16:34:12,94050,2,task-ig1e,NA,23334662,6847610,NA,complete,NA,62e1596aeac2f7e73f7a59fe,mobile,Apple iPhone,iOS 15.2.1,Mobile Safari 15.2,390x844,750x307,NA,ITT Ratings,3,For,3,NA,ACCEPT,NA,NA,NA,NA,NA,NA,NA,NA,batch3hes,batch3hes,54,53,1,Screen 1,continueButton,response_rating_scale_likert_active,2711,NA,NA,Disagree,1,0,1,0,NA,NA,NA,NA,1,statements,it was rolled out too quick and not tested well enough,1,17/05/2021 11:19,17/05/2021 11:26,432,Once or twice a year,Most months,37,Female,-99,A levels,29,3,Against,Against
56,1658936057207,27/07/2022 15:34:17,1658936057191,1,27/07/2022 16:34:17,94050,2,task-ig1e,NA,23334662,6847610,NA,complete,NA,62e1596aeac2f7e73f7a59fe,mobile,Apple iPhone,iOS 15.2.1,Mobile Safari 15.2,390x844,750x307,NA,ITT Ratings,3,For,3,NA,ACCEPT,NA,NA,NA,NA,NA,NA,NA,NA,batch3hes,batch3hes,12,54,1,Screen 1,continueButton,response_rating_scale_likert_active,4815,NA,NA,Disagree,1,0,1,0,NA,NA,NA,NA,1,statements,The rare cases and side effects that take place due to taking the vaccine,1,17/05/2021 11:10,17/05/2021 11:23,785,A few times a year,Rarely,19,Male,-99,A levels,22,3,Against,Against
57,1658936060304,27/07/2022 15:34:20,1658936060277,1,27/07/2022 16:34:20,94050,2,task-ig1e,NA,23334662,6847610,NA,complete,NA,62e1596aeac2f7e73f7a59fe,mobile,Apple iPhone,iOS 15.2.1,Mobile Safari 15.2,390x844,750x307,NA,ITT Ratings,3,For,3,NA,ACCEPT,NA,NA,NA,NA,NA,NA,NA,NA,batch3hes,batch3hes,52,55,1,Screen 1,continueButton,response_rating_scale_likert_active,3069,NA,NA,Strongly Disagree,1,0,1,0,NA,NA,NA,NA,1,statements,it does not work its all a hoax,1,17/05/2021 11:19,17/05/2021 11:26,432,Once or twice a year,Most months,37,Female,-99,A levels,29,1,Against,Against
58,1658936063882,27/07/2022 15:34:23,1658936063860,1,27/07/2022 16:34:23,94050,2,task-ig1e,NA,23334662,6847610,NA,complete,NA,62e1596aeac2f7e73f7a59fe,mobile,Apple iPhone,iOS 15.2.1,Mobile Safari 15.2,390x844,750x307,NA,ITT Ratings,3,For,3,NA,ACCEPT,NA,NA,NA,NA,NA,NA,NA,NA,batch3hes,batch3hes,61,56,1,Screen 1,continueButton,response_rating_scale_likert_active,3571.000000000058,NA,NA,Strongly Agree,1,0,1,0,NA,NA,NA,NA,1,statements,It will help get rid of the presence of COVID in our world,1,17/05/2021 11:19,17/05/2021 11:28,553,Most months,Most months,48,Female,-99,A levels,30,1,Against,For
59,1658936066284,27/07/2022 15:34:26,1658936066266,1,27/07/2022 16:34:26,94050,2,task-ig1e,NA,23334662,6847610,NA,complete,NA,62e1596aeac2f7e73f7a59fe,mobile,Apple iPhone,iOS 15.2.1,Mobile Safari 15.2,390x844,750x307,NA,ITT Ratings,3,For,3,NA,ACCEPT,NA,NA,NA,NA,NA,NA,NA,NA,batch3hes,batch3hes,50,57,1,Screen 1,continueButton,response_rating_scale_likert_active,2392,NA,NA,Strongly Agree,1,0,1,0,NA,NA,NA,NA,1,statements,It's a way of getting life back to normal,1,17/05/2021 11:17,17/05/2021 11:26,535,Most weeks,Most weeks,29,Female,-99,A levels,28,2,Against,For
60,1658936071234,27/07/2022 15:34:31,1658936071208,1,27/07/2022 16:34:31,94050,2,task-ig1e,NA,23334662,6847610,NA,complete,NA,62e1596aeac2f7e73f7a59fe,mobile,Apple iPhone,iOS 15.2.1,Mobile Safari 15.2,390x844,750x307,NA,ITT Ratings,3,For,3,NA,ACCEPT,NA,NA,NA,NA,NA,NA,NA,NA,batch3hes,batch3hes,15,58,1,Screen 1,continueButton,response_rating_scale_likert_active,4922,NA,NA,Somewhat Agree,1,0,1,0,NA,NA,NA,NA,1,statements,There are side effects but only a very low probability of it taking place,1,17/05/2021 11:10,17/05/2021 11:23,785,A few times a year,Rarely,19,Male,-99,A levels,22,3,Against,For
61,1658936074259,27/07/2022 15:34:34,1658936074233,1,27/07/2022 16:34:34,94050,2,task-ig1e,NA,23334662,6847610,NA,complete,NA,62e1596aeac2f7e73f7a59fe,mobile,Apple iPhone,iOS 15.2.1,Mobile Safari 15.2,390x844,750x307,NA,ITT Ratings,3,For,3,NA,ACCEPT,NA,NA,NA,NA,NA,NA,NA,NA,batch3hes,batch3hes,20,59,1,Screen 1,continueButton,response_rating_scale_likert_active,3009,NA,NA,Somewhat Agree,1,0,1,0,NA,NA,NA,NA,1,statements,It wouldn't have been offered out if it wasn't safe,1,17/05/2021 11:20,17/05/2021 11:23,190,Most weeks,Most weeks,25,Female,-99,Vocational Training / Apprenticeship,23,2,Against,For
62,1658936077451,27/07/2022 15:34:37,1658936077429,1,27/07/2022 16:34:37,94050,2,task-ig1e,NA,23334662,6847610,NA,complete,NA,62e1596aeac2f7e73f7a59fe,mobile,Apple iPhone,iOS 15.2.1,Mobile Safari 15.2,390x844,750x307,NA,ITT Ratings,3,For,3,NA,ACCEPT,NA,NA,NA,NA,NA,NA,NA,NA,batch3hes,batch3hes,62,60,1,Screen 1,continueButton,response_rating_scale_likert_active,3181,NA,NA,Agree,1,0,1,0,NA,NA,NA,NA,1,statements,It protects us and other people,1,17/05/2021 11:19,17/05/2021 11:28,553,Most months,Most months,48,Female,-99,A levels,30,2,Against,For
63,1658936081865,27/07/2022 15:34:41,1658936081838,1,27/07/2022 16:34:41,94050,2,task-ig1e,NA,23334662,6847610,NA,complete,NA,62e1596aeac2f7e73f7a59fe,mobile,Apple iPhone,iOS 15.2.1,Mobile Safari 15.2,390x844,750x307,NA,ITT Ratings,3,For,3,NA,ACCEPT,NA,NA,NA,NA,NA,NA,NA,NA,batch3hes,batch3hes,11,61,1,Screen 1,continueButton,response_rating_scale_likert_active,4394,NA,NA,Strongly Disagree,1,0,1,0,NA,NA,NA,NA,1,statements,The doctors are not to be trusted as they're only interested in increasing the daily infection rate counts.,1,17/05/2021 11:10,17/05/2021 11:23,785,A few times a year,Rarely,19,Male,-99,A levels,22,2,Against,Against
64,1658936084752,27/07/2022 15:34:44,1658936084727,1,27/07/2022 16:34:44,94050,2,task-ig1e,NA,23334662,6847610,NA,complete,NA,62e1596aeac2f7e73f7a59fe,mobile,Apple iPhone,iOS 15.2.1,Mobile Safari 15.2,390x844,750x307,NA,ITT Ratings,3,For,3,NA,ACCEPT,NA,NA,NA,NA,NA,NA,NA,NA,batch3hes,batch3hes,51,62,1,Screen 1,continueButton,response_rating_scale_likert_active,2876,NA,NA,Neither Agree nor Disagree,1,0,1,0,NA,NA,NA,NA,1,statements,Everyone else is getting one,1,17/05/2021 11:17,17/05/2021 11:26,535,Most weeks,Most weeks,29,Female,-99,A levels,28,3,Against,For
65,1658936084822,27/07/2022 15:34:44,1658936084732,1,27/07/2022 16:34:44,94050,2,task-ig1e,NA,23334662,6847610,NA,complete,NA,62e1596aeac2f7e73f7a59fe,mobile,Apple iPhone,iOS 15.2.1,Mobile Safari 15.2,390x844,750x307,NA,ITT Ratings,3,For,3,NA,ACCEPT,NA,NA,NA,NA,NA,NA,NA,NA,batch3hes,NA,NA,END TASK,NA,NA,NA,NA,360491,NA,NA,NA,NA,0,1,0,NA,NA,NA,NA,NA,NA,NA,NA,NA,NA,NA,NA,NA,NA,NA,NA,NA,NA,NA,NA,NA
1,1658936326542,27/07/2022 15:38:46,1658936327189,1,27/07/2022 16:38:47,94050,2,task-ig1e,NA,23334965,6847708,NA,complete,NA,62e15bb9db720d756053f011,computer,Desktop or Laptop,Windows 10,Chrome 103.0.0.0,1536x864,1536x722,NA,ITT Ratings,3,For,3,NA,ACCEPT,NA,NA,NA,NA,NA,NA,NA,NA,batch3hes,NA,NA,BEGIN TASK,NA,NA,NA,NA,NA,NA,NA,NA,NA,0,1,0,NA,NA,NA,NA,NA,NA,NA,NA,NA,NA,NA,NA,NA,NA,NA,NA,NA,NA,NA,NA,NA
2,1658936332122,27/07/2022 15:38:52,1658936332802,1,27/07/2022 16:38:52,94050,2,task-ig1e,NA,23334965,6847708,NA,complete,NA,62e15bb9db720d756053f011,computer,Desktop or Laptop,Windows 10,Chrome 103.0.0.0,1536x864,1519x722,NA,ITT Ratings,3,For,3,NA,ACCEPT,NA,NA,NA,NA,NA,NA,NA,NA,batch3hes,batch3hes,1,1,1,Screen 1,advancementZone,continue_button,5524.299999952316,NA,NA,NA,NA,0,1,0,NA,NA,NA,NA,NA,instructions,NA,NA,NA,NA,NA,NA,NA,NA,NA,NA,NA,NA,NA,NA,NA
3,1658936338196,27/07/2022 15:38:58,1658936338860,1,27/07/2022 16:38:58,94050,2,task-ig1e,NA,23334965,6847708,NA,complete,NA,62e15bb9db720d756053f011,computer,Desktop or Laptop,Windows 10,Chrome 103.0.0.0,1536x864,1519x722,NA,ITT Ratings,3,For,3,NA,ACCEPT,NA,NA,NA,NA,NA,NA,NA,NA,batch3hes,batch3hes,29,1,1,Screen 1,continueButton,response_rating_scale_likert_active,6027.899999976158,NA,NA,Strongly Disagree,1,0,1,0,NA,NA,NA,NA,1,statements,"After getting the vaccine, I've heard that your arm largely swells and  aches for weeks before you can go back to normal activities",1,17/05/2021 11:11,17/05/2021 11:24,795,Most days,Most months,25,Female,-99,"Postgraduate degree (MSc, MA, MPhil)",25,2,Against,Against
4,1658936343525,27/07/2022 15:39:03,1658936344218,1,27/07/2022 16:39:04,94050,2,task-ig1e,NA,23334965,6847708,NA,complete,NA,62e15bb9db720d756053f011,computer,Desktop or Laptop,Windows 10,Chrome 103.0.0.0,1536x864,1519x722,NA,ITT Ratings,3,For,3,NA,ACCEPT,NA,NA,NA,NA,NA,NA,NA,NA,batch3hes,batch3hes,45,2,1,Screen 1,continueButton,response_rating_scale_likert_active,5334.200000047684,NA,NA,Neither Agree nor Disagree,1,0,1,0,NA,NA,NA,NA,1,statements,Non profit vaccination,1,17/05/2021 11:17,17/05/2021 11:25,451,Never,Never,28,Female,-99,A levels,27,3,Against,For
5,1658936347238,27/07/2022 15:39:07,1658936347919,1,27/07/2022 16:39:07,94050,2,task-ig1e,NA,23334965,6847708,NA,complete,NA,62e15bb9db720d756053f011,computer,Desktop or Laptop,Windows 10,Chrome 103.0.0.0,1536x864,1519x722,NA,ITT Ratings,3,For,3,NA,ACCEPT,NA,NA,NA,NA,NA,NA,NA,NA,batch3hes,batch3hes,53,3,1,Screen 1,continueButton,response_rating_scale_likert_active,3666.700000047684,NA,NA,Somewhat Agree,1,0,1,0,NA,NA,NA,NA,1,statements,not enough time given to see the long term effects of having the vaccine,1,17/05/2021 11:19,17/05/2021 11:26,432,Once or twice a year,Most months,37,Female,-99,A levels,29,2,Against,Against
6,1658936351813,27/07/2022 15:39:11,1658936352508,1,27/07/2022 16:39:12,94050,2,task-ig1e,NA,23334965,6847708,NA,complete,NA,62e15bb9db720d756053f011,computer,Desktop or Laptop,Windows 10,Chrome 103.0.0.0,1536x864,1519x722,NA,ITT Ratings,3,For,3,NA,ACCEPT,NA,NA,NA,NA,NA,NA,NA,NA,batch3hes,batch3hes,39,4,1,Screen 1,continueButton,response_rating_scale_likert_active,4569.199999928474,NA,NA,Agree,1,0,1,0,NA,NA,NA,NA,1,statements,Everyone else is having the vaccine,1,17/05/2021 11:12,17/05/2021 11:25,781,Most weeks,Most months,44,Male,-99,A levels,26,3,Against,For
7,1658936354610,27/07/2022 15:39:14,1658936355285,1,27/07/2022 16:39:15,94050,2,task-ig1e,NA,23334965,6847708,NA,complete,NA,62e15bb9db720d756053f011,computer,Desktop or Laptop,Windows 10,Chrome 103.0.0.0,1536x864,1519x722,NA,ITT Ratings,3,For,3,NA,ACCEPT,NA,NA,NA,NA,NA,NA,NA,NA,batch3hes,batch3hes,31,5,1,Screen 1,continueButton,response_rating_scale_likert_active,2757.100000023842,NA,NA,Somewhat Agree,1,0,1,0,NA,NA,NA,NA,1,statements,You're chances of getting the virus are reduced,1,17/05/2021 11:11,17/05/2021 11:24,795,Most days,Most months,25,Female,-99,"Postgraduate degree (MSc, MA, MPhil)",25,1,Against,For
8,1658936359107,27/07/2022 15:39:19,1658936359757,1,27/07/2022 16:39:19,94050,2,task-ig1e,NA,23334965,6847708,NA,complete,NA,62e15bb9db720d756053f011,computer,Desktop or Laptop,Windows 10,Chrome 103.0.0.0,1536x864,1519x722,NA,ITT Ratings,3,For,3,NA,ACCEPT,NA,NA,NA,NA,NA,NA,NA,NA,batch3hes,batch3hes,10,6,1,Screen 1,continueButton,response_rating_scale_likert_active,4453.700000047684,NA,NA,Strongly Disagree,1,0,1,0,NA,NA,NA,NA,1,statements,It's not safe. Because of the viral videos of people passing out and the conspiracy theories of trolls on the internet instigating doubts.,1,17/05/2021 11:10,17/05/2021 11:23,785,A few times a year,Rarely,19,Male,-99,A levels,22,1,Against,Against
9,1658936362933,27/07/2022 15:39:22,1658936363623,1,27/07/2022 16:39:23,94050,2,task-ig1e,NA,23334965,6847708,NA,complete,NA,62e15bb9db720d756053f011,computer,Desktop or Laptop,Windows 10,Chrome 103.0.0.0,1536x864,1519x722,NA,ITT Ratings,3,For,3,NA,ACCEPT,NA,NA,NA,NA,NA,NA,NA,NA,batch3hes,batch3hes,13,7,1,Screen 1,continueButton,response_rating_scale_likert_active,3843.100000023842,NA,NA,Agree,1,0,1,0,NA,NA,NA,NA,1,statements,That its a necessity for the virus to be eradicated for good and it's the only way out of this pandemic.,1,17/05/2021 11:10,17/05/2021 11:23,785,A few times a year,Rarely,19,Male,-99,A levels,22,1,Against,For
10,1658936365930,27/07/2022 15:39:25,1658936366627,1,27/07/2022 16:39:26,94050,2,task-ig1e,NA,23334965,6847708,NA,complete,NA,62e15bb9db720d756053f011,computer,Desktop or Laptop,Windows 10,Chrome 103.0.0.0,1536x864,1519x722,NA,ITT Ratings,3,For,3,NA,ACCEPT,NA,NA,NA,NA,NA,NA,NA,NA,batch3hes,batch3hes,22,8,1,Screen 1,continueButton,response_rating_scale_likert_active,2990.399999976158,NA,NA,Agree,1,0,1,0,NA,NA,NA,NA,1,statements,I am worried about possible side effects.,1,17/05/2021 10:52,17/05/2021 11:24,1936,Most weeks,Most days,64,Male,-99,No formal qualifications,24,1,Against,Against
11,1658936373330,27/07/2022 15:39:33,1658936374022,1,27/07/2022 16:39:34,94050,2,task-ig1e,NA,23334965,6847708,NA,complete,NA,62e15bb9db720d756053f011,computer,Desktop or Laptop,Windows 10,Chrome 103.0.0.0,1536x864,1519x722,NA,ITT Ratings,3,For,3,NA,ACCEPT,NA,NA,NA,NA,NA,NA,NA,NA,batch3hes,batch3hes,36,9,1,Screen 1,continueButton,response_rating_scale_likert_active,7377.899999976158,NA,NA,Somewhat Agree,1,0,1,0,NA,NA,NA,NA,1,statements,Being pushed by government and they can't be trusted as gone against expert advice in the past,1,17/05/2021 11:12,17/05/2021 11:25,781,Most weeks,Most months,44,Male,-99,A levels,26,3,Against,Against
12,1658936376473,27/07/2022 15:39:36,1658936377160,1,27/07/2022 16:39:37,94050,2,task-ig1e,NA,23334965,6847708,NA,complete,NA,62e15bb9db720d756053f011,computer,Desktop or Laptop,Windows 10,Chrome 103.0.0.0,1536x864,1519x722,NA,ITT Ratings,3,For,3,NA,ACCEPT,NA,NA,NA,NA,NA,NA,NA,NA,batch3hes,batch3hes,44,10,1,Screen 1,continueButton,response_rating_scale_likert_active,3121.399999976158,NA,NA,Somewhat Disagree,1,0,1,0,NA,NA,NA,NA,1,statements,Plenty of case studies,1,17/05/2021 11:17,17/05/2021 11:25,451,Never,Never,28,Female,-99,A levels,27,2,Against,For
13,1658936379512,27/07/2022 15:39:39,1658936380206,1,27/07/2022 16:39:40,94050,2,task-ig1e,NA,23334965,6847708,NA,complete,NA,62e15bb9db720d756053f011,computer,Desktop or Laptop,Windows 10,Chrome 103.0.0.0,1536x864,1519x722,NA,ITT Ratings,3,For,3,NA,ACCEPT,NA,NA,NA,NA,NA,NA,NA,NA,batch3hes,batch3hes,20,11,1,Screen 1,continueButton,response_rating_scale_likert_active,3031.5,NA,NA,Strongly Agree,1,0,1,0,NA,NA,NA,NA,1,statements,It wouldn't have been offered out if it wasn't safe,1,17/05/2021 11:20,17/05/2021 11:23,190,Most weeks,Most weeks,25,Female,-99,Vocational Training / Apprenticeship,23,2,Against,For
14,1658936382381,27/07/2022 15:39:42,1658936383069,1,27/07/2022 16:39:43,94050,2,task-ig1e,NA,23334965,6847708,NA,complete,NA,62e15bb9db720d756053f011,computer,Desktop or Laptop,Windows 10,Chrome 103.0.0.0,1536x864,1519x722,NA,ITT Ratings,3,For,3,NA,ACCEPT,NA,NA,NA,NA,NA,NA,NA,NA,batch3hes,batch3hes,61,12,1,Screen 1,continueButton,response_rating_scale_likert_active,2844,NA,NA,Strongly Agree,1,0,1,0,NA,NA,NA,NA,1,statements,It will help get rid of the presence of COVID in our world,1,17/05/2021 11:19,17/05/2021 11:28,553,Most months,Most months,48,Female,-99,A levels,30,1,Against,For
15,1658936384965,27/07/2022 15:39:44,1658936385466,1,27/07/2022 16:39:45,94050,2,task-ig1e,NA,23334965,6847708,NA,complete,NA,62e15bb9db720d756053f011,computer,Desktop or Laptop,Windows 10,Chrome 103.0.0.0,1536x864,1519x722,NA,ITT Ratings,3,For,3,NA,ACCEPT,NA,NA,NA,NA,NA,NA,NA,NA,batch3hes,batch3hes,43,13,1,Screen 1,continueButton,response_rating_scale_likert_active,2375.600000023842,NA,NA,Somewhat Agree,1,0,1,0,NA,NA,NA,NA,1,statements,Produced quickly and effectively,1,17/05/2021 11:17,17/05/2021 11:25,451,Never,Never,28,Female,-99,A levels,27,1,Against,For
16,1658936387695,27/07/2022 15:39:47,1658936388389,1,27/07/2022 16:39:48,94050,2,task-ig1e,NA,23334965,6847708,NA,complete,NA,62e15bb9db720d756053f011,computer,Desktop or Laptop,Windows 10,Chrome 103.0.0.0,1536x864,1519x722,NA,ITT Ratings,3,For,3,NA,ACCEPT,NA,NA,NA,NA,NA,NA,NA,NA,batch3hes,batch3hes,9,14,1,Screen 1,continueButton,response_rating_scale_likert_active,2904.100000023842,NA,NA,Somewhat Agree,1,0,1,0,NA,NA,NA,NA,1,statements,I work in the NHS or health sector,1,17/05/2021 11:09,17/05/2021 11:22,779,Most months,Most months,45,Female,-99,GCSEs,21,3,Against,For
17,1658936391369,27/07/2022 15:39:51,1658936392061,1,27/07/2022 16:39:52,94050,2,task-ig1e,NA,23334965,6847708,NA,complete,NA,62e15bb9db720d756053f011,computer,Desktop or Laptop,Windows 10,Chrome 103.0.0.0,1536x864,1519x722,NA,ITT Ratings,3,For,3,NA,ACCEPT,NA,NA,NA,NA,NA,NA,NA,NA,batch3hes,batch3hes,60,15,1,Screen 1,continueButton,response_rating_scale_likert_active,3656.200000047684,NA,NA,Somewhat Disagree,1,0,1,0,NA,NA,NA,NA,1,statements,It may not completely eradicate the virus,1,17/05/2021 11:19,17/05/2021 11:28,553,Most months,Most months,48,Female,-99,A levels,30,3,Against,Against
18,1658936397438,27/07/2022 15:39:57,1658936398136,1,27/07/2022 16:39:58,94050,2,task-ig1e,NA,23334965,6847708,NA,complete,NA,62e15bb9db720d756053f011,computer,Desktop or Laptop,Windows 10,Chrome 103.0.0.0,1536x864,1519x722,NA,ITT Ratings,3,For,3,NA,ACCEPT,NA,NA,NA,NA,NA,NA,NA,NA,batch3hes,batch3hes,3,16,1,Screen 1,continueButton,response_rating_scale_likert_active,6053.700000047684,NA,NA,Somewhat Disagree,1,0,1,0,NA,NA,NA,NA,1,statements,We would like to check you are reading each argument carefully. Please select 'Somewhat Disagree' for this answer,1,NA,NA,NA,NA,NA,NA,NA,NA,NA,NA,check2,NA,NA
19,1658936404680,27/07/2022 15:40:04,1658936405377,1,27/07/2022 16:40:05,94050,2,task-ig1e,NA,23334965,6847708,NA,complete,NA,62e15bb9db720d756053f011,computer,Desktop or Laptop,Windows 10,Chrome 103.0.0.0,1536x864,1519x722,NA,ITT Ratings,3,For,3,NA,ACCEPT,NA,NA,NA,NA,NA,NA,NA,NA,batch3hes,batch3hes,27,17,1,Screen 1,continueButton,response_rating_scale_likert_active,7224.200000047684,NA,NA,Agree,1,0,1,0,NA,NA,NA,NA,1,statements,Everyone else is getting it and I don't want to be left behind.,1,17/05/2021 10:52,17/05/2021 11:24,1936,Most weeks,Most days,64,Male,-99,No formal qualifications,24,3,Against,For
20,1658936413798,27/07/2022 15:40:13,1658936414491,1,27/07/2022 16:40:14,94050,2,task-ig1e,NA,23334965,6847708,NA,complete,NA,62e15bb9db720d756053f011,computer,Desktop or Laptop,Windows 10,Chrome 103.0.0.0,1536x864,1519x722,NA,ITT Ratings,3,For,3,NA,ACCEPT,NA,NA,NA,NA,NA,NA,NA,NA,batch3hes,batch3hes,48,18,1,Screen 1,continueButton,response_rating_scale_likert_active,9097.099999904633,NA,NA,Disagree,1,0,1,0,NA,NA,NA,NA,1,statements,"Lack of trust - non disclosure forms are filled in left, right and centre so I have lost trust in the government and hospitals",1,17/05/2021 11:17,17/05/2021 11:26,535,Most weeks,Most weeks,29,Female,-99,A levels,28,3,Against,Against
21,1658936418065,27/07/2022 15:40:18,1658936418762,1,27/07/2022 16:40:18,94050,2,task-ig1e,NA,23334965,6847708,NA,complete,NA,62e15bb9db720d756053f011,computer,Desktop or Laptop,Windows 10,Chrome 103.0.0.0,1536x864,1519x722,NA,ITT Ratings,3,For,3,NA,ACCEPT,NA,NA,NA,NA,NA,NA,NA,NA,batch3hes,batch3hes,23,19,1,Screen 1,continueButton,response_rating_scale_likert_active,4256.199999928474,NA,NA,Agree,1,0,1,0,NA,NA,NA,NA,1,statements,"I am concerned the vaccine has been released too soon, not enough testing.",1,17/05/2021 10:52,17/05/2021 11:24,1936,Most weeks,Most days,64,Male,-99,No formal qualifications,24,2,Against,Against
22,1658936421461,27/07/2022 15:40:21,1658936422132,1,27/07/2022 16:40:22,94050,2,task-ig1e,NA,23334965,6847708,NA,complete,NA,62e15bb9db720d756053f011,computer,Desktop or Laptop,Windows 10,Chrome 103.0.0.0,1536x864,1519x722,NA,ITT Ratings,3,For,3,NA,ACCEPT,NA,NA,NA,NA,NA,NA,NA,NA,batch3hes,batch3hes,14,20,1,Screen 1,continueButton,response_rating_scale_likert_active,3355.399999976158,NA,NA,Somewhat Disagree,1,0,1,0,NA,NA,NA,NA,1,statements,The NHS put their lives on the line for the peoples safety.,1,17/05/2021 11:10,17/05/2021 11:23,785,A few times a year,Rarely,19,Male,-99,A levels,22,2,Against,For
23,1658936426000,27/07/2022 15:40:26,1658936426682,1,27/07/2022 16:40:26,94050,2,task-ig1e,NA,23334965,6847708,NA,complete,NA,62e15bb9db720d756053f011,computer,Desktop or Laptop,Windows 10,Chrome 103.0.0.0,1536x864,1519x722,NA,ITT Ratings,3,For,3,NA,ACCEPT,NA,NA,NA,NA,NA,NA,NA,NA,batch3hes,batch3hes,63,21,1,Screen 1,continueButton,response_rating_scale_likert_active,4532.700000047684,NA,NA,Strongly Agree,1,0,1,0,NA,NA,NA,NA,1,statements,"Vaccines in the past have proved successful, such as the influenza vaccine",1,17/05/2021 11:19,17/05/2021 11:28,553,Most months,Most months,48,Female,-99,A levels,30,3,Against,For
24,1658936432226,27/07/2022 15:40:32,1658936432913,1,27/07/2022 16:40:32,94050,2,task-ig1e,NA,23334965,6847708,NA,complete,NA,62e15bb9db720d756053f011,computer,Desktop or Laptop,Windows 10,Chrome 103.0.0.0,1536x864,1519x722,NA,ITT Ratings,3,For,3,NA,ACCEPT,NA,NA,NA,NA,NA,NA,NA,NA,batch3hes,batch3hes,8,22,1,Screen 1,continueButton,response_rating_scale_likert_active,6216.100000023842,NA,NA,Somewhat Agree,1,0,1,0,NA,NA,NA,NA,1,statements,I have to because my employer insists on it,1,17/05/2021 11:09,17/05/2021 11:22,779,Most months,Most months,45,Female,-99,GCSEs,21,2,Against,For
25,1658936434740,27/07/2022 15:40:34,1658936435426,1,27/07/2022 16:40:35,94050,2,task-ig1e,NA,23334965,6847708,NA,complete,NA,62e15bb9db720d756053f011,computer,Desktop or Laptop,Windows 10,Chrome 103.0.0.0,1536x864,1519x722,NA,ITT Ratings,3,For,3,NA,ACCEPT,NA,NA,NA,NA,NA,NA,NA,NA,batch3hes,batch3hes,51,23,1,Screen 1,continueButton,response_rating_scale_likert_active,2489.1999999284744,NA,NA,Agree,1,0,1,0,NA,NA,NA,NA,1,statements,Everyone else is getting one,1,17/05/2021 11:17,17/05/2021 11:26,535,Most weeks,Most weeks,29,Female,-99,A levels,28,3,Against,For
26,1658936487199,27/07/2022 15:41:27,1658936487882,1,27/07/2022 16:41:27,94050,2,task-ig1e,NA,23334965,6847708,NA,complete,NA,62e15bb9db720d756053f011,computer,Desktop or Laptop,Windows 10,Chrome 103.0.0.0,1536x864,1519x722,NA,ITT Ratings,3,For,3,NA,ACCEPT,NA,NA,NA,NA,NA,NA,NA,NA,batch3hes,batch3hes,17,24,1,Screen 1,continueButton,response_rating_scale_likert_active,52446,NA,NA,Somewhat Agree,1,0,1,0,NA,NA,NA,NA,1,statements,I'm anxious about the long and short term side effects from having the vaccine,1,17/05/2021 11:20,17/05/2021 11:23,190,Most weeks,Most weeks,25,Female,-99,Vocational Training / Apprenticeship,23,2,Against,Against
27,1658936492736,27/07/2022 15:41:32,1658936493412,1,27/07/2022 16:41:33,94050,2,task-ig1e,NA,23334965,6847708,NA,complete,NA,62e15bb9db720d756053f011,computer,Desktop or Laptop,Windows 10,Chrome 103.0.0.0,1536x864,1519x722,NA,ITT Ratings,3,For,3,NA,ACCEPT,NA,NA,NA,NA,NA,NA,NA,NA,batch3hes,batch3hes,59,25,1,Screen 1,continueButton,response_rating_scale_likert_active,5513.600000023842,NA,NA,Somewhat Disagree,1,0,1,0,NA,NA,NA,NA,1,statements,"I do not trust how quickly the vaccine has been processed, neither who has made them",1,17/05/2021 11:19,17/05/2021 11:28,553,Most months,Most months,48,Female,-99,A levels,30,2,Against,Against
28,1658936496251,27/07/2022 15:41:36,1658936496928,1,27/07/2022 16:41:36,94050,2,task-ig1e,NA,23334965,6847708,NA,complete,NA,62e15bb9db720d756053f011,computer,Desktop or Laptop,Windows 10,Chrome 103.0.0.0,1536x864,1519x722,NA,ITT Ratings,3,For,3,NA,ACCEPT,NA,NA,NA,NA,NA,NA,NA,NA,batch3hes,batch3hes,19,26,1,Screen 1,continueButton,response_rating_scale_likert_active,3498.899999976158,NA,NA,Agree,1,0,1,0,NA,NA,NA,NA,1,statements,It is the best way to protect yourself and your loved ones,1,17/05/2021 11:20,17/05/2021 11:23,190,Most weeks,Most weeks,25,Female,-99,Vocational Training / Apprenticeship,23,1,Against,For
29,1658936498076,27/07/2022 15:41:38,1658936498315,1,27/07/2022 16:41:38,94050,2,task-ig1e,NA,23334965,6847708,NA,complete,NA,62e15bb9db720d756053f011,computer,Desktop or Laptop,Windows 10,Chrome 103.0.0.0,1536x864,1519x722,NA,ITT Ratings,3,For,3,NA,ACCEPT,NA,NA,NA,NA,NA,NA,NA,NA,batch3hes,batch3hes,40,27,1,Screen 1,continueButton,response_rating_scale_likert_active,1370.399999976158,NA,NA,Agree,1,0,1,0,NA,NA,NA,NA,1,statements,Produced effectively,1,17/05/2021 11:17,17/05/2021 11:25,451,Never,Never,28,Female,-99,A levels,27,1,Against,Against
30,1658936500102,27/07/2022 15:41:40,1658936500785,1,27/07/2022 16:41:40,94050,2,task-ig1e,NA,23334965,6847708,NA,complete,NA,62e15bb9db720d756053f011,computer,Desktop or Laptop,Windows 10,Chrome 103.0.0.0,1536x864,1519x722,NA,ITT Ratings,3,For,3,NA,ACCEPT,NA,NA,NA,NA,NA,NA,NA,NA,batch3hes,batch3hes,37,28,1,Screen 1,continueButton,response_rating_scale_likert_active,2455.1999999284744,NA,NA,Agree,1,0,1,0,NA,NA,NA,NA,1,statements,To get back to normality,1,17/05/2021 11:12,17/05/2021 11:25,781,Most weeks,Most months,44,Male,-99,A levels,26,1,Against,For
31,1658936503918,27/07/2022 15:41:43,1658936504602,1,27/07/2022 16:41:44,94050,2,task-ig1e,NA,23334965,6847708,NA,complete,NA,62e15bb9db720d756053f011,computer,Desktop or Laptop,Windows 10,Chrome 103.0.0.0,1536x864,1519x722,NA,ITT Ratings,3,For,3,NA,ACCEPT,NA,NA,NA,NA,NA,NA,NA,NA,batch3hes,batch3hes,62,29,1,Screen 1,continueButton,response_rating_scale_likert_active,3800.899999976158,NA,NA,Agree,1,0,1,0,NA,NA,NA,NA,1,statements,It protects us and other people,1,17/05/2021 11:19,17/05/2021 11:28,553,Most months,Most months,48,Female,-99,A levels,30,2,Against,For
32,1658936506839,27/07/2022 15:41:46,1658936507034,1,27/07/2022 16:41:47,94050,2,task-ig1e,NA,23334965,6847708,NA,complete,NA,62e15bb9db720d756053f011,computer,Desktop or Laptop,Windows 10,Chrome 103.0.0.0,1536x864,1519x722,NA,ITT Ratings,3,For,3,NA,ACCEPT,NA,NA,NA,NA,NA,NA,NA,NA,batch3hes,batch3hes,38,30,1,Screen 1,continueButton,response_rating_scale_likert_active,2416.600000023842,NA,NA,Agree,1,0,1,0,NA,NA,NA,NA,1,statements,Don't want to get sick of covid,1,17/05/2021 11:12,17/05/2021 11:25,781,Most weeks,Most months,44,Male,-99,A levels,26,2,Against,For
33,1658936515746,27/07/2022 15:41:55,1658936516429,1,27/07/2022 16:41:56,94050,2,task-ig1e,NA,23334965,6847708,NA,complete,NA,62e15bb9db720d756053f011,computer,Desktop or Laptop,Windows 10,Chrome 103.0.0.0,1536x864,1519x722,NA,ITT Ratings,3,For,3,NA,ACCEPT,NA,NA,NA,NA,NA,NA,NA,NA,batch3hes,batch3hes,2,31,1,Screen 1,continueButton,response_rating_scale_likert_active,9379.799999952316,NA,NA,Somewhat Agree,1,0,1,0,NA,NA,NA,NA,1,statements,We would like to check you are reading each argument carefully. Please select 'Somewhat Agree' for this answer,1,NA,NA,NA,NA,NA,NA,NA,NA,NA,NA,check1,NA,NA
34,1658936517770,27/07/2022 15:41:57,1658936518463,1,27/07/2022 16:41:58,94050,2,task-ig1e,NA,23334965,6847708,NA,complete,NA,62e15bb9db720d756053f011,computer,Desktop or Laptop,Windows 10,Chrome 103.0.0.0,1536x864,1519x722,NA,ITT Ratings,3,For,3,NA,ACCEPT,NA,NA,NA,NA,NA,NA,NA,NA,batch3hes,batch3hes,41,32,1,Screen 1,continueButton,response_rating_scale_likert_active,2000.5,NA,NA,Somewhat Agree,1,0,1,0,NA,NA,NA,NA,1,statements,Plenty of research been done,1,17/05/2021 11:17,17/05/2021 11:25,451,Never,Never,28,Female,-99,A levels,27,2,Against,Against
35,1658936540574,27/07/2022 15:42:20,1658936541259,1,27/07/2022 16:42:21,94050,2,task-ig1e,NA,23334965,6847708,NA,complete,NA,62e15bb9db720d756053f011,computer,Desktop or Laptop,Windows 10,Chrome 103.0.0.0,1536x864,1519x722,NA,ITT Ratings,3,For,3,NA,ACCEPT,NA,NA,NA,NA,NA,NA,NA,NA,batch3hes,batch3hes,24,33,1,Screen 1,continueButton,response_rating_scale_likert_active,22781.299999952316,NA,NA,Agree,1,0,1,0,NA,NA,NA,NA,1,statements,I don't have enough information on the possible long term effects of the vaccine.,1,17/05/2021 10:52,17/05/2021 11:24,1936,Most weeks,Most days,64,Male,-99,No formal qualifications,24,3,Against,Against
36,1658936544233,27/07/2022 15:42:24,1658936544921,1,27/07/2022 16:42:24,94050,2,task-ig1e,NA,23334965,6847708,NA,complete,NA,62e15bb9db720d756053f011,computer,Desktop or Laptop,Windows 10,Chrome 103.0.0.0,1536x864,1519x722,NA,ITT Ratings,3,For,3,NA,ACCEPT,NA,NA,NA,NA,NA,NA,NA,NA,batch3hes,batch3hes,58,34,1,Screen 1,continueButton,response_rating_scale_likert_active,3636.299999952316,NA,NA,Somewhat Agree,1,0,1,0,NA,NA,NA,NA,1,statements,"I do not want the side effects associated with the virus, such as blood clots, to effect me",1,17/05/2021 11:19,17/05/2021 11:28,553,Most months,Most months,48,Female,-99,A levels,30,1,Against,Against
37,1658936547187,27/07/2022 15:42:27,1658936547868,1,27/07/2022 16:42:27,94050,2,task-ig1e,NA,23334965,6847708,NA,complete,NA,62e15bb9db720d756053f011,computer,Desktop or Laptop,Windows 10,Chrome 103.0.0.0,1536x864,1519x722,NA,ITT Ratings,3,For,3,NA,ACCEPT,NA,NA,NA,NA,NA,NA,NA,NA,batch3hes,batch3hes,25,35,1,Screen 1,continueButton,response_rating_scale_likert_active,2930.600000023842,NA,NA,Agree,1,0,1,0,NA,NA,NA,NA,1,statements,I want the vaccine as soon as possible to protect myself from covid.,1,17/05/2021 10:52,17/05/2021 11:24,1936,Most weeks,Most days,64,Male,-99,No formal qualifications,24,1,Against,For
38,1658936550296,27/07/2022 15:42:30,1658936550992,1,27/07/2022 16:42:30,94050,2,task-ig1e,NA,23334965,6847708,NA,complete,NA,62e15bb9db720d756053f011,computer,Desktop or Laptop,Windows 10,Chrome 103.0.0.0,1536x864,1519x722,NA,ITT Ratings,3,For,3,NA,ACCEPT,NA,NA,NA,NA,NA,NA,NA,NA,batch3hes,batch3hes,49,36,1,Screen 1,continueButton,response_rating_scale_likert_active,3107.900000095367,NA,NA,Agree,1,0,1,0,NA,NA,NA,NA,1,statements,It's to protect myself and those around me,1,17/05/2021 11:17,17/05/2021 11:26,535,Most weeks,Most weeks,29,Female,-99,A levels,28,1,Against,For
