Event.Index,UTC.Timestamp,UTC.Date,Local.Timestamp,Local.Timezone,Local.Date,Experiment.ID,Experiment.Version,Tree.Node.Key,Repeat.Key,Schedule.ID,Participant.Private.ID,Participant.Starting.Group,Participant.Status,Participant.Completion.Code,Participant.External.Session.ID,Participant.Device.Type,Participant.Device,Participant.OS,Participant.Browser,Participant.Monitor.Size,Participant.Viewport.Size,Checkpoint,Task.Name,Task.Version,branch.69an,randomiser.8vg2,quota.bqtt,quota.rycs,quota.wtfi,quota.usve,quota.zgic,quota.f3yz,quota.r9vy,quota.tfqq,quota.3dga,quota.dtj6,Spreadsheet,Spreadsheet.Name,Spreadsheet.Row,Trial.Number,Screen.Number,Screen.Name,Zone.Name,Zone.Type,Reaction.Time,Reaction.Onset,Response.Type,Response,Attempt,Correct,Incorrect,Dishonest,X.Coordinate,Y.Coordinate,Timed.Out,randomise_blocks,randomise_trials,display,Arguments,ShowProgressBar,StartDate,EndDate,Duration,discuss_1,read_1,age,gender,gender_4_TEXT,edu,ID,arg_ID,Position,Arg_Position
1,1658935616284,27/07/2022 15:26:56,1658935616108,1,27/07/2022 16:26:56,94050,2,task-net4,NA,23334600,6847601,NA,complete,NA,62e1592597d05f14958cf798,computer,Desktop or Laptop,Mac OS 10.15.7,Opera 88.0.4412.85,1280x800,1239x700,NA,ITT Ratings,3,For,8,NA,NA,NA,NA,NA,NA,ACCEPT,NA,NA,NA,batch8hes,NA,NA,BEGIN TASK,NA,NA,NA,NA,NA,NA,NA,NA,NA,0,1,0,NA,NA,NA,NA,NA,NA,NA,NA,NA,NA,NA,NA,NA,NA,NA,NA,NA,NA,NA,NA,NA
2,1658935618430,27/07/2022 15:26:58,1658935618276,1,27/07/2022 16:26:58,94050,2,task-net4,NA,23334600,6847601,NA,complete,NA,62e1592597d05f14958cf798,computer,Desktop or Laptop,Mac OS 10.15.7,Opera 88.0.4412.85,1280x800,1239x700,NA,ITT Ratings,3,For,8,NA,NA,NA,NA,NA,NA,ACCEPT,NA,NA,NA,batch8hes,batch8hes,1,1,1,Screen 1,advancementZone,continue_button,2122.29999999702,NA,NA,NA,NA,0,1,0,NA,NA,NA,NA,NA,instructions,NA,NA,NA,NA,NA,NA,NA,NA,NA,NA,NA,NA,NA,NA,NA
3,1658935622347,27/07/2022 15:27:02,1658935622175,1,27/07/2022 16:27:02,94050,2,task-net4,NA,23334600,6847601,NA,complete,NA,62e1592597d05f14958cf798,computer,Desktop or Laptop,Mac OS 10.15.7,Opera 88.0.4412.85,1280x800,1239x700,NA,ITT Ratings,3,For,8,NA,NA,NA,NA,NA,NA,ACCEPT,NA,NA,NA,batch8hes,batch8hes,44,1,1,Screen 1,continueButton,response_rating_scale_likert_active,3879,NA,NA,Strongly Agree,1,0,1,0,NA,NA,NA,NA,1,statements,it could stop me ending up in hospital,1,17/05/2021 12:43,17/05/2021 12:54,646,Rarely,Never,58,Female,-99,GCSEs,77,2,Against,For
4,1658935623478,27/07/2022 15:27:03,1658935623327,1,27/07/2022 16:27:03,94050,2,task-net4,NA,23334600,6847601,NA,complete,NA,62e1592597d05f14958cf798,computer,Desktop or Laptop,Mac OS 10.15.7,Opera 88.0.4412.85,1280x800,1239x700,NA,ITT Ratings,3,For,8,NA,NA,NA,NA,NA,NA,ACCEPT,NA,NA,NA,batch8hes,batch8hes,27,2,1,Screen 1,continueButton,response_rating_scale_likert_active,1132.9000000059605,NA,NA,Strongly Agree,1,0,1,0,NA,NA,NA,NA,1,statements,It will allow me to move more freely,1,17/05/2021 12:14,17/05/2021 12:45,1854,Most weeks,Most days,38,Female,-99,"Vocational Training / Apprenticeship,A levels",74,3,Against,For
5,1658935627747,27/07/2022 15:27:07,1658935627612,1,27/07/2022 16:27:07,94050,2,task-net4,NA,23334600,6847601,NA,complete,NA,62e1592597d05f14958cf798,computer,Desktop or Laptop,Mac OS 10.15.7,Opera 88.0.4412.85,1280x800,1239x700,NA,ITT Ratings,3,For,8,NA,NA,NA,NA,NA,NA,ACCEPT,NA,NA,NA,batch8hes,batch8hes,34,3,1,Screen 1,continueButton,response_rating_scale_likert_active,4269.399999991059,NA,NA,Disagree,1,0,1,0,NA,NA,NA,NA,1,statements,Questions on infertility.,1,17/05/2021 12:38,17/05/2021 12:53,872,Rarely,Never,23,Female,-99,A levels,76,1,Against,Against
6,1658935629406,27/07/2022 15:27:09,1658935629263,1,27/07/2022 16:27:09,94050,2,task-net4,NA,23334600,6847601,NA,complete,NA,62e1592597d05f14958cf798,computer,Desktop or Laptop,Mac OS 10.15.7,Opera 88.0.4412.85,1280x800,1239x700,NA,ITT Ratings,3,For,8,NA,NA,NA,NA,NA,NA,ACCEPT,NA,NA,NA,batch8hes,batch8hes,38,4,1,Screen 1,continueButton,response_rating_scale_likert_active,1631.7999999970198,NA,NA,Strongly Agree,1,0,1,0,NA,NA,NA,NA,1,statements,Ability to travel in the future.,1,17/05/2021 12:38,17/05/2021 12:53,872,Rarely,Never,23,Female,-99,A levels,76,2,Against,For
7,1658935632286,27/07/2022 15:27:12,1658935632147,1,27/07/2022 16:27:12,94050,2,task-net4,NA,23334600,6847601,NA,complete,NA,62e1592597d05f14958cf798,computer,Desktop or Laptop,Mac OS 10.15.7,Opera 88.0.4412.85,1280x800,1239x700,NA,ITT Ratings,3,For,8,NA,NA,NA,NA,NA,NA,ACCEPT,NA,NA,NA,batch8hes,batch8hes,59,5,1,Screen 1,continueButton,response_rating_scale_likert_active,2867.0999999940395,NA,NA,Somewhat Disagree,1,0,1,0,NA,NA,NA,NA,1,statements,pharmaceutical companies and government want to get rich and control us,1,##########,##########,1258,Most weeks,Most weeks,37,Female,-99,"Undergraduate degree (BSc, BA)",80,2,Against,Against
8,1658935634324,27/07/2022 15:27:14,1658935634183,1,27/07/2022 16:27:14,94050,2,task-net4,NA,23334600,6847601,NA,complete,NA,62e1592597d05f14958cf798,computer,Desktop or Laptop,Mac OS 10.15.7,Opera 88.0.4412.85,1280x800,1239x700,NA,ITT Ratings,3,For,8,NA,NA,NA,NA,NA,NA,ACCEPT,NA,NA,NA,batch8hes,batch8hes,16,6,1,Screen 1,continueButton,response_rating_scale_likert_active,2017.800000011921,NA,NA,Strongly Disagree,1,0,1,0,NA,NA,NA,NA,1,statements,I do not trust the vaccine,1,17/05/2021 12:24,17/05/2021 12:44,1203,A few times a year,Rarely,28,Female,-99,A levels,73,1,Against,Against
9,1658935641860,27/07/2022 15:27:21,1658935641719,1,27/07/2022 16:27:21,94050,2,task-net4,NA,23334600,6847601,NA,complete,NA,62e1592597d05f14958cf798,computer,Desktop or Laptop,Mac OS 10.15.7,Opera 88.0.4412.85,1280x800,1239x700,NA,ITT Ratings,3,For,8,NA,NA,NA,NA,NA,NA,ACCEPT,NA,NA,NA,batch8hes,batch8hes,6,7,1,Screen 1,continueButton,response_rating_scale_likert_active,7518.29999999702,NA,NA,Somewhat Disagree,1,0,1,0,NA,NA,NA,NA,1,statements,Other trials such as that for thalidomide that were rushed provide an example of why i should be hesitant to get a jab so soon,1,17/05/2021 12:20,17/05/2021 12:39,1161,Rarely,A few times a year,35,Female,-99,"Undergraduate degree (BSc, BA)",71,3,Against,Against
10,1658935650396,27/07/2022 15:27:30,1658935650241,1,27/07/2022 16:27:30,94050,2,task-net4,NA,23334600,6847601,NA,complete,NA,62e1592597d05f14958cf798,computer,Desktop or Laptop,Mac OS 10.15.7,Opera 88.0.4412.85,1280x800,1239x700,NA,ITT Ratings,3,For,8,NA,NA,NA,NA,NA,NA,ACCEPT,NA,NA,NA,batch8hes,batch8hes,15,8,1,Screen 1,continueButton,response_rating_scale_likert_active,8504.699999988079,NA,NA,Strongly Agree,1,0,1,0,NA,NA,NA,NA,1,statements,"Even if one is not vulnerable to the virus, getting vaccinated will reduce community transmission and therefore protect those who are.",1,17/05/2021 12:04,17/05/2021 12:41,2201,Most weeks,Rarely,22,Male,-99,"Undergraduate degree (BSc, BA)",72,3,Against,For
11,1658935654163,27/07/2022 15:27:34,1658935654025,1,27/07/2022 16:27:34,94050,2,task-net4,NA,23334600,6847601,NA,complete,NA,62e1592597d05f14958cf798,computer,Desktop or Laptop,Mac OS 10.15.7,Opera 88.0.4412.85,1280x800,1239x700,NA,ITT Ratings,3,For,8,NA,NA,NA,NA,NA,NA,ACCEPT,NA,NA,NA,batch8hes,batch8hes,57,9,1,Screen 1,continueButton,response_rating_scale_likert_active,3767.099999994039,NA,NA,Somewhat Agree,1,0,1,0,NA,NA,NA,NA,1,statements,I think i will get it if i dont get a vaccination,1,17/05/2021 12:41,17/05/2021 12:54,805,Most weeks,Most weeks,55,Female,-99,A levels,79,3,Against,For
12,1658935657635,27/07/2022 15:27:37,1658935657492,1,27/07/2022 16:27:37,94050,2,task-net4,NA,23334600,6847601,NA,complete,NA,62e1592597d05f14958cf798,computer,Desktop or Laptop,Mac OS 10.15.7,Opera 88.0.4412.85,1280x800,1239x700,NA,ITT Ratings,3,For,8,NA,NA,NA,NA,NA,NA,ACCEPT,NA,NA,NA,batch8hes,batch8hes,36,10,1,Screen 1,continueButton,response_rating_scale_likert_active,3437,NA,NA,Disagree,1,0,1,0,NA,NA,NA,NA,1,statements,Enough evidence it even works?,1,17/05/2021 12:38,17/05/2021 12:53,872,Rarely,Never,23,Female,-99,A levels,76,3,Against,Against
13,1658935662145,27/07/2022 15:27:42,1658935661995,1,27/07/2022 16:27:41,94050,2,task-net4,NA,23334600,6847601,NA,complete,NA,62e1592597d05f14958cf798,computer,Desktop or Laptop,Mac OS 10.15.7,Opera 88.0.4412.85,1280x800,1239x700,NA,ITT Ratings,3,For,8,NA,NA,NA,NA,NA,NA,ACCEPT,NA,NA,NA,batch8hes,batch8hes,60,11,1,Screen 1,continueButton,response_rating_scale_likert_active,4484.5,NA,NA,Somewhat Agree,1,0,1,0,NA,NA,NA,NA,1,statements,the virus mutates and existing vaccines are not effective,1,##########,##########,1258,Most weeks,Most weeks,37,Female,-99,"Undergraduate degree (BSc, BA)",80,3,Against,Against
14,1658935671468,27/07/2022 15:27:51,1658935671332,1,27/07/2022 16:27:51,94050,2,task-net4,NA,23334600,6847601,NA,complete,NA,62e1592597d05f14958cf798,computer,Desktop or Laptop,Mac OS 10.15.7,Opera 88.0.4412.85,1280x800,1239x700,NA,ITT Ratings,3,For,8,NA,NA,NA,NA,NA,NA,ACCEPT,NA,NA,NA,batch8hes,batch8hes,8,12,1,Screen 1,continueButton,response_rating_scale_likert_active,9318.59999999404,NA,NA,Strongly Agree,1,0,1,0,NA,NA,NA,NA,1,statements,"If you don't get a vaccination, you are being selfish on the rest of the nation. Vaccinations are the only way to get out of lockdown and save our economy.",1,17/05/2021 12:20,17/05/2021 12:39,1161,Rarely,A few times a year,35,Female,-99,"Undergraduate degree (BSc, BA)",71,2,Against,For
15,1658935675176,27/07/2022 15:27:55,1658935675034,1,27/07/2022 16:27:55,94050,2,task-net4,NA,23334600,6847601,NA,complete,NA,62e1592597d05f14958cf798,computer,Desktop or Laptop,Mac OS 10.15.7,Opera 88.0.4412.85,1280x800,1239x700,NA,ITT Ratings,3,For,8,NA,NA,NA,NA,NA,NA,ACCEPT,NA,NA,NA,batch8hes,batch8hes,62,13,1,Screen 1,continueButton,response_rating_scale_likert_active,3686.5,NA,NA,Somewhat Agree,1,0,1,0,NA,NA,NA,NA,1,statements,vaccines were tested and safe,1,##########,##########,1258,Most weeks,Most weeks,37,Female,-99,"Undergraduate degree (BSc, BA)",80,2,Against,For
16,1658935704828,27/07/2022 15:28:24,1658935704682,1,27/07/2022 16:28:24,94050,2,task-net4,NA,23334600,6847601,NA,complete,NA,62e1592597d05f14958cf798,computer,Desktop or Laptop,Mac OS 10.15.7,Opera 88.0.4412.85,1280x800,1239x700,NA,ITT Ratings,3,For,8,NA,NA,NA,NA,NA,NA,ACCEPT,NA,NA,NA,batch8hes,batch8hes,11,14,1,Screen 1,continueButton,response_rating_scale_likert_active,29631.90000000596,NA,NA,Neither Agree nor Disagree,1,0,1,0,NA,NA,NA,NA,1,statements,"The vaccines that use mRNA and involve genetically modified primates are a new technique, compared to vaccines that use weakened or deactivated pathogens.",1,17/05/2021 12:04,17/05/2021 12:41,2201,Most weeks,Rarely,22,Male,-99,"Undergraduate degree (BSc, BA)",72,2,Against,Against
17,1658935706892,27/07/2022 15:28:26,1658935706750,1,27/07/2022 16:28:26,94050,2,task-net4,NA,23334600,6847601,NA,complete,NA,62e1592597d05f14958cf798,computer,Desktop or Laptop,Mac OS 10.15.7,Opera 88.0.4412.85,1280x800,1239x700,NA,ITT Ratings,3,For,8,NA,NA,NA,NA,NA,NA,ACCEPT,NA,NA,NA,batch8hes,batch8hes,51,15,1,Screen 1,continueButton,response_rating_scale_likert_active,2050.300000011921,NA,NA,Somewhat Agree,1,0,1,0,NA,NA,NA,NA,1,statements,I just want to do my bit,1,17/05/2021 12:39,17/05/2021 12:54,901,Most months,Rarely,46,Female,-99,Vocational Training / Apprenticeship,78,3,Against,For
18,1658935708884,27/07/2022 15:28:28,1658935708751,1,27/07/2022 16:28:28,94050,2,task-net4,NA,23334600,6847601,NA,complete,NA,62e1592597d05f14958cf798,computer,Desktop or Laptop,Mac OS 10.15.7,Opera 88.0.4412.85,1280x800,1239x700,NA,ITT Ratings,3,For,8,NA,NA,NA,NA,NA,NA,ACCEPT,NA,NA,NA,batch8hes,batch8hes,52,16,1,Screen 1,continueButton,response_rating_scale_likert_active,1985,NA,NA,Strongly Disagree,1,0,1,0,NA,NA,NA,NA,1,statements,There is history of thrombosis in my family,1,17/05/2021 12:41,17/05/2021 12:54,805,Most weeks,Most weeks,55,Female,-99,A levels,79,1,Against,Against
19,1658935713066,27/07/2022 15:28:33,1658935712854,1,27/07/2022 16:28:32,94050,2,task-net4,NA,23334600,6847601,NA,complete,NA,62e1592597d05f14958cf798,computer,Desktop or Laptop,Mac OS 10.15.7,Opera 88.0.4412.85,1280x800,1239x700,NA,ITT Ratings,3,For,8,NA,NA,NA,NA,NA,NA,ACCEPT,NA,NA,NA,batch8hes,batch8hes,63,17,1,Screen 1,continueButton,response_rating_scale_likert_active,4088.8999999910593,NA,NA,Agree,1,0,1,0,NA,NA,NA,NA,1,statements,consequences after covid19 are more serious than side effects after vaccine,1,##########,##########,1258,Most weeks,Most weeks,37,Female,-99,"Undergraduate degree (BSc, BA)",80,3,Against,For
20,1658935715952,27/07/2022 15:28:35,1658935715804,1,27/07/2022 16:28:35,94050,2,task-net4,NA,23334600,6847601,NA,complete,NA,62e1592597d05f14958cf798,computer,Desktop or Laptop,Mac OS 10.15.7,Opera 88.0.4412.85,1280x800,1239x700,NA,ITT Ratings,3,For,8,NA,NA,NA,NA,NA,NA,ACCEPT,NA,NA,NA,batch8hes,batch8hes,37,18,1,Screen 1,continueButton,response_rating_scale_likert_active,2933.1000000089407,NA,NA,Agree,1,0,1,0,NA,NA,NA,NA,1,statements,Need to clear the virus.,1,17/05/2021 12:38,17/05/2021 12:53,872,Rarely,Never,23,Female,-99,A levels,76,1,Against,For
21,1658935718617,27/07/2022 15:28:38,1658935718474,1,27/07/2022 16:28:38,94050,2,task-net4,NA,23334600,6847601,NA,complete,NA,62e1592597d05f14958cf798,computer,Desktop or Laptop,Mac OS 10.15.7,Opera 88.0.4412.85,1280x800,1239x700,NA,ITT Ratings,3,For,8,NA,NA,NA,NA,NA,NA,ACCEPT,NA,NA,NA,batch8hes,batch8hes,55,19,1,Screen 1,continueButton,response_rating_scale_likert_active,2655.3999999910593,NA,NA,Neither Agree nor Disagree,1,0,1,0,NA,NA,NA,NA,1,statements,I can go back to work,1,17/05/2021 12:41,17/05/2021 12:54,805,Most weeks,Most weeks,55,Female,-99,A levels,79,1,Against,For
22,1658935775655,27/07/2022 15:29:35,1658935775516,1,27/07/2022 16:29:35,94050,2,task-net4,NA,23334600,6847601,NA,complete,NA,62e1592597d05f14958cf798,computer,Desktop or Laptop,Mac OS 10.15.7,Opera 88.0.4412.85,1280x800,1239x700,NA,ITT Ratings,3,For,8,NA,NA,NA,NA,NA,NA,ACCEPT,NA,NA,NA,batch8hes,batch8hes,47,20,1,Screen 1,continueButton,response_rating_scale_likert_active,57024.70000000298,NA,NA,Strongly Disagree,1,0,1,0,NA,NA,NA,NA,1,statements,I have an allergy to one of the ingredients,1,17/05/2021 12:39,17/05/2021 12:54,901,Most months,Rarely,46,Female,-99,Vocational Training / Apprenticeship,78,2,Against,Against
23,1658935779155,27/07/2022 15:29:39,1658935779017,1,27/07/2022 16:29:39,94050,2,task-net4,NA,23334600,6847601,NA,complete,NA,62e1592597d05f14958cf798,computer,Desktop or Laptop,Mac OS 10.15.7,Opera 88.0.4412.85,1280x800,1239x700,NA,ITT Ratings,3,For,8,NA,NA,NA,NA,NA,NA,ACCEPT,NA,NA,NA,batch8hes,batch8hes,56,21,1,Screen 1,continueButton,response_rating_scale_likert_active,3485.0999999940395,NA,NA,Neither Agree nor Disagree,1,0,1,0,NA,NA,NA,NA,1,statements,I dont want to wear a mask,1,17/05/2021 12:41,17/05/2021 12:54,805,Most weeks,Most weeks,55,Female,-99,A levels,79,2,Against,For
24,1658935782546,27/07/2022 15:29:42,1658935782404,1,27/07/2022 16:29:42,94050,2,task-net4,NA,23334600,6847601,NA,complete,NA,62e1592597d05f14958cf798,computer,Desktop or Laptop,Mac OS 10.15.7,Opera 88.0.4412.85,1280x800,1239x700,NA,ITT Ratings,3,For,8,NA,NA,NA,NA,NA,NA,ACCEPT,NA,NA,NA,batch8hes,batch8hes,32,22,1,Screen 1,continueButton,response_rating_scale_likert_active,3372.699999988079,NA,NA,Strongly Disagree,1,0,1,0,NA,NA,NA,NA,1,statements,"I need it to work , my company is insisting that we must have it. I don't want to get the sack",1,17/05/2021 12:22,17/05/2021 12:47,1508,A few times a year,Never,54,Female,-99,Vocational Training / Apprenticeship,75,2,Against,For
25,1658935943030,27/07/2022 15:32:23,1658935942831,1,27/07/2022 16:32:22,94050,2,task-net4,NA,23334600,6847601,NA,complete,NA,62e1592597d05f14958cf798,computer,Desktop or Laptop,Mac OS 10.15.7,Opera 88.0.4412.85,1280x800,1239x700,NA,ITT Ratings,3,For,8,NA,NA,NA,NA,NA,NA,ACCEPT,NA,NA,NA,batch8hes,batch8hes,10,23,1,Screen 1,continueButton,response_rating_scale_likert_active,160410.10000000894,NA,NA,Somewhat Agree,1,0,1,0,NA,NA,NA,NA,1,statements,"The vaccine received emergency approval, and consequently there is limited long-term data available.",1,17/05/2021 12:04,17/05/2021 12:41,2201,Most weeks,Rarely,22,Male,-99,"Undergraduate degree (BSc, BA)",72,1,Against,Against
26,1658936005392,27/07/2022 15:33:25,1658936005224,1,27/07/2022 16:33:25,94050,2,task-net4,NA,23334600,6847601,NA,complete,NA,62e1592597d05f14958cf798,computer,Desktop or Laptop,Mac OS 10.15.7,Opera 88.0.4412.85,1280x800,1239x700,NA,ITT Ratings,3,For,8,NA,NA,NA,NA,NA,NA,ACCEPT,NA,NA,NA,batch8hes,batch8hes,46,24,1,Screen 1,continueButton,response_rating_scale_likert_active,62376,NA,NA,Strongly Disagree,1,0,1,0,NA,NA,NA,NA,1,statements,Because I have an autoimmune disease and cant have it,1,17/05/2021 12:39,17/05/2021 12:54,901,Most months,Rarely,46,Female,-99,Vocational Training / Apprenticeship,78,1,Against,Against
27,1658936008711,27/07/2022 15:33:28,1658936008559,1,27/07/2022 16:33:28,94050,2,task-net4,NA,23334600,6847601,NA,complete,NA,62e1592597d05f14958cf798,computer,Desktop or Laptop,Mac OS 10.15.7,Opera 88.0.4412.85,1280x800,1239x700,NA,ITT Ratings,3,For,8,NA,NA,NA,NA,NA,NA,ACCEPT,NA,NA,NA,batch8hes,batch8hes,28,25,1,Screen 1,continueButton,response_rating_scale_likert_active,3318.0999999940395,NA,NA,Disagree,1,0,1,0,NA,NA,NA,NA,1,statements,I have seen videos of people who have had reactions to the vacine,1,17/05/2021 12:22,17/05/2021 12:47,1508,A few times a year,Never,54,Female,-99,Vocational Training / Apprenticeship,75,1,Against,Against
28,1658936014232,27/07/2022 15:33:34,1658936014079,1,27/07/2022 16:33:34,94050,2,task-net4,NA,23334600,6847601,NA,complete,NA,62e1592597d05f14958cf798,computer,Desktop or Laptop,Mac OS 10.15.7,Opera 88.0.4412.85,1280x800,1239x700,NA,ITT Ratings,3,For,8,NA,NA,NA,NA,NA,NA,ACCEPT,NA,NA,NA,batch8hes,batch8hes,61,26,1,Screen 1,continueButton,response_rating_scale_likert_active,5504.5999999940395,NA,NA,Agree,1,0,1,0,NA,NA,NA,NA,1,statements,the vaccine will help protect the entire population of the planet,1,##########,##########,1258,Most weeks,Most weeks,37,Female,-99,"Undergraduate degree (BSc, BA)",80,1,Against,For
29,1658936066792,27/07/2022 15:34:26,1658936066637,1,27/07/2022 16:34:26,94050,2,task-net4,NA,23334600,6847601,NA,complete,NA,62e1592597d05f14958cf798,computer,Desktop or Laptop,Mac OS 10.15.7,Opera 88.0.4412.85,1280x800,1239x700,NA,ITT Ratings,3,For,8,NA,NA,NA,NA,NA,NA,ACCEPT,NA,NA,NA,batch8hes,batch8hes,7,27,1,Screen 1,continueButton,response_rating_scale_likert_active,52541.40000000596,NA,NA,Somewhat Disagree,1,0,1,0,NA,NA,NA,NA,1,statements,"There have not been many particularly negative side effects reported yet, therefor its absolutely safe.",1,17/05/2021 12:20,17/05/2021 12:39,1161,Rarely,A few times a year,35,Female,-99,"Undergraduate degree (BSc, BA)",71,1,Against,For
30,1658936070639,27/07/2022 15:34:30,1658936070488,1,27/07/2022 16:34:30,94050,2,task-net4,NA,23334600,6847601,NA,complete,NA,62e1592597d05f14958cf798,computer,Desktop or Laptop,Mac OS 10.15.7,Opera 88.0.4412.85,1280x800,1239x700,NA,ITT Ratings,3,For,8,NA,NA,NA,NA,NA,NA,ACCEPT,NA,NA,NA,batch8hes,batch8hes,5,28,1,Screen 1,continueButton,response_rating_scale_likert_active,3831.6000000089407,NA,NA,Neither Agree nor Disagree,1,0,1,0,NA,NA,NA,NA,1,statements,"I can wait as the rest of the population gets one, group immunity will help protect me too.",1,17/05/2021 12:20,17/05/2021 12:39,1161,Rarely,A few times a year,35,Female,-99,"Undergraduate degree (BSc, BA)",71,2,Against,Against
31,1658936074719,27/07/2022 15:34:34,1658936074573,1,27/07/2022 16:34:34,94050,2,task-net4,NA,23334600,6847601,NA,complete,NA,62e1592597d05f14958cf798,computer,Desktop or Laptop,Mac OS 10.15.7,Opera 88.0.4412.85,1280x800,1239x700,NA,ITT Ratings,3,For,8,NA,NA,NA,NA,NA,NA,ACCEPT,NA,NA,NA,batch8hes,batch8hes,12,29,1,Screen 1,continueButton,response_rating_scale_likert_active,4069.400000005961,NA,NA,Strongly Disagree,1,0,1,0,NA,NA,NA,NA,1,statements,"COVID-19 has an extraordinarily low mortality rate in healthy young people, so it is not worth taking the vaccine unless one is elderly or has conditions such as an autoimmune disease.",1,17/05/2021 12:04,17/05/2021 12:41,2201,Most weeks,Rarely,22,Male,-99,"Undergraduate degree (BSc, BA)",72,3,Against,Against
32,1658936076829,27/07/2022 15:34:36,1658936076675,1,27/07/2022 16:34:36,94050,2,task-net4,NA,23334600,6847601,NA,complete,NA,62e1592597d05f14958cf798,computer,Desktop or Laptop,Mac OS 10.15.7,Opera 88.0.4412.85,1280x800,1239x700,NA,ITT Ratings,3,For,8,NA,NA,NA,NA,NA,NA,ACCEPT,NA,NA,NA,batch8hes,batch8hes,24,30,1,Screen 1,continueButton,response_rating_scale_likert_active,2086.79999999702,NA,NA,Disagree,1,0,1,0,NA,NA,NA,NA,1,statements,I don't like being forced to do something.,1,17/05/2021 12:14,17/05/2021 12:45,1854,Most weeks,Most days,38,Female,-99,"Vocational Training / Apprenticeship,A levels",74,3,Against,Against
33,1658936078712,27/07/2022 15:34:38,1658936078561,1,27/07/2022 16:34:38,94050,2,task-net4,NA,23334600,6847601,NA,complete,NA,62e1592597d05f14958cf798,computer,Desktop or Laptop,Mac OS 10.15.7,Opera 88.0.4412.85,1280x800,1239x700,NA,ITT Ratings,3,For,8,NA,NA,NA,NA,NA,NA,ACCEPT,NA,NA,NA,batch8hes,batch8hes,45,31,1,Screen 1,continueButton,response_rating_scale_likert_active,1870.5,NA,NA,Agree,1,0,1,0,NA,NA,NA,NA,1,statements,i want life back to normal so will take it,1,17/05/2021 12:43,17/05/2021 12:54,646,Rarely,Never,58,Female,-99,GCSEs,77,3,Against,For
34,1658936081671,27/07/2022 15:34:41,1658936081510,1,27/07/2022 16:34:41,94050,2,task-net4,NA,23334600,6847601,NA,complete,NA,62e1592597d05f14958cf798,computer,Desktop or Laptop,Mac OS 10.15.7,Opera 88.0.4412.85,1280x800,1239x700,NA,ITT Ratings,3,For,8,NA,NA,NA,NA,NA,NA,ACCEPT,NA,NA,NA,batch8hes,batch8hes,22,32,1,Screen 1,continueButton,response_rating_scale_likert_active,2933.70000000298,NA,NA,Disagree,1,0,1,0,NA,NA,NA,NA,1,statements,I'm worried it will make me ill,1,17/05/2021 12:14,17/05/2021 12:45,1854,Most weeks,Most days,38,Female,-99,"Vocational Training / Apprenticeship,A levels",74,1,Against,Against
35,1658936103156,27/07/2022 15:35:03,1658936103005,1,27/07/2022 16:35:03,94050,2,task-net4,NA,23334600,6847601,NA,complete,NA,62e1592597d05f14958cf798,computer,Desktop or Laptop,Mac OS 10.15.7,Opera 88.0.4412.85,1280x800,1239x700,NA,ITT Ratings,3,For,8,NA,NA,NA,NA,NA,NA,ACCEPT,NA,NA,NA,batch8hes,batch8hes,39,33,1,Screen 1,continueButton,response_rating_scale_likert_active,21481,NA,NA,Strongly Disagree,1,0,1,0,NA,NA,NA,NA,1,statements,Risk of getting virus is low.,1,17/05/2021 12:38,17/05/2021 12:53,872,Rarely,Never,23,Female,-99,A levels,76,3,Against,For
36,1658936125896,27/07/2022 15:35:25,1658936125731,1,27/07/2022 16:35:25,94050,2,task-net4,NA,23334600,6847601,NA,complete,NA,62e1592597d05f14958cf798,computer,Desktop or Laptop,Mac OS 10.15.7,Opera 88.0.4412.85,1280x800,1239x700,NA,ITT Ratings,3,For,8,NA,NA,NA,NA,NA,NA,ACCEPT,NA,NA,NA,batch8hes,batch8hes,40,34,1,Screen 1,continueButton,response_rating_scale_likert_active,22710.39999999106,NA,NA,Disagree,1,0,1,0,NA,NA,NA,NA,1,statements,i dont want a vaccine as i dont trust it,1,17/05/2021 12:43,17/05/2021 12:54,646,Rarely,Never,58,Female,-99,GCSEs,77,1,Against,Against
37,1658936129131,27/07/2022 15:35:29,1658936128966,1,27/07/2022 16:35:28,94050,2,task-net4,NA,23334600,6847601,NA,complete,NA,62e1592597d05f14958cf798,computer,Desktop or Laptop,Mac OS 10.15.7,Opera 88.0.4412.85,1280x800,1239x700,NA,ITT Ratings,3,For,8,NA,NA,NA,NA,NA,NA,ACCEPT,NA,NA,NA,batch8hes,batch8hes,53,35,1,Screen 1,continueButton,response_rating_scale_likert_active,3218.5999999940395,NA,NA,Somewhat Disagree,1,0,1,0,NA,NA,NA,NA,1,statements,IT wont stop me getting it anyway,1,17/05/2021 12:41,17/05/2021 12:54,805,Most weeks,Most weeks,55,Female,-99,A levels,79,2,Against,Against
38,1658936132407,27/07/2022 15:35:32,1658936132252,1,27/07/2022 16:35:32,94050,2,task-net4,NA,23334600,6847601,NA,complete,NA,62e1592597d05f14958cf798,computer,Desktop or Laptop,Mac OS 10.15.7,Opera 88.0.4412.85,1280x800,1239x700,NA,ITT Ratings,3,For,8,NA,NA,NA,NA,NA,NA,ACCEPT,NA,NA,NA,batch8hes,batch8hes,29,36,1,Screen 1,continueButton,response_rating_scale_likert_active,3267.3999999910593,NA,NA,Neither Agree nor Disagree,1,0,1,0,NA,NA,NA,NA,1,statements,My Children do not want me to have it,1,17/05/2021 12:22,17/05/2021 12:47,1508,A few times a year,Never,54,Female,-99,Vocational Training / Apprenticeship,75,2,Against,Against
39,1658936134227,27/07/2022 15:35:34,1658936134072,1,27/07/2022 16:35:34,94050,2,task-net4,NA,23334600,6847601,NA,complete,NA,62e1592597d05f14958cf798,computer,Desktop or Laptop,Mac OS 10.15.7,Opera 88.0.4412.85,1280x800,1239x700,NA,ITT Ratings,3,For,8,NA,NA,NA,NA,NA,NA,ACCEPT,NA,NA,NA,batch8hes,batch8hes,42,37,1,Screen 1,continueButton,response_rating_scale_likert_active,1801.5999999940395,NA,NA,Disagree,1,0,1,0,NA,NA,NA,NA,1,statements,its not been tested enough,1,17/05/2021 12:43,17/05/2021 12:54,646,Rarely,Never,58,Female,-99,GCSEs,77,3,Against,Against
40,1658936136506,27/07/2022 15:35:36,1658936136353,1,27/07/2022 16:35:36,94050,2,task-net4,NA,23334600,6847601,NA,complete,NA,62e1592597d05f14958cf798,computer,Desktop or Laptop,Mac OS 10.15.7,Opera 88.0.4412.85,1280x800,1239x700,NA,ITT Ratings,3,For,8,NA,NA,NA,NA,NA,NA,ACCEPT,NA,NA,NA,batch8hes,batch8hes,35,38,1,Screen 1,continueButton,response_rating_scale_likert_active,2263.5,NA,NA,Somewhat Disagree,1,0,1,0,NA,NA,NA,NA,1,statements,Not enough time put into the research and development.,1,17/05/2021 12:38,17/05/2021 12:53,872,Rarely,Never,23,Female,-99,A levels,76,2,Against,Against
41,1658936138075,27/07/2022 15:35:38,1658936137905,1,27/07/2022 16:35:37,94050,2,task-net4,NA,23334600,6847601,NA,complete,NA,62e1592597d05f14958cf798,computer,Desktop or Laptop,Mac OS 10.15.7,Opera 88.0.4412.85,1280x800,1239x700,NA,ITT Ratings,3,For,8,NA,NA,NA,NA,NA,NA,ACCEPT,NA,NA,NA,batch8hes,batch8hes,26,39,1,Screen 1,continueButton,response_rating_scale_likert_active,1536.5999999940395,NA,NA,Agree,1,0,1,0,NA,NA,NA,NA,1,statements,It will protect the vulnerable groups,1,17/05/2021 12:14,17/05/2021 12:45,1854,Most weeks,Most days,38,Female,-99,"Vocational Training / Apprenticeship,A levels",74,2,Against,For
42,1658936141521,27/07/2022 15:35:41,1658936141372,1,27/07/2022 16:35:41,94050,2,task-net4,NA,23334600,6847601,NA,complete,NA,62e1592597d05f14958cf798,computer,Desktop or Laptop,Mac OS 10.15.7,Opera 88.0.4412.85,1280x800,1239x700,NA,ITT Ratings,3,For,8,NA,NA,NA,NA,NA,NA,ACCEPT,NA,NA,NA,batch8hes,batch8hes,13,40,1,Screen 1,continueButton,response_rating_scale_likert_active,3448.5999999940395,NA,NA,Neither Agree nor Disagree,1,0,1,0,NA,NA,NA,NA,1,statements,It has been tested and approved by state medical regulators.,1,17/05/2021 12:04,17/05/2021 12:41,2201,Most weeks,Rarely,22,Male,-99,"Undergraduate degree (BSc, BA)",72,1,Against,For
43,1658936143610,27/07/2022 15:35:43,1658936143457,1,27/07/2022 16:35:43,94050,2,task-net4,NA,23334600,6847601,NA,complete,NA,62e1592597d05f14958cf798,computer,Desktop or Laptop,Mac OS 10.15.7,Opera 88.0.4412.85,1280x800,1239x700,NA,ITT Ratings,3,For,8,NA,NA,NA,NA,NA,NA,ACCEPT,NA,NA,NA,batch8hes,batch8hes,18,41,1,Screen 1,continueButton,response_rating_scale_likert_active,2070.6000000089407,NA,NA,Neither Agree nor Disagree,1,0,1,0,NA,NA,NA,NA,1,statements,people have died after having the vaccine,1,17/05/2021 12:24,17/05/2021 12:44,1203,A few times a year,Rarely,28,Female,-99,A levels,73,3,Against,Against
44,1658936147376,27/07/2022 15:35:47,1658936147226,1,27/07/2022 16:35:47,94050,2,task-net4,NA,23334600,6847601,NA,complete,NA,62e1592597d05f14958cf798,computer,Desktop or Laptop,Mac OS 10.15.7,Opera 88.0.4412.85,1280x800,1239x700,NA,ITT Ratings,3,For,8,NA,NA,NA,NA,NA,NA,ACCEPT,NA,NA,NA,batch8hes,batch8hes,21,42,1,Screen 1,continueButton,response_rating_scale_likert_active,3753.599999994039,NA,NA,Neither Agree nor Disagree,1,0,1,0,NA,NA,NA,NA,1,statements,I am afraid of catching covid and becoming very ill or possibly dying from the virus,1,17/05/2021 12:24,17/05/2021 12:44,1203,A few times a year,Rarely,28,Female,-99,A levels,73,3,Against,For
45,1658936150642,27/07/2022 15:35:50,1658936150476,1,27/07/2022 16:35:50,94050,2,task-net4,NA,23334600,6847601,NA,complete,NA,62e1592597d05f14958cf798,computer,Desktop or Laptop,Mac OS 10.15.7,Opera 88.0.4412.85,1280x800,1239x700,NA,ITT Ratings,3,For,8,NA,NA,NA,NA,NA,NA,ACCEPT,NA,NA,NA,batch8hes,batch8hes,48,43,1,Screen 1,continueButton,response_rating_scale_likert_active,3234.0999999940395,NA,NA,Strongly Disagree,1,0,1,0,NA,NA,NA,NA,1,statements,I just don't want it because I don't agree with it and I have a phobia of needles,1,17/05/2021 12:39,17/05/2021 12:54,901,Most months,Rarely,46,Female,-99,Vocational Training / Apprenticeship,78,3,Against,Against
46,1658936152641,27/07/2022 15:35:52,1658936152461,1,27/07/2022 16:35:52,94050,2,task-net4,NA,23334600,6847601,NA,complete,NA,62e1592597d05f14958cf798,computer,Desktop or Laptop,Mac OS 10.15.7,Opera 88.0.4412.85,1280x800,1239x700,NA,ITT Ratings,3,For,8,NA,NA,NA,NA,NA,NA,ACCEPT,NA,NA,NA,batch8hes,batch8hes,23,44,1,Screen 1,continueButton,response_rating_scale_likert_active,1965.699999988079,NA,NA,Disagree,1,0,1,0,NA,NA,NA,NA,1,statements,I don't trust whats in it,1,17/05/2021 12:14,17/05/2021 12:45,1854,Most weeks,Most days,38,Female,-99,"Vocational Training / Apprenticeship,A levels",74,2,Against,Against
47,1658936188680,27/07/2022 15:36:28,1658936188513,1,27/07/2022 16:36:28,94050,2,task-net4,NA,23334600,6847601,NA,complete,NA,62e1592597d05f14958cf798,computer,Desktop or Laptop,Mac OS 10.15.7,Opera 88.0.4412.85,1280x800,1239x700,NA,ITT Ratings,3,For,8,NA,NA,NA,NA,NA,NA,ACCEPT,NA,NA,NA,batch8hes,batch8hes,49,45,1,Screen 1,continueButton,response_rating_scale_likert_active,36028.40000000596,NA,NA,Strongly Agree,1,0,1,0,NA,NA,NA,NA,1,statements,I want to be able to go out to places where I need a vaccine password,1,17/05/2021 12:39,17/05/2021 12:54,901,Most months,Rarely,46,Female,-99,Vocational Training / Apprenticeship,78,1,Against,For
48,1658936199407,27/07/2022 15:36:39,1658936199233,1,27/07/2022 16:36:39,94050,2,task-net4,NA,23334600,6847601,NA,complete,NA,62e1592597d05f14958cf798,computer,Desktop or Laptop,Mac OS 10.15.7,Opera 88.0.4412.85,1280x800,1239x700,NA,ITT Ratings,3,For,8,NA,NA,NA,NA,NA,NA,ACCEPT,NA,NA,NA,batch8hes,batch8hes,2,46,1,Screen 1,continueButton,response_rating_scale_likert_active,10698.79999999702,NA,NA,Somewhat Agree,1,0,1,0,NA,NA,NA,NA,1,statements,We would like to check you are reading each argument carefully. Please select 'Somewhat Agree' for this answer,1,NA,NA,NA,NA,NA,NA,NA,NA,NA,NA,check1,NA,NA
49,1658936202300,27/07/2022 15:36:42,1658936202135,1,27/07/2022 16:36:42,94050,2,task-net4,NA,23334600,6847601,NA,complete,NA,62e1592597d05f14958cf798,computer,Desktop or Laptop,Mac OS 10.15.7,Opera 88.0.4412.85,1280x800,1239x700,NA,ITT Ratings,3,For,8,NA,NA,NA,NA,NA,NA,ACCEPT,NA,NA,NA,batch8hes,batch8hes,58,47,1,Screen 1,continueButton,response_rating_scale_likert_active,2886.0999999940395,NA,NA,Disagree,1,0,1,0,NA,NA,NA,NA,1,statements,vaccine is not safe (a lot of deaths or strong reactions on astrazaneca or pfiser),1,##########,##########,1258,Most weeks,Most weeks,37,Female,-99,"Undergraduate degree (BSc, BA)",80,1,Against,Against
50,1658936205640,27/07/2022 15:36:45,1658936205560,1,27/07/2022 16:36:45,94050,2,task-net4,NA,23334600,6847601,NA,complete,NA,62e1592597d05f14958cf798,computer,Desktop or Laptop,Mac OS 10.15.7,Opera 88.0.4412.85,1280x800,1239x700,NA,ITT Ratings,3,For,8,NA,NA,NA,NA,NA,NA,ACCEPT,NA,NA,NA,batch8hes,batch8hes,54,48,1,Screen 1,continueButton,response_rating_scale_likert_active,3331.5,NA,NA,Somewhat Disagree,1,0,1,0,NA,NA,NA,NA,1,statements,it wont stop me passing it on,1,17/05/2021 12:41,17/05/2021 12:54,805,Most weeks,Most weeks,55,Female,-99,A levels,79,3,Against,Against
51,1658936207364,27/07/2022 15:36:47,1658936207278,1,27/07/2022 16:36:47,94050,2,task-net4,NA,23334600,6847601,NA,complete,NA,62e1592597d05f14958cf798,computer,Desktop or Laptop,Mac OS 10.15.7,Opera 88.0.4412.85,1280x800,1239x700,NA,ITT Ratings,3,For,8,NA,NA,NA,NA,NA,NA,ACCEPT,NA,NA,NA,batch8hes,batch8hes,19,49,1,Screen 1,continueButton,response_rating_scale_likert_active,1695.7000000029802,NA,NA,Somewhat Agree,1,0,1,0,NA,NA,NA,NA,1,statements,I trust the vaccine,1,17/05/2021 12:24,17/05/2021 12:44,1203,A few times a year,Rarely,28,Female,-99,A levels,73,1,Against,For
52,1658936213731,27/07/2022 15:36:53,1658936213647,1,27/07/2022 16:36:53,94050,2,task-net4,NA,23334600,6847601,NA,complete,NA,62e1592597d05f14958cf798,computer,Desktop or Laptop,Mac OS 10.15.7,Opera 88.0.4412.85,1280x800,1239x700,NA,ITT Ratings,3,For,8,NA,NA,NA,NA,NA,NA,ACCEPT,NA,NA,NA,batch8hes,batch8hes,50,50,1,Screen 1,continueButton,response_rating_scale_likert_active,6350.5999999940395,NA,NA,Neither Agree nor Disagree,1,0,1,0,NA,NA,NA,NA,1,statements,the are a carer or around elderly people,1,17/05/2021 12:39,17/05/2021 12:54,901,Most months,Rarely,46,Female,-99,Vocational Training / Apprenticeship,78,2,Against,For
53,1658936229147,27/07/2022 15:37:09,1658936229057,1,27/07/2022 16:37:09,94050,2,task-net4,NA,23334600,6847601,NA,complete,NA,62e1592597d05f14958cf798,computer,Desktop or Laptop,Mac OS 10.15.7,Opera 88.0.4412.85,1280x800,1239x700,NA,ITT Ratings,3,For,8,NA,NA,NA,NA,NA,NA,ACCEPT,NA,NA,NA,batch8hes,batch8hes,43,51,1,Screen 1,continueButton,response_rating_scale_likert_active,15394.69999998808,NA,NA,Agree,1,0,1,0,NA,NA,NA,NA,1,statements,i would feel safer having it,1,17/05/2021 12:43,17/05/2021 12:54,646,Rarely,Never,58,Female,-99,GCSEs,77,1,Against,For
54,1658936230766,27/07/2022 15:37:10,1658936230672,1,27/07/2022 16:37:10,94050,2,task-net4,NA,23334600,6847601,NA,complete,NA,62e1592597d05f14958cf798,computer,Desktop or Laptop,Mac OS 10.15.7,Opera 88.0.4412.85,1280x800,1239x700,NA,ITT Ratings,3,For,8,NA,NA,NA,NA,NA,NA,ACCEPT,NA,NA,NA,batch8hes,batch8hes,25,52,1,Screen 1,continueButton,response_rating_scale_likert_active,1596.7999999970198,NA,NA,Agree,1,0,1,0,NA,NA,NA,NA,1,statements,I think it will protect me from the covid19 virus,1,17/05/2021 12:14,17/05/2021 12:45,1854,Most weeks,Most days,38,Female,-99,"Vocational Training / Apprenticeship,A levels",74,1,Against,For
55,1658936234012,27/07/2022 15:37:14,1658936233925,1,27/07/2022 16:37:13,94050,2,task-net4,NA,23334600,6847601,NA,complete,NA,62e1592597d05f14958cf798,computer,Desktop or Laptop,Mac OS 10.15.7,Opera 88.0.4412.85,1280x800,1239x700,NA,ITT Ratings,3,For,8,NA,NA,NA,NA,NA,NA,ACCEPT,NA,NA,NA,batch8hes,batch8hes,4,53,1,Screen 1,continueButton,response_rating_scale_likert_active,3233.0999999940395,NA,NA,Somewhat Agree,1,0,1,0,NA,NA,NA,NA,1,statements,"Aby possible long term effects are still not apparent, those trialling the vaccine are monitored for 2 years to keep an eye out for anything untoward occurring.",1,17/05/2021 12:20,17/05/2021 12:39,1161,Rarely,A few times a year,35,Female,-99,"Undergraduate degree (BSc, BA)",71,1,Against,Against
56,1658936238829,27/07/2022 15:37:18,1658936238728,1,27/07/2022 16:37:18,94050,2,task-net4,NA,23334600,6847601,NA,complete,NA,62e1592597d05f14958cf798,computer,Desktop or Laptop,Mac OS 10.15.7,Opera 88.0.4412.85,1280x800,1239x700,NA,ITT Ratings,3,For,8,NA,NA,NA,NA,NA,NA,ACCEPT,NA,NA,NA,batch8hes,batch8hes,14,54,1,Screen 1,continueButton,response_rating_scale_likert_active,4785.600000008941,NA,NA,Neither Agree nor Disagree,1,0,1,0,NA,NA,NA,NA,1,statements,There haven't been widespread visible side effects several months after the introduction of the vaccines.,1,17/05/2021 12:04,17/05/2021 12:41,2201,Most weeks,Rarely,22,Male,-99,"Undergraduate degree (BSc, BA)",72,2,Against,For
57,1658936242281,27/07/2022 15:37:22,1658936242195,1,27/07/2022 16:37:22,94050,2,task-net4,NA,23334600,6847601,NA,complete,NA,62e1592597d05f14958cf798,computer,Desktop or Laptop,Mac OS 10.15.7,Opera 88.0.4412.85,1280x800,1239x700,NA,ITT Ratings,3,For,8,NA,NA,NA,NA,NA,NA,ACCEPT,NA,NA,NA,batch8hes,batch8hes,3,55,1,Screen 1,continueButton,response_rating_scale_likert_active,3451.5999999940395,NA,NA,Somewhat Disagree,1,0,1,0,NA,NA,NA,NA,1,statements,We would like to check you are reading each argument carefully. Please select 'Somewhat Disagree' for this answer,1,NA,NA,NA,NA,NA,NA,NA,NA,NA,NA,check2,NA,NA
58,1658936245065,27/07/2022 15:37:25,1658936244980,1,27/07/2022 16:37:24,94050,2,task-net4,NA,23334600,6847601,NA,complete,NA,62e1592597d05f14958cf798,computer,Desktop or Laptop,Mac OS 10.15.7,Opera 88.0.4412.85,1280x800,1239x700,NA,ITT Ratings,3,For,8,NA,NA,NA,NA,NA,NA,ACCEPT,NA,NA,NA,batch8hes,batch8hes,33,56,1,Screen 1,continueButton,response_rating_scale_likert_active,2769.0999999940395,NA,NA,Strongly Agree,1,0,1,0,NA,NA,NA,NA,1,statements,"I need it to be able to go into pubs, go on holiday , go.to cinema etc, go to a restaurant",1,17/05/2021 12:22,17/05/2021 12:47,1508,A few times a year,Never,54,Female,-99,Vocational Training / Apprenticeship,75,3,Against,For
59,1658936247404,27/07/2022 15:37:27,1658936247314,1,27/07/2022 16:37:27,94050,2,task-net4,NA,23334600,6847601,NA,complete,NA,62e1592597d05f14958cf798,computer,Desktop or Laptop,Mac OS 10.15.7,Opera 88.0.4412.85,1280x800,1239x700,NA,ITT Ratings,3,For,8,NA,NA,NA,NA,NA,NA,ACCEPT,NA,NA,NA,batch8hes,batch8hes,9,57,1,Screen 1,continueButton,response_rating_scale_likert_active,2317.1000000089407,NA,NA,Strongly Agree,1,0,1,0,NA,NA,NA,NA,1,statements,"I may as well get it or i won't be permitted to travel abroad, the government or even my workplace might also pose other restrictions on me if i'm not vaccinated.",1,17/05/2021 12:20,17/05/2021 12:39,1161,Rarely,A few times a year,35,Female,-99,"Undergraduate degree (BSc, BA)",71,3,Against,For
60,1658936252931,27/07/2022 15:37:32,1658936252801,1,27/07/2022 16:37:32,94050,2,task-net4,NA,23334600,6847601,NA,complete,NA,62e1592597d05f14958cf798,computer,Desktop or Laptop,Mac OS 10.15.7,Opera 88.0.4412.85,1280x800,1239x700,NA,ITT Ratings,3,For,8,NA,NA,NA,NA,NA,NA,ACCEPT,NA,NA,NA,batch8hes,batch8hes,17,58,1,Screen 1,continueButton,response_rating_scale_likert_active,5472.899999991059,NA,NA,Somewhat Disagree,1,0,1,0,NA,NA,NA,NA,1,statements,I dont feel I have had enough time to develop the vaccine,1,17/05/2021 12:24,17/05/2021 12:44,1203,A few times a year,Rarely,28,Female,-99,A levels,73,2,Against,Against
61,1658936258126,27/07/2022 15:37:38,1658936258038,1,27/07/2022 16:37:38,94050,2,task-net4,NA,23334600,6847601,NA,complete,NA,62e1592597d05f14958cf798,computer,Desktop or Laptop,Mac OS 10.15.7,Opera 88.0.4412.85,1280x800,1239x700,NA,ITT Ratings,3,For,8,NA,NA,NA,NA,NA,NA,ACCEPT,NA,NA,NA,batch8hes,batch8hes,31,59,1,Screen 1,continueButton,response_rating_scale_likert_active,5220.899999991059,NA,NA,Somewhat Agree,1,0,1,0,NA,NA,NA,NA,1,statements,"I  want it if it stops me getting covid then ill have it, I can't see my relative in a nursing home",1,17/05/2021 12:22,17/05/2021 12:47,1508,A few times a year,Never,54,Female,-99,Vocational Training / Apprenticeship,75,1,Against,For
62,1658936260663,27/07/2022 15:37:40,1658936260555,1,27/07/2022 16:37:40,94050,2,task-net4,NA,23334600,6847601,NA,complete,NA,62e1592597d05f14958cf798,computer,Desktop or Laptop,Mac OS 10.15.7,Opera 88.0.4412.85,1280x800,1239x700,NA,ITT Ratings,3,For,8,NA,NA,NA,NA,NA,NA,ACCEPT,NA,NA,NA,batch8hes,batch8hes,20,60,1,Screen 1,continueButton,response_rating_scale_likert_active,2499.5,NA,NA,Strongly Agree,1,0,1,0,NA,NA,NA,NA,1,statements,I would rather take the vaccine than catch covid,1,17/05/2021 12:24,17/05/2021 12:44,1203,A few times a year,Rarely,28,Female,-99,A levels,73,2,Against,For
63,1658936264207,27/07/2022 15:37:44,1658936264123,1,27/07/2022 16:37:44,94050,2,task-net4,NA,23334600,6847601,NA,complete,NA,62e1592597d05f14958cf798,computer,Desktop or Laptop,Mac OS 10.15.7,Opera 88.0.4412.85,1280x800,1239x700,NA,ITT Ratings,3,For,8,NA,NA,NA,NA,NA,NA,ACCEPT,NA,NA,NA,batch8hes,batch8hes,30,61,1,Screen 1,continueButton,response_rating_scale_likert_active,3554.800000011921,NA,NA,Strongly Disagree,1,0,1,0,NA,NA,NA,NA,1,statements,I saw a video from a woman doctor/scientist who stated the vacine changes your DNA and destroys your immune system months after you have had it,1,17/05/2021 12:22,17/05/2021 12:47,1508,A few times a year,Never,54,Female,-99,Vocational Training / Apprenticeship,75,3,Against,Against
64,1658936265941,27/07/2022 15:37:45,1658936265857,1,27/07/2022 16:37:45,94050,2,task-net4,NA,23334600,6847601,NA,complete,NA,62e1592597d05f14958cf798,computer,Desktop or Laptop,Mac OS 10.15.7,Opera 88.0.4412.85,1280x800,1239x700,NA,ITT Ratings,3,For,8,NA,NA,NA,NA,NA,NA,ACCEPT,NA,NA,NA,batch8hes,batch8hes,41,62,1,Screen 1,continueButton,response_rating_scale_likert_active,1722.1000000089407,NA,NA,Somewhat Disagree,1,0,1,0,NA,NA,NA,NA,1,statements,it wont stop me getting covid,1,17/05/2021 12:43,17/05/2021 12:54,646,Rarely,Never,58,Female,-99,GCSEs,77,2,Against,Against
65,1658936266006,27/07/2022 15:37:46,1658936265862,1,27/07/2022 16:37:45,94050,2,task-net4,NA,23334600,6847601,NA,complete,NA,62e1592597d05f14958cf798,computer,Desktop or Laptop,Mac OS 10.15.7,Opera 88.0.4412.85,1280x800,1239x700,NA,ITT Ratings,3,For,8,NA,NA,NA,NA,NA,NA,ACCEPT,NA,NA,NA,batch8hes,NA,NA,END TASK,NA,NA,NA,NA,649754,NA,NA,NA,NA,0,1,0,NA,NA,NA,NA,NA,NA,NA,NA,NA,NA,NA,NA,NA,NA,NA,NA,NA,NA,NA,NA,NA
1,1658935787048,27/07/2022 15:29:47,1658935787431,1,27/07/2022 16:29:47,94050,2,task-net4,NA,23334699,6847622,NA,complete,NA,62e159d6ff05d055a76b6d68,computer,Desktop or Laptop,Windows 10,Firefox 103.0,1025x576,1025x482,NA,ITT Ratings,3,For,8,NA,NA,NA,NA,NA,NA,ACCEPT,NA,NA,NA,batch8hes,NA,NA,BEGIN TASK,NA,NA,NA,NA,NA,NA,NA,NA,NA,0,1,0,NA,NA,NA,NA,NA,NA,NA,NA,NA,NA,NA,NA,NA,NA,NA,NA,NA,NA,NA,NA,NA
2,1658935798115,27/07/2022 15:29:58,1658935798523,1,27/07/2022 16:29:58,94050,2,task-net4,NA,23334699,6847622,NA,complete,NA,62e159d6ff05d055a76b6d68,computer,Desktop or Laptop,Windows 10,Firefox 103.0,1025x576,1025x482,NA,ITT Ratings,3,For,8,NA,NA,NA,NA,NA,NA,ACCEPT,NA,NA,NA,batch8hes,batch8hes,1,1,1,Screen 1,advancementZone,continue_button,11052,NA,NA,NA,NA,0,1,0,NA,NA,NA,NA,NA,instructions,NA,NA,NA,NA,NA,NA,NA,NA,NA,NA,NA,NA,NA,NA,NA
3,1658935811724,27/07/2022 15:30:11,1658935812144,1,27/07/2022 16:30:12,94050,2,task-net4,NA,23334699,6847622,NA,complete,NA,62e159d6ff05d055a76b6d68,computer,Desktop or Laptop,Windows 10,Firefox 103.0,1025x576,1025x482,NA,ITT Ratings,3,For,8,NA,NA,NA,NA,NA,NA,ACCEPT,NA,NA,NA,batch8hes,batch8hes,33,1,1,Screen 1,continueButton,response_rating_scale_likert_active,13592,NA,NA,Agree,1,0,1,0,NA,NA,NA,NA,1,statements,"I need it to be able to go into pubs, go on holiday , go.to cinema etc, go to a restaurant",1,17/05/2021 12:22,17/05/2021 12:47,1508,A few times a year,Never,54,Female,-99,Vocational Training / Apprenticeship,75,3,Against,For
4,1658935820522,27/07/2022 15:30:20,1658935820922,1,27/07/2022 16:30:20,94050,2,task-net4,NA,23334699,6847622,NA,complete,NA,62e159d6ff05d055a76b6d68,computer,Desktop or Laptop,Windows 10,Firefox 103.0,1025x576,1025x482,NA,ITT Ratings,3,For,8,NA,NA,NA,NA,NA,NA,ACCEPT,NA,NA,NA,batch8hes,batch8hes,36,2,1,Screen 1,continueButton,response_rating_scale_likert_active,8760,NA,NA,Disagree,1,0,1,0,NA,NA,NA,NA,1,statements,Enough evidence it even works?,1,17/05/2021 12:38,17/05/2021 12:53,872,Rarely,Never,23,Female,-99,A levels,76,3,Against,Against
5,1658935823222,27/07/2022 15:30:23,1658935823652,1,27/07/2022 16:30:23,94050,2,task-net4,NA,23334699,6847622,NA,complete,NA,62e159d6ff05d055a76b6d68,computer,Desktop or Laptop,Windows 10,Firefox 103.0,1025x576,1025x482,NA,ITT Ratings,3,For,8,NA,NA,NA,NA,NA,NA,ACCEPT,NA,NA,NA,batch8hes,batch8hes,37,3,1,Screen 1,continueButton,response_rating_scale_likert_active,2713,NA,NA,Agree,1,0,1,0,NA,NA,NA,NA,1,statements,Need to clear the virus.,1,17/05/2021 12:38,17/05/2021 12:53,872,Rarely,Never,23,Female,-99,A levels,76,1,Against,For
6,1658935830930,27/07/2022 15:30:30,1658935831362,1,27/07/2022 16:30:31,94050,2,task-net4,NA,23334699,6847622,NA,complete,NA,62e159d6ff05d055a76b6d68,computer,Desktop or Laptop,Windows 10,Firefox 103.0,1025x576,1025x482,NA,ITT Ratings,3,For,8,NA,NA,NA,NA,NA,NA,ACCEPT,NA,NA,NA,batch8hes,batch8hes,5,4,1,Screen 1,continueButton,response_rating_scale_likert_active,7695,NA,NA,Disagree,1,0,1,0,NA,NA,NA,NA,1,statements,"I can wait as the rest of the population gets one, group immunity will help protect me too.",1,17/05/2021 12:20,17/05/2021 12:39,1161,Rarely,A few times a year,35,Female,-99,"Undergraduate degree (BSc, BA)",71,2,Against,Against
7,1658935836900,27/07/2022 15:30:36,1658935837326,1,27/07/2022 16:30:37,94050,2,task-net4,NA,23334699,6847622,NA,complete,NA,62e159d6ff05d055a76b6d68,computer,Desktop or Laptop,Windows 10,Firefox 103.0,1025x576,1025x482,NA,ITT Ratings,3,For,8,NA,NA,NA,NA,NA,NA,ACCEPT,NA,NA,NA,batch8hes,batch8hes,47,5,1,Screen 1,continueButton,response_rating_scale_likert_active,5950,NA,NA,Somewhat Agree,1,0,1,0,NA,NA,NA,NA,1,statements,I have an allergy to one of the ingredients,1,17/05/2021 12:39,17/05/2021 12:54,901,Most months,Rarely,46,Female,-99,Vocational Training / Apprenticeship,78,2,Against,Against
8,1658935838939,27/07/2022 15:30:38,1658935839374,1,27/07/2022 16:30:39,94050,2,task-net4,NA,23334699,6847622,NA,complete,NA,62e159d6ff05d055a76b6d68,computer,Desktop or Laptop,Windows 10,Firefox 103.0,1025x576,1025x482,NA,ITT Ratings,3,For,8,NA,NA,NA,NA,NA,NA,ACCEPT,NA,NA,NA,batch8hes,batch8hes,38,6,1,Screen 1,continueButton,response_rating_scale_likert_active,2034,NA,NA,Agree,1,0,1,0,NA,NA,NA,NA,1,statements,Ability to travel in the future.,1,17/05/2021 12:38,17/05/2021 12:53,872,Rarely,Never,23,Female,-99,A levels,76,2,Against,For
9,1658935842403,27/07/2022 15:30:42,1658935842835,1,27/07/2022 16:30:42,94050,2,task-net4,NA,23334699,6847622,NA,complete,NA,62e159d6ff05d055a76b6d68,computer,Desktop or Laptop,Windows 10,Firefox 103.0,1025x576,1025x482,NA,ITT Ratings,3,For,8,NA,NA,NA,NA,NA,NA,ACCEPT,NA,NA,NA,batch8hes,batch8hes,59,7,1,Screen 1,continueButton,response_rating_scale_likert_active,3446,NA,NA,Strongly Disagree,1,0,1,0,NA,NA,NA,NA,1,statements,pharmaceutical companies and government want to get rich and control us,1,##########,##########,1258,Most weeks,Most weeks,37,Female,-99,"Undergraduate degree (BSc, BA)",80,2,Against,Against
10,1658935848286,27/07/2022 15:30:48,1658935848721,1,27/07/2022 16:30:48,94050,2,task-net4,NA,23334699,6847622,NA,complete,NA,62e159d6ff05d055a76b6d68,computer,Desktop or Laptop,Windows 10,Firefox 103.0,1025x576,1025x482,NA,ITT Ratings,3,For,8,NA,NA,NA,NA,NA,NA,ACCEPT,NA,NA,NA,batch8hes,batch8hes,34,8,1,Screen 1,continueButton,response_rating_scale_likert_active,5855,NA,NA,Disagree,1,0,1,0,NA,NA,NA,NA,1,statements,Questions on infertility.,1,17/05/2021 12:38,17/05/2021 12:53,872,Rarely,Never,23,Female,-99,A levels,76,1,Against,Against
11,1658935858597,27/07/2022 15:30:58,1658935859029,1,27/07/2022 16:30:59,94050,2,task-net4,NA,23334699,6847622,NA,complete,NA,62e159d6ff05d055a76b6d68,computer,Desktop or Laptop,Windows 10,Firefox 103.0,1025x576,1025x482,NA,ITT Ratings,3,For,8,NA,NA,NA,NA,NA,NA,ACCEPT,NA,NA,NA,batch8hes,batch8hes,6,9,1,Screen 1,continueButton,response_rating_scale_likert_active,10291,NA,NA,Somewhat Disagree,1,0,1,0,NA,NA,NA,NA,1,statements,Other trials such as that for thalidomide that were rushed provide an example of why i should be hesitant to get a jab so soon,1,17/05/2021 12:20,17/05/2021 12:39,1161,Rarely,A few times a year,35,Female,-99,"Undergraduate degree (BSc, BA)",71,3,Against,Against
12,1658935865061,27/07/2022 15:31:05,1658935865495,1,27/07/2022 16:31:05,94050,2,task-net4,NA,23334699,6847622,NA,complete,NA,62e159d6ff05d055a76b6d68,computer,Desktop or Laptop,Windows 10,Firefox 103.0,1025x576,1025x482,NA,ITT Ratings,3,For,8,NA,NA,NA,NA,NA,NA,ACCEPT,NA,NA,NA,batch8hes,batch8hes,57,10,1,Screen 1,continueButton,response_rating_scale_likert_active,6449,NA,NA,Agree,1,0,1,0,NA,NA,NA,NA,1,statements,I think i will get it if i dont get a vaccination,1,17/05/2021 12:41,17/05/2021 12:54,805,Most weeks,Most weeks,55,Female,-99,A levels,79,3,Against,For
13,1658935871990,27/07/2022 15:31:11,1658935872430,1,27/07/2022 16:31:12,94050,2,task-net4,NA,23334699,6847622,NA,complete,NA,62e159d6ff05d055a76b6d68,computer,Desktop or Laptop,Windows 10,Firefox 103.0,1025x576,1025x482,NA,ITT Ratings,3,For,8,NA,NA,NA,NA,NA,NA,ACCEPT,NA,NA,NA,batch8hes,batch8hes,46,11,1,Screen 1,continueButton,response_rating_scale_likert_active,6921,NA,NA,Somewhat Agree,1,0,1,0,NA,NA,NA,NA,1,statements,Because I have an autoimmune disease and cant have it,1,17/05/2021 12:39,17/05/2021 12:54,901,Most months,Rarely,46,Female,-99,Vocational Training / Apprenticeship,78,1,Against,Against
14,1658935878023,27/07/2022 15:31:18,1658935878448,1,27/07/2022 16:31:18,94050,2,task-net4,NA,23334699,6847622,NA,complete,NA,62e159d6ff05d055a76b6d68,computer,Desktop or Laptop,Windows 10,Firefox 103.0,1025x576,1025x482,NA,ITT Ratings,3,For,8,NA,NA,NA,NA,NA,NA,ACCEPT,NA,NA,NA,batch8hes,batch8hes,35,12,1,Screen 1,continueButton,response_rating_scale_likert_active,6005,NA,NA,Neither Agree nor Disagree,1,0,1,0,NA,NA,NA,NA,1,statements,Not enough time put into the research and development.,1,17/05/2021 12:38,17/05/2021 12:53,872,Rarely,Never,23,Female,-99,A levels,76,2,Against,Against
15,1658935884970,27/07/2022 15:31:24,1658935885398,1,27/07/2022 16:31:25,94050,2,task-net4,NA,23334699,6847622,NA,complete,NA,62e159d6ff05d055a76b6d68,computer,Desktop or Laptop,Windows 10,Firefox 103.0,1025x576,1025x482,NA,ITT Ratings,3,For,8,NA,NA,NA,NA,NA,NA,ACCEPT,NA,NA,NA,batch8hes,batch8hes,8,13,1,Screen 1,continueButton,response_rating_scale_likert_active,6935,NA,NA,Agree,1,0,1,0,NA,NA,NA,NA,1,statements,"If you don't get a vaccination, you are being selfish on the rest of the nation. Vaccinations are the only way to get out of lockdown and save our economy.",1,17/05/2021 12:20,17/05/2021 12:39,1161,Rarely,A few times a year,35,Female,-99,"Undergraduate degree (BSc, BA)",71,2,Against,For
16,1658935887224,27/07/2022 15:31:27,1658935887657,1,27/07/2022 16:31:27,94050,2,task-net4,NA,23334699,6847622,NA,complete,NA,62e159d6ff05d055a76b6d68,computer,Desktop or Laptop,Windows 10,Firefox 103.0,1025x576,1025x482,NA,ITT Ratings,3,For,8,NA,NA,NA,NA,NA,NA,ACCEPT,NA,NA,NA,batch8hes,batch8hes,20,14,1,Screen 1,continueButton,response_rating_scale_likert_active,2247,NA,NA,Agree,1,0,1,0,NA,NA,NA,NA,1,statements,I would rather take the vaccine than catch covid,1,17/05/2021 12:24,17/05/2021 12:44,1203,A few times a year,Rarely,28,Female,-99,A levels,73,2,Against,For
17,1658935892126,27/07/2022 15:31:32,1658935892560,1,27/07/2022 16:31:32,94050,2,task-net4,NA,23334699,6847622,NA,complete,NA,62e159d6ff05d055a76b6d68,computer,Desktop or Laptop,Windows 10,Firefox 103.0,1025x576,1025x482,NA,ITT Ratings,3,For,8,NA,NA,NA,NA,NA,NA,ACCEPT,NA,NA,NA,batch8hes,batch8hes,2,15,1,Screen 1,continueButton,response_rating_scale_likert_active,4890,NA,NA,Somewhat Agree,1,0,1,0,NA,NA,NA,NA,1,statements,We would like to check you are reading each argument carefully. Please select 'Somewhat Agree' for this answer,1,NA,NA,NA,NA,NA,NA,NA,NA,NA,NA,check1,NA,NA
18,1658935901566,27/07/2022 15:31:41,1658935902002,1,27/07/2022 16:31:42,94050,2,task-net4,NA,23334699,6847622,NA,complete,NA,62e159d6ff05d055a76b6d68,computer,Desktop or Laptop,Windows 10,Firefox 103.0,1025x576,1025x482,NA,ITT Ratings,3,For,8,NA,NA,NA,NA,NA,NA,ACCEPT,NA,NA,NA,batch8hes,batch8hes,50,16,1,Screen 1,continueButton,response_rating_scale_likert_active,9429,NA,NA,Agree,1,0,1,0,NA,NA,NA,NA,1,statements,the are a carer or around elderly people,1,17/05/2021 12:39,17/05/2021 12:54,901,Most months,Rarely,46,Female,-99,Vocational Training / Apprenticeship,78,2,Against,For
19,1658935903342,27/07/2022 15:31:43,1658935903781,1,27/07/2022 16:31:43,94050,2,task-net4,NA,23334699,6847622,NA,complete,NA,62e159d6ff05d055a76b6d68,computer,Desktop or Laptop,Windows 10,Firefox 103.0,1025x576,1025x482,NA,ITT Ratings,3,For,8,NA,NA,NA,NA,NA,NA,ACCEPT,NA,NA,NA,batch8hes,batch8hes,26,17,1,Screen 1,continueButton,response_rating_scale_likert_active,1768,NA,NA,Agree,1,0,1,0,NA,NA,NA,NA,1,statements,It will protect the vulnerable groups,1,17/05/2021 12:14,17/05/2021 12:45,1854,Most weeks,Most days,38,Female,-99,"Vocational Training / Apprenticeship,A levels",74,2,Against,For
20,1658935908941,27/07/2022 15:31:48,1658935909380,1,27/07/2022 16:31:49,94050,2,task-net4,NA,23334699,6847622,NA,complete,NA,62e159d6ff05d055a76b6d68,computer,Desktop or Laptop,Windows 10,Firefox 103.0,1025x576,1025x482,NA,ITT Ratings,3,For,8,NA,NA,NA,NA,NA,NA,ACCEPT,NA,NA,NA,batch8hes,batch8hes,12,18,1,Screen 1,continueButton,response_rating_scale_likert_active,5587,NA,NA,Disagree,1,0,1,0,NA,NA,NA,NA,1,statements,"COVID-19 has an extraordinarily low mortality rate in healthy young people, so it is not worth taking the vaccine unless one is elderly or has conditions such as an autoimmune disease.",1,17/05/2021 12:04,17/05/2021 12:41,2201,Most weeks,Rarely,22,Male,-99,"Undergraduate degree (BSc, BA)",72,3,Against,Against
21,1658935910619,27/07/2022 15:31:50,1658935911052,1,27/07/2022 16:31:51,94050,2,task-net4,NA,23334699,6847622,NA,complete,NA,62e159d6ff05d055a76b6d68,computer,Desktop or Laptop,Windows 10,Firefox 103.0,1025x576,1025x482,NA,ITT Ratings,3,For,8,NA,NA,NA,NA,NA,NA,ACCEPT,NA,NA,NA,batch8hes,batch8hes,19,19,1,Screen 1,continueButton,response_rating_scale_likert_active,1658,NA,NA,Agree,1,0,1,0,NA,NA,NA,NA,1,statements,I trust the vaccine,1,17/05/2021 12:24,17/05/2021 12:44,1203,A few times a year,Rarely,28,Female,-99,A levels,73,1,Against,For
22,1658935913852,27/07/2022 15:31:53,1658935914285,1,27/07/2022 16:31:54,94050,2,task-net4,NA,23334699,6847622,NA,complete,NA,62e159d6ff05d055a76b6d68,computer,Desktop or Laptop,Windows 10,Firefox 103.0,1025x576,1025x482,NA,ITT Ratings,3,For,8,NA,NA,NA,NA,NA,NA,ACCEPT,NA,NA,NA,batch8hes,batch8hes,39,20,1,Screen 1,continueButton,response_rating_scale_likert_active,3222,NA,NA,Disagree,1,0,1,0,NA,NA,NA,NA,1,statements,Risk of getting virus is low.,1,17/05/2021 12:38,17/05/2021 12:53,872,Rarely,Never,23,Female,-99,A levels,76,3,Against,For
23,1658935918096,27/07/2022 15:31:58,1658935918527,1,27/07/2022 16:31:58,94050,2,task-net4,NA,23334699,6847622,NA,complete,NA,62e159d6ff05d055a76b6d68,computer,Desktop or Laptop,Windows 10,Firefox 103.0,1025x576,1025x482,NA,ITT Ratings,3,For,8,NA,NA,NA,NA,NA,NA,ACCEPT,NA,NA,NA,batch8hes,batch8hes,61,21,1,Screen 1,continueButton,response_rating_scale_likert_active,4230,NA,NA,Agree,1,0,1,0,NA,NA,NA,NA,1,statements,the vaccine will help protect the entire population of the planet,1,##########,##########,1258,Most weeks,Most weeks,37,Female,-99,"Undergraduate degree (BSc, BA)",80,1,Against,For
24,1658935926398,27/07/2022 15:32:06,1658935926785,1,27/07/2022 16:32:06,94050,2,task-net4,NA,23334699,6847622,NA,complete,NA,62e159d6ff05d055a76b6d68,computer,Desktop or Laptop,Windows 10,Firefox 103.0,1025x576,1025x482,NA,ITT Ratings,3,For,8,NA,NA,NA,NA,NA,NA,ACCEPT,NA,NA,NA,batch8hes,batch8hes,30,22,1,Screen 1,continueButton,response_rating_scale_likert_active,8246,NA,NA,Strongly Disagree,1,0,1,0,NA,NA,NA,NA,1,statements,I saw a video from a woman doctor/scientist who stated the vacine changes your DNA and destroys your immune system months after you have had it,1,17/05/2021 12:22,17/05/2021 12:47,1508,A few times a year,Never,54,Female,-99,Vocational Training / Apprenticeship,75,3,Against,Against
25,1658935930962,27/07/2022 15:32:10,1658935931368,1,27/07/2022 16:32:11,94050,2,task-net4,NA,23334699,6847622,NA,complete,NA,62e159d6ff05d055a76b6d68,computer,Desktop or Laptop,Windows 10,Firefox 103.0,1025x576,1025x482,NA,ITT Ratings,3,For,8,NA,NA,NA,NA,NA,NA,ACCEPT,NA,NA,NA,batch8hes,batch8hes,54,23,1,Screen 1,continueButton,response_rating_scale_likert_active,4571,NA,NA,Somewhat Agree,1,0,1,0,NA,NA,NA,NA,1,statements,it wont stop me passing it on,1,17/05/2021 12:41,17/05/2021 12:54,805,Most weeks,Most weeks,55,Female,-99,A levels,79,3,Against,Against
26,1658935935856,27/07/2022 15:32:15,1658935936283,1,27/07/2022 16:32:16,94050,2,task-net4,NA,23334699,6847622,NA,complete,NA,62e159d6ff05d055a76b6d68,computer,Desktop or Laptop,Windows 10,Firefox 103.0,1025x576,1025x482,NA,ITT Ratings,3,For,8,NA,NA,NA,NA,NA,NA,ACCEPT,NA,NA,NA,batch8hes,batch8hes,52,24,1,Screen 1,continueButton,response_rating_scale_likert_active,4901,NA,NA,Somewhat Agree,1,0,1,0,NA,NA,NA,NA,1,statements,There is history of thrombosis in my family,1,17/05/2021 12:41,17/05/2021 12:54,805,Most weeks,Most weeks,55,Female,-99,A levels,79,1,Against,Against
27,1658935949227,27/07/2022 15:32:29,1658935949656,1,27/07/2022 16:32:29,94050,2,task-net4,NA,23334699,6847622,NA,complete,NA,62e159d6ff05d055a76b6d68,computer,Desktop or Laptop,Windows 10,Firefox 103.0,1025x576,1025x482,NA,ITT Ratings,3,For,8,NA,NA,NA,NA,NA,NA,ACCEPT,NA,NA,NA,batch8hes,batch8hes,4,25,1,Screen 1,continueButton,response_rating_scale_likert_active,13362,NA,NA,Neither Agree nor Disagree,1,0,1,0,NA,NA,NA,NA,1,statements,"Aby possible long term effects are still not apparent, those trialling the vaccine are monitored for 2 years to keep an eye out for anything untoward occurring.",1,17/05/2021 12:20,17/05/2021 12:39,1161,Rarely,A few times a year,35,Female,-99,"Undergraduate degree (BSc, BA)",71,1,Against,Against
28,1658935955354,27/07/2022 15:32:35,1658935955792,1,27/07/2022 16:32:35,94050,2,task-net4,NA,23334699,6847622,NA,complete,NA,62e159d6ff05d055a76b6d68,computer,Desktop or Laptop,Windows 10,Firefox 103.0,1025x576,1025x482,NA,ITT Ratings,3,For,8,NA,NA,NA,NA,NA,NA,ACCEPT,NA,NA,NA,batch8hes,batch8hes,49,26,1,Screen 1,continueButton,response_rating_scale_likert_active,6125,NA,NA,Agree,1,0,1,0,NA,NA,NA,NA,1,statements,I want to be able to go out to places where I need a vaccine password,1,17/05/2021 12:39,17/05/2021 12:54,901,Most months,Rarely,46,Female,-99,Vocational Training / Apprenticeship,78,1,Against,For
29,1658935961728,27/07/2022 15:32:41,1658935962157,1,27/07/2022 16:32:42,94050,2,task-net4,NA,23334699,6847622,NA,complete,NA,62e159d6ff05d055a76b6d68,computer,Desktop or Laptop,Windows 10,Firefox 103.0,1025x576,1025x482,NA,ITT Ratings,3,For,8,NA,NA,NA,NA,NA,NA,ACCEPT,NA,NA,NA,batch8hes,batch8hes,41,27,1,Screen 1,continueButton,response_rating_scale_likert_active,6352,NA,NA,Somewhat Agree,1,0,1,0,NA,NA,NA,NA,1,statements,it wont stop me getting covid,1,17/05/2021 12:43,17/05/2021 12:54,646,Rarely,Never,58,Female,-99,GCSEs,77,2,Against,Against
30,1658935965570,27/07/2022 15:32:45,1658935966004,1,27/07/2022 16:32:46,94050,2,task-net4,NA,23334699,6847622,NA,complete,NA,62e159d6ff05d055a76b6d68,computer,Desktop or Laptop,Windows 10,Firefox 103.0,1025x576,1025x482,NA,ITT Ratings,3,For,8,NA,NA,NA,NA,NA,NA,ACCEPT,NA,NA,NA,batch8hes,batch8hes,28,28,1,Screen 1,continueButton,response_rating_scale_likert_active,3837,NA,NA,Somewhat Agree,1,0,1,0,NA,NA,NA,NA,1,statements,I have seen videos of people who have had reactions to the vacine,1,17/05/2021 12:22,17/05/2021 12:47,1508,A few times a year,Never,54,Female,-99,Vocational Training / Apprenticeship,75,1,Against,Against
31,1658935969864,27/07/2022 15:32:49,1658935970303,1,27/07/2022 16:32:50,94050,2,task-net4,NA,23334699,6847622,NA,complete,NA,62e159d6ff05d055a76b6d68,computer,Desktop or Laptop,Windows 10,Firefox 103.0,1025x576,1025x482,NA,ITT Ratings,3,For,8,NA,NA,NA,NA,NA,NA,ACCEPT,NA,NA,NA,batch8hes,batch8hes,18,29,1,Screen 1,continueButton,response_rating_scale_likert_active,4287,NA,NA,Neither Agree nor Disagree,1,0,1,0,NA,NA,NA,NA,1,statements,people have died after having the vaccine,1,17/05/2021 12:24,17/05/2021 12:44,1203,A few times a year,Rarely,28,Female,-99,A levels,73,3,Against,Against
32,1658935973384,27/07/2022 15:32:53,1658935973818,1,27/07/2022 16:32:53,94050,2,task-net4,NA,23334699,6847622,NA,complete,NA,62e159d6ff05d055a76b6d68,computer,Desktop or Laptop,Windows 10,Firefox 103.0,1025x576,1025x482,NA,ITT Ratings,3,For,8,NA,NA,NA,NA,NA,NA,ACCEPT,NA,NA,NA,batch8hes,batch8hes,45,30,1,Screen 1,continueButton,response_rating_scale_likert_active,3504,NA,NA,Agree,1,0,1,0,NA,NA,NA,NA,1,statements,i want life back to normal so will take it,1,17/05/2021 12:43,17/05/2021 12:54,646,Rarely,Never,58,Female,-99,GCSEs,77,3,Against,For
33,1658935976295,27/07/2022 15:32:56,1658935976734,1,27/07/2022 16:32:56,94050,2,task-net4,NA,23334699,6847622,NA,complete,NA,62e159d6ff05d055a76b6d68,computer,Desktop or Laptop,Windows 10,Firefox 103.0,1025x576,1025x482,NA,ITT Ratings,3,For,8,NA,NA,NA,NA,NA,NA,ACCEPT,NA,NA,NA,batch8hes,batch8hes,43,31,1,Screen 1,continueButton,response_rating_scale_likert_active,2903,NA,NA,Agree,1,0,1,0,NA,NA,NA,NA,1,statements,i would feel safer having it,1,17/05/2021 12:43,17/05/2021 12:54,646,Rarely,Never,58,Female,-99,GCSEs,77,1,Against,For
34,1658935981523,27/07/2022 15:33:01,1658935981955,1,27/07/2022 16:33:01,94050,2,task-net4,NA,23334699,6847622,NA,complete,NA,62e159d6ff05d055a76b6d68,computer,Desktop or Laptop,Windows 10,Firefox 103.0,1025x576,1025x482,NA,ITT Ratings,3,For,8,NA,NA,NA,NA,NA,NA,ACCEPT,NA,NA,NA,batch8hes,batch8hes,27,32,1,Screen 1,continueButton,response_rating_scale_likert_active,5208,NA,NA,Agree,1,0,1,0,NA,NA,NA,NA,1,statements,It will allow me to move more freely,1,17/05/2021 12:14,17/05/2021 12:45,1854,Most weeks,Most days,38,Female,-99,"Vocational Training / Apprenticeship,A levels",74,3,Against,For
35,1658935985521,27/07/2022 15:33:05,1658935985959,1,27/07/2022 16:33:05,94050,2,task-net4,NA,23334699,6847622,NA,complete,NA,62e159d6ff05d055a76b6d68,computer,Desktop or Laptop,Windows 10,Firefox 103.0,1025x576,1025x482,NA,ITT Ratings,3,For,8,NA,NA,NA,NA,NA,NA,ACCEPT,NA,NA,NA,batch8hes,batch8hes,40,33,1,Screen 1,continueButton,response_rating_scale_likert_active,3992,NA,NA,Disagree,1,0,1,0,NA,NA,NA,NA,1,statements,i dont want a vaccine as i dont trust it,1,17/05/2021 12:43,17/05/2021 12:54,646,Rarely,Never,58,Female,-99,GCSEs,77,1,Against,Against
36,1658935994429,27/07/2022 15:33:14,1658935994814,1,27/07/2022 16:33:14,94050,2,task-net4,NA,23334699,6847622,NA,complete,NA,62e159d6ff05d055a76b6d68,computer,Desktop or Laptop,Windows 10,Firefox 103.0,1025x576,1025x482,NA,ITT Ratings,3,For,8,NA,NA,NA,NA,NA,NA,ACCEPT,NA,NA,NA,batch8hes,batch8hes,9,34,1,Screen 1,continueButton,response_rating_scale_likert_active,8844,NA,NA,Agree,1,0,1,0,NA,NA,NA,NA,1,statements,"I may as well get it or i won't be permitted to travel abroad, the government or even my workplace might also pose other restrictions on me if i'm not vaccinated.",1,17/05/2021 12:20,17/05/2021 12:39,1161,Rarely,A few times a year,35,Female,-99,"Undergraduate degree (BSc, BA)",71,3,Against,For
37,1658935998991,27/07/2022 15:33:18,1658935999416,1,27/07/2022 16:33:19,94050,2,task-net4,NA,23334699,6847622,NA,complete,NA,62e159d6ff05d055a76b6d68,computer,Desktop or Laptop,Windows 10,Firefox 103.0,1025x576,1025x482,NA,ITT Ratings,3,For,8,NA,NA,NA,NA,NA,NA,ACCEPT,NA,NA,NA,batch8hes,batch8hes,24,35,1,Screen 1,continueButton,response_rating_scale_likert_active,4591,NA,NA,Disagree,1,0,1,0,NA,NA,NA,NA,1,statements,I don't like being forced to do something.,1,17/05/2021 12:14,17/05/2021 12:45,1854,Most weeks,Most days,38,Female,-99,"Vocational Training / Apprenticeship,A levels",74,3,Against,Against
38,1658936002087,27/07/2022 15:33:22,1658936002524,1,27/07/2022 16:33:22,94050,2,task-net4,NA,23334699,6847622,NA,complete,NA,62e159d6ff05d055a76b6d68,computer,Desktop or Laptop,Windows 10,Firefox 103.0,1025x576,1025x482,NA,ITT Ratings,3,For,8,NA,NA,NA,NA,NA,NA,ACCEPT,NA,NA,NA,batch8hes,batch8hes,25,36,1,Screen 1,continueButton,response_rating_scale_likert_active,3097,NA,NA,Agree,1,0,1,0,NA,NA,NA,NA,1,statements,I think it will protect me from the covid19 virus,1,17/05/2021 12:14,17/05/2021 12:45,1854,Most weeks,Most days,38,Female,-99,"Vocational Training / Apprenticeship,A levels",74,1,Against,For
39,1658936005189,27/07/2022 15:33:25,1658936005626,1,27/07/2022 16:33:25,94050,2,task-net4,NA,23334699,6847622,NA,complete,NA,62e159d6ff05d055a76b6d68,computer,Desktop or Laptop,Windows 10,Firefox 103.0,1025x576,1025x482,NA,ITT Ratings,3,For,8,NA,NA,NA,NA,NA,NA,ACCEPT,NA,NA,NA,batch8hes,batch8hes,55,37,1,Screen 1,continueButton,response_rating_scale_likert_active,3091,NA,NA,Agree,1,0,1,0,NA,NA,NA,NA,1,statements,I can go back to work,1,17/05/2021 12:41,17/05/2021 12:54,805,Most weeks,Most weeks,55,Female,-99,A levels,79,1,Against,For
40,1658936010006,27/07/2022 15:33:30,1658936010426,1,27/07/2022 16:33:30,94050,2,task-net4,NA,23334699,6847622,NA,complete,NA,62e159d6ff05d055a76b6d68,computer,Desktop or Laptop,Windows 10,Firefox 103.0,1025x576,1025x482,NA,ITT Ratings,3,For,8,NA,NA,NA,NA,NA,NA,ACCEPT,NA,NA,NA,batch8hes,batch8hes,31,38,1,Screen 1,continueButton,response_rating_scale_likert_active,4788,NA,NA,Agree,1,0,1,0,NA,NA,NA,NA,1,statements,"I  want it if it stops me getting covid then ill have it, I can't see my relative in a nursing home",1,17/05/2021 12:22,17/05/2021 12:47,1508,A few times a year,Never,54,Female,-99,Vocational Training / Apprenticeship,75,1,Against,For
41,1658936013721,27/07/2022 15:33:33,1658936014161,1,27/07/2022 16:33:34,94050,2,task-net4,NA,23334699,6847622,NA,complete,NA,62e159d6ff05d055a76b6d68,computer,Desktop or Laptop,Windows 10,Firefox 103.0,1025x576,1025x482,NA,ITT Ratings,3,For,8,NA,NA,NA,NA,NA,NA,ACCEPT,NA,NA,NA,batch8hes,batch8hes,13,39,1,Screen 1,continueButton,response_rating_scale_likert_active,3722,NA,NA,Agree,1,0,1,0,NA,NA,NA,NA,1,statements,It has been tested and approved by state medical regulators.,1,17/05/2021 12:04,17/05/2021 12:41,2201,Most weeks,Rarely,22,Male,-99,"Undergraduate degree (BSc, BA)",72,1,Against,For
42,1658936019422,27/07/2022 15:33:39,1658936019848,1,27/07/2022 16:33:39,94050,2,task-net4,NA,23334699,6847622,NA,complete,NA,62e159d6ff05d055a76b6d68,computer,Desktop or Laptop,Windows 10,Firefox 103.0,1025x576,1025x482,NA,ITT Ratings,3,For,8,NA,NA,NA,NA,NA,NA,ACCEPT,NA,NA,NA,batch8hes,batch8hes,32,40,1,Screen 1,continueButton,response_rating_scale_likert_active,5676,NA,NA,Agree,1,0,1,0,NA,NA,NA,NA,1,statements,"I need it to work , my company is insisting that we must have it. I don't want to get the sack",1,17/05/2021 12:22,17/05/2021 12:47,1508,A few times a year,Never,54,Female,-99,Vocational Training / Apprenticeship,75,2,Against,For
43,1658936024983,27/07/2022 15:33:44,1658936025402,1,27/07/2022 16:33:45,94050,2,task-net4,NA,23334699,6847622,NA,complete,NA,62e159d6ff05d055a76b6d68,computer,Desktop or Laptop,Windows 10,Firefox 103.0,1025x576,1025x482,NA,ITT Ratings,3,For,8,NA,NA,NA,NA,NA,NA,ACCEPT,NA,NA,NA,batch8hes,batch8hes,63,41,1,Screen 1,continueButton,response_rating_scale_likert_active,5541,NA,NA,Agree,1,0,1,0,NA,NA,NA,NA,1,statements,consequences after covid19 are more serious than side effects after vaccine,1,##########,##########,1258,Most weeks,Most weeks,37,Female,-99,"Undergraduate degree (BSc, BA)",80,3,Against,For
44,1658936027710,27/07/2022 15:33:47,1658936028136,1,27/07/2022 16:33:48,94050,2,task-net4,NA,23334699,6847622,NA,complete,NA,62e159d6ff05d055a76b6d68,computer,Desktop or Laptop,Windows 10,Firefox 103.0,1025x576,1025x482,NA,ITT Ratings,3,For,8,NA,NA,NA,NA,NA,NA,ACCEPT,NA,NA,NA,batch8hes,batch8hes,16,42,1,Screen 1,continueButton,response_rating_scale_likert_active,2723,NA,NA,Disagree,1,0,1,0,NA,NA,NA,NA,1,statements,I do not trust the vaccine,1,17/05/2021 12:24,17/05/2021 12:44,1203,A few times a year,Rarely,28,Female,-99,A levels,73,1,Against,Against
45,1658936031859,27/07/2022 15:33:51,1658936032296,1,27/07/2022 16:33:52,94050,2,task-net4,NA,23334699,6847622,NA,complete,NA,62e159d6ff05d055a76b6d68,computer,Desktop or Laptop,Windows 10,Firefox 103.0,1025x576,1025x482,NA,ITT Ratings,3,For,8,NA,NA,NA,NA,NA,NA,ACCEPT,NA,NA,NA,batch8hes,batch8hes,56,43,1,Screen 1,continueButton,response_rating_scale_likert_active,4148,NA,NA,Somewhat Disagree,1,0,1,0,NA,NA,NA,NA,1,statements,I dont want to wear a mask,1,17/05/2021 12:41,17/05/2021 12:54,805,Most weeks,Most weeks,55,Female,-99,A levels,79,2,Against,For
46,1658936036353,27/07/2022 15:33:56,1658936036790,1,27/07/2022 16:33:56,94050,2,task-net4,NA,23334699,6847622,NA,complete,NA,62e159d6ff05d055a76b6d68,computer,Desktop or Laptop,Windows 10,Firefox 103.0,1025x576,1025x482,NA,ITT Ratings,3,For,8,NA,NA,NA,NA,NA,NA,ACCEPT,NA,NA,NA,batch8hes,batch8hes,29,44,1,Screen 1,continueButton,response_rating_scale_likert_active,4482,NA,NA,Disagree,1,0,1,0,NA,NA,NA,NA,1,statements,My Children do not want me to have it,1,17/05/2021 12:22,17/05/2021 12:47,1508,A few times a year,Never,54,Female,-99,Vocational Training / Apprenticeship,75,2,Against,Against
47,1658936046023,27/07/2022 15:34:06,1658936046460,1,27/07/2022 16:34:06,94050,2,task-net4,NA,23334699,6847622,NA,complete,NA,62e159d6ff05d055a76b6d68,computer,Desktop or Laptop,Windows 10,Firefox 103.0,1025x576,1025x482,NA,ITT Ratings,3,For,8,NA,NA,NA,NA,NA,NA,ACCEPT,NA,NA,NA,batch8hes,batch8hes,14,45,1,Screen 1,continueButton,response_rating_scale_likert_active,9660,NA,NA,Agree,1,0,1,0,NA,NA,NA,NA,1,statements,There haven't been widespread visible side effects several months after the introduction of the vaccines.,1,17/05/2021 12:04,17/05/2021 12:41,2201,Most weeks,Rarely,22,Male,-99,"Undergraduate degree (BSc, BA)",72,2,Against,For
48,1658936048583,27/07/2022 15:34:08,1658936049020,1,27/07/2022 16:34:09,94050,2,task-net4,NA,23334699,6847622,NA,complete,NA,62e159d6ff05d055a76b6d68,computer,Desktop or Laptop,Windows 10,Firefox 103.0,1025x576,1025x482,NA,ITT Ratings,3,For,8,NA,NA,NA,NA,NA,NA,ACCEPT,NA,NA,NA,batch8hes,batch8hes,23,46,1,Screen 1,continueButton,response_rating_scale_likert_active,2549,NA,NA,Disagree,1,0,1,0,NA,NA,NA,NA,1,statements,I don't trust whats in it,1,17/05/2021 12:14,17/05/2021 12:45,1854,Most weeks,Most days,38,Female,-99,"Vocational Training / Apprenticeship,A levels",74,2,Against,Against
49,1658936057838,27/07/2022 15:34:17,1658936058273,1,27/07/2022 16:34:18,94050,2,task-net4,NA,23334699,6847622,NA,complete,NA,62e159d6ff05d055a76b6d68,computer,Desktop or Laptop,Windows 10,Firefox 103.0,1025x576,1025x482,NA,ITT Ratings,3,For,8,NA,NA,NA,NA,NA,NA,ACCEPT,NA,NA,NA,batch8hes,batch8hes,11,47,1,Screen 1,continueButton,response_rating_scale_likert_active,9242,NA,NA,Agree,1,0,1,0,NA,NA,NA,NA,1,statements,"The vaccines that use mRNA and involve genetically modified primates are a new technique, compared to vaccines that use weakened or deactivated pathogens.",1,17/05/2021 12:04,17/05/2021 12:41,2201,Most weeks,Rarely,22,Male,-99,"Undergraduate degree (BSc, BA)",72,2,Against,Against
50,1658936066366,27/07/2022 15:34:26,1658936066796,1,27/07/2022 16:34:26,94050,2,task-net4,NA,23334699,6847622,NA,complete,NA,62e159d6ff05d055a76b6d68,computer,Desktop or Laptop,Windows 10,Firefox 103.0,1025x576,1025x482,NA,ITT Ratings,3,For,8,NA,NA,NA,NA,NA,NA,ACCEPT,NA,NA,NA,batch8hes,batch8hes,3,48,1,Screen 1,continueButton,response_rating_scale_likert_active,8513,NA,NA,Somewhat Disagree,1,0,1,0,NA,NA,NA,NA,1,statements,We would like to check you are reading each argument carefully. Please select 'Somewhat Disagree' for this answer,1,NA,NA,NA,NA,NA,NA,NA,NA,NA,NA,check2,NA,NA
51,1658936072977,27/07/2022 15:34:32,1658936073401,1,27/07/2022 16:34:33,94050,2,task-net4,NA,23334699,6847622,NA,complete,NA,62e159d6ff05d055a76b6d68,computer,Desktop or Laptop,Windows 10,Firefox 103.0,1025x576,1025x482,NA,ITT Ratings,3,For,8,NA,NA,NA,NA,NA,NA,ACCEPT,NA,NA,NA,batch8hes,batch8hes,48,49,1,Screen 1,continueButton,response_rating_scale_likert_active,6592,NA,NA,Disagree,1,0,1,0,NA,NA,NA,NA,1,statements,I just don't want it because I don't agree with it and I have a phobia of needles,1,17/05/2021 12:39,17/05/2021 12:54,901,Most months,Rarely,46,Female,-99,Vocational Training / Apprenticeship,78,3,Against,Against
52,1658936079538,27/07/2022 15:34:39,1658936079971,1,27/07/2022 16:34:39,94050,2,task-net4,NA,23334699,6847622,NA,complete,NA,62e159d6ff05d055a76b6d68,computer,Desktop or Laptop,Windows 10,Firefox 103.0,1025x576,1025x482,NA,ITT Ratings,3,For,8,NA,NA,NA,NA,NA,NA,ACCEPT,NA,NA,NA,batch8hes,batch8hes,7,50,1,Screen 1,continueButton,response_rating_scale_likert_active,6559,NA,NA,Agree,1,0,1,0,NA,NA,NA,NA,1,statements,"There have not been many particularly negative side effects reported yet, therefor its absolutely safe.",1,17/05/2021 12:20,17/05/2021 12:39,1161,Rarely,A few times a year,35,Female,-99,"Undergraduate degree (BSc, BA)",71,1,Against,For
53,1658936081403,27/07/2022 15:34:41,1658936081822,1,27/07/2022 16:34:41,94050,2,task-net4,NA,23334699,6847622,NA,complete,NA,62e159d6ff05d055a76b6d68,computer,Desktop or Laptop,Windows 10,Firefox 103.0,1025x576,1025x482,NA,ITT Ratings,3,For,8,NA,NA,NA,NA,NA,NA,ACCEPT,NA,NA,NA,batch8hes,batch8hes,62,51,1,Screen 1,continueButton,response_rating_scale_likert_active,1841,NA,NA,Agree,1,0,1,0,NA,NA,NA,NA,1,statements,vaccines were tested and safe,1,##########,##########,1258,Most weeks,Most weeks,37,Female,-99,"Undergraduate degree (BSc, BA)",80,2,Against,For
54,1658936085357,27/07/2022 15:34:45,1658936085777,1,27/07/2022 16:34:45,94050,2,task-net4,NA,23334699,6847622,NA,complete,NA,62e159d6ff05d055a76b6d68,computer,Desktop or Laptop,Windows 10,Firefox 103.0,1025x576,1025x482,NA,ITT Ratings,3,For,8,NA,NA,NA,NA,NA,NA,ACCEPT,NA,NA,NA,batch8hes,batch8hes,10,52,1,Screen 1,continueButton,response_rating_scale_likert_active,3942,NA,NA,Agree,1,0,1,0,NA,NA,NA,NA,1,statements,"The vaccine received emergency approval, and consequently there is limited long-term data available.",1,17/05/2021 12:04,17/05/2021 12:41,2201,Most weeks,Rarely,22,Male,-99,"Undergraduate degree (BSc, BA)",72,1,Against,Against
55,1658936087746,27/07/2022 15:34:47,1658936088177,1,27/07/2022 16:34:48,94050,2,task-net4,NA,23334699,6847622,NA,complete,NA,62e159d6ff05d055a76b6d68,computer,Desktop or Laptop,Windows 10,Firefox 103.0,1025x576,1025x482,NA,ITT Ratings,3,For,8,NA,NA,NA,NA,NA,NA,ACCEPT,NA,NA,NA,batch8hes,batch8hes,22,53,1,Screen 1,continueButton,response_rating_scale_likert_active,2390,NA,NA,Disagree,1,0,1,0,NA,NA,NA,NA,1,statements,I'm worried it will make me ill,1,17/05/2021 12:14,17/05/2021 12:45,1854,Most weeks,Most days,38,Female,-99,"Vocational Training / Apprenticeship,A levels",74,1,Against,Against
56,1658936094073,27/07/2022 15:34:54,1658936094506,1,27/07/2022 16:34:54,94050,2,task-net4,NA,23334699,6847622,NA,complete,NA,62e159d6ff05d055a76b6d68,computer,Desktop or Laptop,Windows 10,Firefox 103.0,1025x576,1025x482,NA,ITT Ratings,3,For,8,NA,NA,NA,NA,NA,NA,ACCEPT,NA,NA,NA,batch8hes,batch8hes,17,54,1,Screen 1,continueButton,response_rating_scale_likert_active,6318,NA,NA,Disagree,1,0,1,0,NA,NA,NA,NA,1,statements,I dont feel I have had enough time to develop the vaccine,1,17/05/2021 12:24,17/05/2021 12:44,1203,A few times a year,Rarely,28,Female,-99,A levels,73,2,Against,Against
57,1658936096678,27/07/2022 15:34:56,1658936097080,1,27/07/2022 16:34:57,94050,2,task-net4,NA,23334699,6847622,NA,complete,NA,62e159d6ff05d055a76b6d68,computer,Desktop or Laptop,Windows 10,Firefox 103.0,1025x576,1025x482,NA,ITT Ratings,3,For,8,NA,NA,NA,NA,NA,NA,ACCEPT,NA,NA,NA,batch8hes,batch8hes,44,55,1,Screen 1,continueButton,response_rating_scale_likert_active,2562,NA,NA,Agree,1,0,1,0,NA,NA,NA,NA,1,statements,it could stop me ending up in hospital,1,17/05/2021 12:43,17/05/2021 12:54,646,Rarely,Never,58,Female,-99,GCSEs,77,2,Against,For
58,1658936099981,27/07/2022 15:34:59,1658936100405,1,27/07/2022 16:35:00,94050,2,task-net4,NA,23334699,6847622,NA,complete,NA,62e159d6ff05d055a76b6d68,computer,Desktop or Laptop,Windows 10,Firefox 103.0,1025x576,1025x482,NA,ITT Ratings,3,For,8,NA,NA,NA,NA,NA,NA,ACCEPT,NA,NA,NA,batch8hes,batch8hes,21,56,1,Screen 1,continueButton,response_rating_scale_likert_active,3314,NA,NA,Agree,1,0,1,0,NA,NA,NA,NA,1,statements,I am afraid of catching covid and becoming very ill or possibly dying from the virus,1,17/05/2021 12:24,17/05/2021 12:44,1203,A few times a year,Rarely,28,Female,-99,A levels,73,3,Against,For
59,1658936104690,27/07/2022 15:35:04,1658936105113,1,27/07/2022 16:35:05,94050,2,task-net4,NA,23334699,6847622,NA,complete,NA,62e159d6ff05d055a76b6d68,computer,Desktop or Laptop,Windows 10,Firefox 103.0,1025x576,1025x482,NA,ITT Ratings,3,For,8,NA,NA,NA,NA,NA,NA,ACCEPT,NA,NA,NA,batch8hes,batch8hes,60,57,1,Screen 1,continueButton,response_rating_scale_likert_active,4695,NA,NA,Somewhat Agree,1,0,1,0,NA,NA,NA,NA,1,statements,the virus mutates and existing vaccines are not effective,1,##########,##########,1258,Most weeks,Most weeks,37,Female,-99,"Undergraduate degree (BSc, BA)",80,3,Against,Against
60,1658936107999,27/07/2022 15:35:07,1658936108423,1,27/07/2022 16:35:08,94050,2,task-net4,NA,23334699,6847622,NA,complete,NA,62e159d6ff05d055a76b6d68,computer,Desktop or Laptop,Windows 10,Firefox 103.0,1025x576,1025x482,NA,ITT Ratings,3,For,8,NA,NA,NA,NA,NA,NA,ACCEPT,NA,NA,NA,batch8hes,batch8hes,51,58,1,Screen 1,continueButton,response_rating_scale_likert_active,3298,NA,NA,Agree,1,0,1,0,NA,NA,NA,NA,1,statements,I just want to do my bit,1,17/05/2021 12:39,17/05/2021 12:54,901,Most months,Rarely,46,Female,-99,Vocational Training / Apprenticeship,78,3,Against,For
61,1658936114209,27/07/2022 15:35:14,1658936114634,1,27/07/2022 16:35:14,94050,2,task-net4,NA,23334699,6847622,NA,complete,NA,62e159d6ff05d055a76b6d68,computer,Desktop or Laptop,Windows 10,Firefox 103.0,1025x576,1025x482,NA,ITT Ratings,3,For,8,NA,NA,NA,NA,NA,NA,ACCEPT,NA,NA,NA,batch8hes,batch8hes,15,59,1,Screen 1,continueButton,response_rating_scale_likert_active,6201,NA,NA,Agree,1,0,1,0,NA,NA,NA,NA,1,statements,"Even if one is not vulnerable to the virus, getting vaccinated will reduce community transmission and therefore protect those who are.",1,17/05/2021 12:04,17/05/2021 12:41,2201,Most weeks,Rarely,22,Male,-99,"Undergraduate degree (BSc, BA)",72,3,Against,For
62,1658936118302,27/07/2022 15:35:18,1658936118720,1,27/07/2022 16:35:18,94050,2,task-net4,NA,23334699,6847622,NA,complete,NA,62e159d6ff05d055a76b6d68,computer,Desktop or Laptop,Windows 10,Firefox 103.0,1025x576,1025x482,NA,ITT Ratings,3,For,8,NA,NA,NA,NA,NA,NA,ACCEPT,NA,NA,NA,batch8hes,batch8hes,42,60,1,Screen 1,continueButton,response_rating_scale_likert_active,4075,NA,NA,Neither Agree nor Disagree,1,0,1,0,NA,NA,NA,NA,1,statements,its not been tested enough,1,17/05/2021 12:43,17/05/2021 12:54,646,Rarely,Never,58,Female,-99,GCSEs,77,3,Against,Against
63,1658936124554,27/07/2022 15:35:24,1658936124974,1,27/07/2022 16:35:24,94050,2,task-net4,NA,23334699,6847622,NA,complete,NA,62e159d6ff05d055a76b6d68,computer,Desktop or Laptop,Windows 10,Firefox 103.0,1025x576,1025x482,NA,ITT Ratings,3,For,8,NA,NA,NA,NA,NA,NA,ACCEPT,NA,NA,NA,batch8hes,batch8hes,58,61,1,Screen 1,continueButton,response_rating_scale_likert_active,6244,NA,NA,Disagree,1,0,1,0,NA,NA,NA,NA,1,statements,vaccine is not safe (a lot of deaths or strong reactions on astrazaneca or pfiser),1,##########,##########,1258,Most weeks,Most weeks,37,Female,-99,"Undergraduate degree (BSc, BA)",80,1,Against,Against
64,1658936132814,27/07/2022 15:35:32,1658936133248,1,27/07/2022 16:35:33,94050,2,task-net4,NA,23334699,6847622,NA,complete,NA,62e159d6ff05d055a76b6d68,computer,Desktop or Laptop,Windows 10,Firefox 103.0,1025x576,1025x482,NA,ITT Ratings,3,For,8,NA,NA,NA,NA,NA,NA,ACCEPT,NA,NA,NA,batch8hes,batch8hes,53,62,1,Screen 1,continueButton,response_rating_scale_likert_active,8265,NA,NA,Somewhat Disagree,1,0,1,0,NA,NA,NA,NA,1,statements,IT wont stop me getting it anyway,1,17/05/2021 12:41,17/05/2021 12:54,805,Most weeks,Most weeks,55,Female,-99,A levels,79,2,Against,Against
65,1658936132884,27/07/2022 15:35:32,1658936133264,1,27/07/2022 16:35:33,94050,2,task-net4,NA,23334699,6847622,NA,complete,NA,62e159d6ff05d055a76b6d68,computer,Desktop or Laptop,Windows 10,Firefox 103.0,1025x576,1025x482,NA,ITT Ratings,3,For,8,NA,NA,NA,NA,NA,NA,ACCEPT,NA,NA,NA,batch8hes,NA,NA,END TASK,NA,NA,NA,NA,345833,NA,NA,NA,NA,0,1,0,NA,NA,NA,NA,NA,NA,NA,NA,NA,NA,NA,NA,NA,NA,NA,NA,NA,NA,NA,NA,NA
1,1658935969787,27/07/2022 15:32:49,1658935969671,1,27/07/2022 16:32:49,94050,2,task-net4,NA,23334832,6847666,NA,complete,NA,62e159c3ab754944781d2f24,computer,Desktop or Laptop,Mac OS 10.15.7,Chrome 103.0.0.0,1440x900,714x685,NA,ITT Ratings,3,For,8,NA,NA,NA,NA,NA,NA,ACCEPT,NA,NA,NA,batch8hes,NA,NA,BEGIN TASK,NA,NA,NA,NA,NA,NA,NA,NA,NA,0,1,0,NA,NA,NA,NA,NA,NA,NA,NA,NA,NA,NA,NA,NA,NA,NA,NA,NA,NA,NA,NA,NA
2,1658935972563,27/07/2022 15:32:52,1658935972488,1,27/07/2022 16:32:52,94050,2,task-net4,NA,23334832,6847666,NA,complete,NA,62e159c3ab754944781d2f24,computer,Desktop or Laptop,Mac OS 10.15.7,Chrome 103.0.0.0,1440x900,1440x765,NA,ITT Ratings,3,For,8,NA,NA,NA,NA,NA,NA,ACCEPT,NA,NA,NA,batch8hes,batch8hes,1,1,1,Screen 1,advancementZone,continue_button,2760.899999976158,NA,NA,NA,NA,0,1,0,NA,NA,NA,NA,NA,instructions,NA,NA,NA,NA,NA,NA,NA,NA,NA,NA,NA,NA,NA,NA,NA
3,1658935977211,27/07/2022 15:32:57,1658935977131,1,27/07/2022 16:32:57,94050,2,task-net4,NA,23334832,6847666,NA,complete,NA,62e159c3ab754944781d2f24,computer,Desktop or Laptop,Mac OS 10.15.7,Chrome 103.0.0.0,1440x900,1440x765,NA,ITT Ratings,3,For,8,NA,NA,NA,NA,NA,NA,ACCEPT,NA,NA,NA,batch8hes,batch8hes,26,1,1,Screen 1,continueButton,response_rating_scale_likert_active,4626.300000011921,NA,NA,Somewhat Agree,1,0,1,0,NA,NA,NA,NA,1,statements,It will protect the vulnerable groups,1,17/05/2021 12:14,17/05/2021 12:45,1854,Most weeks,Most days,38,Female,-99,"Vocational Training / Apprenticeship,A levels",74,2,Against,For
4,1658935978433,27/07/2022 15:32:58,1658935978361,1,27/07/2022 16:32:58,94050,2,task-net4,NA,23334832,6847666,NA,complete,NA,62e159c3ab754944781d2f24,computer,Desktop or Laptop,Mac OS 10.15.7,Chrome 103.0.0.0,1440x900,1440x765,NA,ITT Ratings,3,For,8,NA,NA,NA,NA,NA,NA,ACCEPT,NA,NA,NA,batch8hes,batch8hes,19,2,1,Screen 1,continueButton,response_rating_scale_likert_active,1211.199999988079,NA,NA,Somewhat Agree,1,0,1,0,NA,NA,NA,NA,1,statements,I trust the vaccine,1,17/05/2021 12:24,17/05/2021 12:44,1203,A few times a year,Rarely,28,Female,-99,A levels,73,1,Against,For
5,1658935984091,27/07/2022 15:33:04,1658935984011,1,27/07/2022 16:33:04,94050,2,task-net4,NA,23334832,6847666,NA,complete,NA,62e159c3ab754944781d2f24,computer,Desktop or Laptop,Mac OS 10.15.7,Chrome 103.0.0.0,1440x900,1440x765,NA,ITT Ratings,3,For,8,NA,NA,NA,NA,NA,NA,ACCEPT,NA,NA,NA,batch8hes,batch8hes,30,3,1,Screen 1,continueButton,response_rating_scale_likert_active,5635.600000023842,NA,NA,Strongly Disagree,1,0,1,0,NA,NA,NA,NA,1,statements,I saw a video from a woman doctor/scientist who stated the vacine changes your DNA and destroys your immune system months after you have had it,1,17/05/2021 12:22,17/05/2021 12:47,1508,A few times a year,Never,54,Female,-99,Vocational Training / Apprenticeship,75,3,Against,Against
6,1658935988131,27/07/2022 15:33:08,1658935988038,1,27/07/2022 16:33:08,94050,2,task-net4,NA,23334832,6847666,NA,complete,NA,62e159c3ab754944781d2f24,computer,Desktop or Laptop,Mac OS 10.15.7,Chrome 103.0.0.0,1440x900,1440x765,NA,ITT Ratings,3,For,8,NA,NA,NA,NA,NA,NA,ACCEPT,NA,NA,NA,batch8hes,batch8hes,40,4,1,Screen 1,continueButton,response_rating_scale_likert_active,4012.599999964237,NA,NA,Somewhat Disagree,1,0,1,0,NA,NA,NA,NA,1,statements,i dont want a vaccine as i dont trust it,1,17/05/2021 12:43,17/05/2021 12:54,646,Rarely,Never,58,Female,-99,GCSEs,77,1,Against,Against
7,1658935993237,27/07/2022 15:33:13,1658935993153,1,27/07/2022 16:33:13,94050,2,task-net4,NA,23334832,6847666,NA,complete,NA,62e159c3ab754944781d2f24,computer,Desktop or Laptop,Mac OS 10.15.7,Chrome 103.0.0.0,1440x900,1440x765,NA,ITT Ratings,3,For,8,NA,NA,NA,NA,NA,NA,ACCEPT,NA,NA,NA,batch8hes,batch8hes,17,5,1,Screen 1,continueButton,response_rating_scale_likert_active,5100.899999976158,NA,NA,Neither Agree nor Disagree,1,0,1,0,NA,NA,NA,NA,1,statements,I dont feel I have had enough time to develop the vaccine,1,17/05/2021 12:24,17/05/2021 12:44,1203,A few times a year,Rarely,28,Female,-99,A levels,73,2,Against,Against
8,1658935996678,27/07/2022 15:33:16,1658935996606,1,27/07/2022 16:33:16,94050,2,task-net4,NA,23334832,6847666,NA,complete,NA,62e159c3ab754944781d2f24,computer,Desktop or Laptop,Mac OS 10.15.7,Chrome 103.0.0.0,1440x900,1440x765,NA,ITT Ratings,3,For,8,NA,NA,NA,NA,NA,NA,ACCEPT,NA,NA,NA,batch8hes,batch8hes,6,6,1,Screen 1,continueButton,response_rating_scale_likert_active,3435.800000011921,NA,NA,Somewhat Disagree,1,0,1,0,NA,NA,NA,NA,1,statements,Other trials such as that for thalidomide that were rushed provide an example of why i should be hesitant to get a jab so soon,1,17/05/2021 12:20,17/05/2021 12:39,1161,Rarely,A few times a year,35,Female,-99,"Undergraduate degree (BSc, BA)",71,3,Against,Against
9,1658935999708,27/07/2022 15:33:19,1658935999608,1,27/07/2022 16:33:19,94050,2,task-net4,NA,23334832,6847666,NA,complete,NA,62e159c3ab754944781d2f24,computer,Desktop or Laptop,Mac OS 10.15.7,Chrome 103.0.0.0,1440x900,1440x765,NA,ITT Ratings,3,For,8,NA,NA,NA,NA,NA,NA,ACCEPT,NA,NA,NA,batch8hes,batch8hes,8,7,1,Screen 1,continueButton,response_rating_scale_likert_active,2987.7999999523163,NA,NA,Neither Agree nor Disagree,1,0,1,0,NA,NA,NA,NA,1,statements,"If you don't get a vaccination, you are being selfish on the rest of the nation. Vaccinations are the only way to get out of lockdown and save our economy.",1,17/05/2021 12:20,17/05/2021 12:39,1161,Rarely,A few times a year,35,Female,-99,"Undergraduate degree (BSc, BA)",71,2,Against,For
10,1658936001491,27/07/2022 15:33:21,1658936001418,1,27/07/2022 16:33:21,94050,2,task-net4,NA,23334832,6847666,NA,complete,NA,62e159c3ab754944781d2f24,computer,Desktop or Laptop,Mac OS 10.15.7,Chrome 103.0.0.0,1440x900,1440x765,NA,ITT Ratings,3,For,8,NA,NA,NA,NA,NA,NA,ACCEPT,NA,NA,NA,batch8hes,batch8hes,13,8,1,Screen 1,continueButton,response_rating_scale_likert_active,1792.300000011921,NA,NA,Somewhat Agree,1,0,1,0,NA,NA,NA,NA,1,statements,It has been tested and approved by state medical regulators.,1,17/05/2021 12:04,17/05/2021 12:41,2201,Most weeks,Rarely,22,Male,-99,"Undergraduate degree (BSc, BA)",72,1,Against,For
11,1658936036188,27/07/2022 15:33:56,1658936036056,1,27/07/2022 16:33:56,94050,2,task-net4,NA,23334832,6847666,NA,complete,NA,62e159c3ab754944781d2f24,computer,Desktop or Laptop,Mac OS 10.15.7,Chrome 103.0.0.0,1440x900,1440x765,NA,ITT Ratings,3,For,8,NA,NA,NA,NA,NA,NA,ACCEPT,NA,NA,NA,batch8hes,batch8hes,9,9,1,Screen 1,continueButton,response_rating_scale_likert_active,34622.59999996424,NA,NA,Agree,1,0,1,0,NA,NA,NA,NA,1,statements,"I may as well get it or i won't be permitted to travel abroad, the government or even my workplace might also pose other restrictions on me if i'm not vaccinated.",1,17/05/2021 12:20,17/05/2021 12:39,1161,Rarely,A few times a year,35,Female,-99,"Undergraduate degree (BSc, BA)",71,3,Against,For
12,1658936038313,27/07/2022 15:33:58,1658936038234,1,27/07/2022 16:33:58,94050,2,task-net4,NA,23334832,6847666,NA,complete,NA,62e159c3ab754944781d2f24,computer,Desktop or Laptop,Mac OS 10.15.7,Chrome 103.0.0.0,1440x900,1440x765,NA,ITT Ratings,3,For,8,NA,NA,NA,NA,NA,NA,ACCEPT,NA,NA,NA,batch8hes,batch8hes,41,10,1,Screen 1,continueButton,response_rating_scale_likert_active,2162.5,NA,NA,Strongly Agree,1,0,1,0,NA,NA,NA,NA,1,statements,it wont stop me getting covid,1,17/05/2021 12:43,17/05/2021 12:54,646,Rarely,Never,58,Female,-99,GCSEs,77,2,Against,Against
13,1658936040538,27/07/2022 15:34:00,1658936040444,1,27/07/2022 16:34:00,94050,2,task-net4,NA,23334832,6847666,NA,complete,NA,62e159c3ab754944781d2f24,computer,Desktop or Laptop,Mac OS 10.15.7,Chrome 103.0.0.0,1440x900,1440x765,NA,ITT Ratings,3,For,8,NA,NA,NA,NA,NA,NA,ACCEPT,NA,NA,NA,batch8hes,batch8hes,39,11,1,Screen 1,continueButton,response_rating_scale_likert_active,2191.400000035763,NA,NA,Neither Agree nor Disagree,1,0,1,0,NA,NA,NA,NA,1,statements,Risk of getting virus is low.,1,17/05/2021 12:38,17/05/2021 12:53,872,Rarely,Never,23,Female,-99,A levels,76,3,Against,For
14,1658936042323,27/07/2022 15:34:02,1658936042247,1,27/07/2022 16:34:02,94050,2,task-net4,NA,23334832,6847666,NA,complete,NA,62e159c3ab754944781d2f24,computer,Desktop or Laptop,Mac OS 10.15.7,Chrome 103.0.0.0,1440x900,1440x765,NA,ITT Ratings,3,For,8,NA,NA,NA,NA,NA,NA,ACCEPT,NA,NA,NA,batch8hes,batch8hes,29,12,1,Screen 1,continueButton,response_rating_scale_likert_active,1795.699999988079,NA,NA,Neither Agree nor Disagree,1,0,1,0,NA,NA,NA,NA,1,statements,My Children do not want me to have it,1,17/05/2021 12:22,17/05/2021 12:47,1508,A few times a year,Never,54,Female,-99,Vocational Training / Apprenticeship,75,2,Against,Against
15,1658936043509,27/07/2022 15:34:03,1658936043433,1,27/07/2022 16:34:03,94050,2,task-net4,NA,23334832,6847666,NA,complete,NA,62e159c3ab754944781d2f24,computer,Desktop or Laptop,Mac OS 10.15.7,Chrome 103.0.0.0,1440x900,1440x765,NA,ITT Ratings,3,For,8,NA,NA,NA,NA,NA,NA,ACCEPT,NA,NA,NA,batch8hes,batch8hes,47,13,1,Screen 1,continueButton,response_rating_scale_likert_active,1168.800000011921,NA,NA,Neither Agree nor Disagree,1,0,1,0,NA,NA,NA,NA,1,statements,I have an allergy to one of the ingredients,1,17/05/2021 12:39,17/05/2021 12:54,901,Most months,Rarely,46,Female,-99,Vocational Training / Apprenticeship,78,2,Against,Against
16,1658936044992,27/07/2022 15:34:04,1658936044915,1,27/07/2022 16:34:04,94050,2,task-net4,NA,23334832,6847666,NA,complete,NA,62e159c3ab754944781d2f24,computer,Desktop or Laptop,Mac OS 10.15.7,Chrome 103.0.0.0,1440x900,1440x765,NA,ITT Ratings,3,For,8,NA,NA,NA,NA,NA,NA,ACCEPT,NA,NA,NA,batch8hes,batch8hes,55,14,1,Screen 1,continueButton,response_rating_scale_likert_active,1467.100000023842,NA,NA,Somewhat Agree,1,0,1,0,NA,NA,NA,NA,1,statements,I can go back to work,1,17/05/2021 12:41,17/05/2021 12:54,805,Most weeks,Most weeks,55,Female,-99,A levels,79,1,Against,For
17,1658936049423,27/07/2022 15:34:09,1658936049346,1,27/07/2022 16:34:09,94050,2,task-net4,NA,23334832,6847666,NA,complete,NA,62e159c3ab754944781d2f24,computer,Desktop or Laptop,Mac OS 10.15.7,Chrome 103.0.0.0,1440x900,1440x765,NA,ITT Ratings,3,For,8,NA,NA,NA,NA,NA,NA,ACCEPT,NA,NA,NA,batch8hes,batch8hes,25,15,1,Screen 1,continueButton,response_rating_scale_likert_active,4416.600000023842,NA,NA,Somewhat Agree,1,0,1,0,NA,NA,NA,NA,1,statements,I think it will protect me from the covid19 virus,1,17/05/2021 12:14,17/05/2021 12:45,1854,Most weeks,Most days,38,Female,-99,"Vocational Training / Apprenticeship,A levels",74,1,Against,For
18,1658936050603,27/07/2022 15:34:10,1658936050532,1,27/07/2022 16:34:10,94050,2,task-net4,NA,23334832,6847666,NA,complete,NA,62e159c3ab754944781d2f24,computer,Desktop or Laptop,Mac OS 10.15.7,Chrome 103.0.0.0,1440x900,1440x765,NA,ITT Ratings,3,For,8,NA,NA,NA,NA,NA,NA,ACCEPT,NA,NA,NA,batch8hes,batch8hes,27,16,1,Screen 1,continueButton,response_rating_scale_likert_active,1173.300000011921,NA,NA,Somewhat Agree,1,0,1,0,NA,NA,NA,NA,1,statements,It will allow me to move more freely,1,17/05/2021 12:14,17/05/2021 12:45,1854,Most weeks,Most days,38,Female,-99,"Vocational Training / Apprenticeship,A levels",74,3,Against,For
19,1658936053537,27/07/2022 15:34:13,1658936053465,1,27/07/2022 16:34:13,94050,2,task-net4,NA,23334832,6847666,NA,complete,NA,62e159c3ab754944781d2f24,computer,Desktop or Laptop,Mac OS 10.15.7,Chrome 103.0.0.0,1440x900,1440x765,NA,ITT Ratings,3,For,8,NA,NA,NA,NA,NA,NA,ACCEPT,NA,NA,NA,batch8hes,batch8hes,50,17,1,Screen 1,continueButton,response_rating_scale_likert_active,2916,NA,NA,Neither Agree nor Disagree,1,0,1,0,NA,NA,NA,NA,1,statements,the are a carer or around elderly people,1,17/05/2021 12:39,17/05/2021 12:54,901,Most months,Rarely,46,Female,-99,Vocational Training / Apprenticeship,78,2,Against,For
20,1658936058434,27/07/2022 15:34:18,1658936058349,1,27/07/2022 16:34:18,94050,2,task-net4,NA,23334832,6847666,NA,complete,NA,62e159c3ab754944781d2f24,computer,Desktop or Laptop,Mac OS 10.15.7,Chrome 103.0.0.0,1440x900,1440x765,NA,ITT Ratings,3,For,8,NA,NA,NA,NA,NA,NA,ACCEPT,NA,NA,NA,batch8hes,batch8hes,57,18,1,Screen 1,continueButton,response_rating_scale_likert_active,4869.100000023842,NA,NA,Somewhat Disagree,1,0,1,0,NA,NA,NA,NA,1,statements,I think i will get it if i dont get a vaccination,1,17/05/2021 12:41,17/05/2021 12:54,805,Most weeks,Most weeks,55,Female,-99,A levels,79,3,Against,For
21,1658936061333,27/07/2022 15:34:21,1658936061252,1,27/07/2022 16:34:21,94050,2,task-net4,NA,23334832,6847666,NA,complete,NA,62e159c3ab754944781d2f24,computer,Desktop or Laptop,Mac OS 10.15.7,Chrome 103.0.0.0,1440x900,1440x765,NA,ITT Ratings,3,For,8,NA,NA,NA,NA,NA,NA,ACCEPT,NA,NA,NA,batch8hes,batch8hes,53,19,1,Screen 1,continueButton,response_rating_scale_likert_active,2888.699999988079,NA,NA,Somewhat Agree,1,0,1,0,NA,NA,NA,NA,1,statements,IT wont stop me getting it anyway,1,17/05/2021 12:41,17/05/2021 12:54,805,Most weeks,Most weeks,55,Female,-99,A levels,79,2,Against,Against
22,1658936063088,27/07/2022 15:34:23,1658936063009,1,27/07/2022 16:34:23,94050,2,task-net4,NA,23334832,6847666,NA,complete,NA,62e159c3ab754944781d2f24,computer,Desktop or Laptop,Mac OS 10.15.7,Chrome 103.0.0.0,1440x900,1440x765,NA,ITT Ratings,3,For,8,NA,NA,NA,NA,NA,NA,ACCEPT,NA,NA,NA,batch8hes,batch8hes,52,20,1,Screen 1,continueButton,response_rating_scale_likert_active,1743.199999988079,NA,NA,Neither Agree nor Disagree,1,0,1,0,NA,NA,NA,NA,1,statements,There is history of thrombosis in my family,1,17/05/2021 12:41,17/05/2021 12:54,805,Most weeks,Most weeks,55,Female,-99,A levels,79,1,Against,Against
23,1658936064887,27/07/2022 15:34:24,1658936064801,1,27/07/2022 16:34:24,94050,2,task-net4,NA,23334832,6847666,NA,complete,NA,62e159c3ab754944781d2f24,computer,Desktop or Laptop,Mac OS 10.15.7,Chrome 103.0.0.0,1440x900,1440x765,NA,ITT Ratings,3,For,8,NA,NA,NA,NA,NA,NA,ACCEPT,NA,NA,NA,batch8hes,batch8hes,45,21,1,Screen 1,continueButton,response_rating_scale_likert_active,1777.5999999642372,NA,NA,Somewhat Agree,1,0,1,0,NA,NA,NA,NA,1,statements,i want life back to normal so will take it,1,17/05/2021 12:43,17/05/2021 12:54,646,Rarely,Never,58,Female,-99,GCSEs,77,3,Against,For
24,1658936067752,27/07/2022 15:34:27,1658936067667,1,27/07/2022 16:34:27,94050,2,task-net4,NA,23334832,6847666,NA,complete,NA,62e159c3ab754944781d2f24,computer,Desktop or Laptop,Mac OS 10.15.7,Chrome 103.0.0.0,1440x900,1440x765,NA,ITT Ratings,3,For,8,NA,NA,NA,NA,NA,NA,ACCEPT,NA,NA,NA,batch8hes,batch8hes,15,22,1,Screen 1,continueButton,response_rating_scale_likert_active,2850,NA,NA,Somewhat Agree,1,0,1,0,NA,NA,NA,NA,1,statements,"Even if one is not vulnerable to the virus, getting vaccinated will reduce community transmission and therefore protect those who are.",1,17/05/2021 12:04,17/05/2021 12:41,2201,Most weeks,Rarely,22,Male,-99,"Undergraduate degree (BSc, BA)",72,3,Against,For
25,1658936070099,27/07/2022 15:34:30,1658936070009,1,27/07/2022 16:34:30,94050,2,task-net4,NA,23334832,6847666,NA,complete,NA,62e159c3ab754944781d2f24,computer,Desktop or Laptop,Mac OS 10.15.7,Chrome 103.0.0.0,1440x900,1440x765,NA,ITT Ratings,3,For,8,NA,NA,NA,NA,NA,NA,ACCEPT,NA,NA,NA,batch8hes,batch8hes,2,23,1,Screen 1,continueButton,response_rating_scale_likert_active,2328,NA,NA,Somewhat Agree,1,0,1,0,NA,NA,NA,NA,1,statements,We would like to check you are reading each argument carefully. Please select 'Somewhat Agree' for this answer,1,NA,NA,NA,NA,NA,NA,NA,NA,NA,NA,check1,NA,NA
26,1658936071651,27/07/2022 15:34:31,1658936071571,1,27/07/2022 16:34:31,94050,2,task-net4,NA,23334832,6847666,NA,complete,NA,62e159c3ab754944781d2f24,computer,Desktop or Laptop,Mac OS 10.15.7,Chrome 103.0.0.0,1440x900,1440x765,NA,ITT Ratings,3,For,8,NA,NA,NA,NA,NA,NA,ACCEPT,NA,NA,NA,batch8hes,batch8hes,38,24,1,Screen 1,continueButton,response_rating_scale_likert_active,1550,NA,NA,Agree,1,0,1,0,NA,NA,NA,NA,1,statements,Ability to travel in the future.,1,17/05/2021 12:38,17/05/2021 12:53,872,Rarely,Never,23,Female,-99,A levels,76,2,Against,For
27,1658936073150,27/07/2022 15:34:33,1658936073072,1,27/07/2022 16:34:33,94050,2,task-net4,NA,23334832,6847666,NA,complete,NA,62e159c3ab754944781d2f24,computer,Desktop or Laptop,Mac OS 10.15.7,Chrome 103.0.0.0,1440x900,1440x765,NA,ITT Ratings,3,For,8,NA,NA,NA,NA,NA,NA,ACCEPT,NA,NA,NA,batch8hes,batch8hes,44,25,1,Screen 1,continueButton,response_rating_scale_likert_active,1486.0999999642372,NA,NA,Agree,1,0,1,0,NA,NA,NA,NA,1,statements,it could stop me ending up in hospital,1,17/05/2021 12:43,17/05/2021 12:54,646,Rarely,Never,58,Female,-99,GCSEs,77,2,Against,For
28,1658936074291,27/07/2022 15:34:34,1658936074216,1,27/07/2022 16:34:34,94050,2,task-net4,NA,23334832,6847666,NA,complete,NA,62e159c3ab754944781d2f24,computer,Desktop or Laptop,Mac OS 10.15.7,Chrome 103.0.0.0,1440x900,1440x765,NA,ITT Ratings,3,For,8,NA,NA,NA,NA,NA,NA,ACCEPT,NA,NA,NA,batch8hes,batch8hes,62,26,1,Screen 1,continueButton,response_rating_scale_likert_active,1128.899999976158,NA,NA,Agree,1,0,1,0,NA,NA,NA,NA,1,statements,vaccines were tested and safe,1,##########,##########,1258,Most weeks,Most weeks,37,Female,-99,"Undergraduate degree (BSc, BA)",80,2,Against,For
29,1658936121601,27/07/2022 15:35:21,1658936121500,1,27/07/2022 16:35:21,94050,2,task-net4,NA,23334832,6847666,NA,complete,NA,62e159c3ab754944781d2f24,computer,Desktop or Laptop,Mac OS 10.15.7,Chrome 103.0.0.0,1440x900,1440x765,NA,ITT Ratings,3,For,8,NA,NA,NA,NA,NA,NA,ACCEPT,NA,NA,NA,batch8hes,batch8hes,58,27,1,Screen 1,continueButton,response_rating_scale_likert_active,47266.60000002384,NA,NA,Somewhat Disagree,1,0,1,0,NA,NA,NA,NA,1,statements,vaccine is not safe (a lot of deaths or strong reactions on astrazaneca or pfiser),1,##########,##########,1258,Most weeks,Most weeks,37,Female,-99,"Undergraduate degree (BSc, BA)",80,1,Against,Against
30,1658936123979,27/07/2022 15:35:23,1658936123893,1,27/07/2022 16:35:23,94050,2,task-net4,NA,23334832,6847666,NA,complete,NA,62e159c3ab754944781d2f24,computer,Desktop or Laptop,Mac OS 10.15.7,Chrome 103.0.0.0,1440x900,1440x765,NA,ITT Ratings,3,For,8,NA,NA,NA,NA,NA,NA,ACCEPT,NA,NA,NA,batch8hes,batch8hes,42,28,1,Screen 1,continueButton,response_rating_scale_likert_active,2378,NA,NA,Neither Agree nor Disagree,1,0,1,0,NA,NA,NA,NA,1,statements,its not been tested enough,1,17/05/2021 12:43,17/05/2021 12:54,646,Rarely,Never,58,Female,-99,GCSEs,77,3,Against,Against
31,1658936125758,27/07/2022 15:35:25,1658936125621,1,27/07/2022 16:35:25,94050,2,task-net4,NA,23334832,6847666,NA,complete,NA,62e159c3ab754944781d2f24,computer,Desktop or Laptop,Mac OS 10.15.7,Chrome 103.0.0.0,1440x900,1440x765,NA,ITT Ratings,3,For,8,NA,NA,NA,NA,NA,NA,ACCEPT,NA,NA,NA,batch8hes,batch8hes,24,29,1,Screen 1,continueButton,response_rating_scale_likert_active,1709.699999988079,NA,NA,Somewhat Agree,1,0,1,0,NA,NA,NA,NA,1,statements,I don't like being forced to do something.,1,17/05/2021 12:14,17/05/2021 12:45,1854,Most weeks,Most days,38,Female,-99,"Vocational Training / Apprenticeship,A levels",74,3,Against,Against
32,1658936128664,27/07/2022 15:35:28,1658936128588,1,27/07/2022 16:35:28,94050,2,task-net4,NA,23334832,6847666,NA,complete,NA,62e159c3ab754944781d2f24,computer,Desktop or Laptop,Mac OS 10.15.7,Chrome 103.0.0.0,1440x900,1440x765,NA,ITT Ratings,3,For,8,NA,NA,NA,NA,NA,NA,ACCEPT,NA,NA,NA,batch8hes,batch8hes,14,30,1,Screen 1,continueButton,response_rating_scale_likert_active,2952.900000035763,NA,NA,Neither Agree nor Disagree,1,0,1,0,NA,NA,NA,NA,1,statements,There haven't been widespread visible side effects several months after the introduction of the vaccines.,1,17/05/2021 12:04,17/05/2021 12:41,2201,Most weeks,Rarely,22,Male,-99,"Undergraduate degree (BSc, BA)",72,2,Against,For
33,1658936132623,27/07/2022 15:35:32,1658936132530,1,27/07/2022 16:35:32,94050,2,task-net4,NA,23334832,6847666,NA,complete,NA,62e159c3ab754944781d2f24,computer,Desktop or Laptop,Mac OS 10.15.7,Chrome 103.0.0.0,1440x900,1440x765,NA,ITT Ratings,3,For,8,NA,NA,NA,NA,NA,NA,ACCEPT,NA,NA,NA,batch8hes,batch8hes,36,31,1,Screen 1,continueButton,response_rating_scale_likert_active,3928.399999976158,NA,NA,Somewhat Disagree,1,0,1,0,NA,NA,NA,NA,1,statements,Enough evidence it even works?,1,17/05/2021 12:38,17/05/2021 12:53,872,Rarely,Never,23,Female,-99,A levels,76,3,Against,Against
