Event.Index,UTC.Timestamp,UTC.Date,Local.Timestamp,Local.Timezone,Local.Date,Experiment.ID,Experiment.Version,Tree.Node.Key,Repeat.Key,Schedule.ID,Participant.Private.ID,Participant.Starting.Group,Participant.Status,Participant.Completion.Code,Participant.External.Session.ID,Participant.Device.Type,Participant.Device,Participant.OS,Participant.Browser,Participant.Monitor.Size,Participant.Viewport.Size,Checkpoint,Task.Name,Task.Version,branch.69an,randomiser.8vg2,quota.bqtt,quota.rycs,quota.wtfi,quota.usve,quota.zgic,quota.f3yz,quota.r9vy,quota.tfqq,quota.3dga,quota.dtj6,Spreadsheet,Spreadsheet.Name,Spreadsheet.Row,Trial.Number,Screen.Number,Screen.Name,Zone.Name,Zone.Type,Reaction.Time,Reaction.Onset,Response.Type,Response,Attempt,Correct,Incorrect,Dishonest,X.Coordinate,Y.Coordinate,Timed.Out,randomise_blocks,randomise_trials,display,Arguments,ShowProgressBar,StartDate,EndDate,Duration,discuss_1,read_1,age,gender,gender_4_TEXT,edu,ID,arg_ID,Position,Arg_Position
1,1658859117068,26/07/2022 18:11:57,1658859115976,1,26/07/2022 19:11:55,93981,5,task-ig1e,NA,23317809,6842811,NA,complete,NA,62e02e365fba70e54c66ea85,computer,Desktop or Laptop,Windows 10,Firefox 102.0,1280x800,1064x675,NA,ITT Ratings,3,against,3,NA,ACCEPT,NA,NA,NA,NA,NA,NA,NA,NA,batch3hes,NA,NA,BEGIN TASK,NA,NA,NA,NA,NA,NA,NA,NA,NA,0,1,0,NA,NA,NA,NA,NA,NA,NA,NA,NA,NA,NA,NA,NA,NA,NA,NA,NA,NA,NA,NA,NA
2,1658859121470,26/07/2022 18:12:01,1658859120520,1,26/07/2022 19:12:00,93981,5,task-ig1e,NA,23317809,6842811,NA,complete,NA,62e02e365fba70e54c66ea85,computer,Desktop or Laptop,Windows 10,Firefox 102.0,1280x800,1064x675,NA,ITT Ratings,3,against,3,NA,ACCEPT,NA,NA,NA,NA,NA,NA,NA,NA,batch3hes,batch3hes,1,1,1,Screen 1,advancementZone,continue_button,4438,NA,NA,NA,NA,0,1,0,NA,NA,NA,NA,NA,instructions,NA,NA,NA,NA,NA,NA,NA,NA,NA,NA,NA,NA,NA,NA,NA
3,1658859127478,26/07/2022 18:12:07,1658859126535,1,26/07/2022 19:12:06,93981,5,task-ig1e,NA,23317809,6842811,NA,complete,NA,62e02e365fba70e54c66ea85,computer,Desktop or Laptop,Windows 10,Firefox 102.0,1280x800,1064x675,NA,ITT Ratings,3,against,3,NA,ACCEPT,NA,NA,NA,NA,NA,NA,NA,NA,batch3hes,batch3hes,50,1,1,Screen 1,continueButton,response_rating_scale_likert_active,5955,NA,NA,Disagree,1,0,1,0,NA,NA,NA,NA,1,statements,It's a way of getting life back to normal,1,17/05/2021 11:17,17/05/2021 11:26,535,Most weeks,Most weeks,29,Female,-99,A levels,28,2,Against,For
4,1658859129750,26/07/2022 18:12:09,1658859128815,1,26/07/2022 19:12:08,93981,5,task-ig1e,NA,23317809,6842811,NA,complete,NA,62e02e365fba70e54c66ea85,computer,Desktop or Laptop,Windows 10,Firefox 102.0,1280x800,1064x675,NA,ITT Ratings,3,against,3,NA,ACCEPT,NA,NA,NA,NA,NA,NA,NA,NA,batch3hes,batch3hes,44,2,1,Screen 1,continueButton,response_rating_scale_likert_active,2243,NA,NA,Disagree,1,0,1,0,NA,NA,NA,NA,1,statements,Plenty of case studies,1,17/05/2021 11:17,17/05/2021 11:25,451,Never,Never,28,Female,-99,A levels,27,2,Against,For
5,1658859132389,26/07/2022 18:12:12,1658859131464,1,26/07/2022 19:12:11,93981,5,task-ig1e,NA,23317809,6842811,NA,complete,NA,62e02e365fba70e54c66ea85,computer,Desktop or Laptop,Windows 10,Firefox 102.0,1280x800,1064x675,NA,ITT Ratings,3,against,3,NA,ACCEPT,NA,NA,NA,NA,NA,NA,NA,NA,batch3hes,batch3hes,30,3,1,Screen 1,continueButton,response_rating_scale_likert_active,2614,NA,NA,Strongly Agree,1,0,1,0,NA,NA,NA,NA,1,statements,You can still get the virus,1,17/05/2021 11:11,17/05/2021 11:24,795,Most days,Most months,25,Female,-99,"Postgraduate degree (MSc, MA, MPhil)",25,3,Against,Against
6,1658859134271,26/07/2022 18:12:14,1658859133344,1,26/07/2022 19:12:13,93981,5,task-ig1e,NA,23317809,6842811,NA,complete,NA,62e02e365fba70e54c66ea85,computer,Desktop or Laptop,Windows 10,Firefox 102.0,1280x800,1064x675,NA,ITT Ratings,3,against,3,NA,ACCEPT,NA,NA,NA,NA,NA,NA,NA,NA,batch3hes,batch3hes,19,4,1,Screen 1,continueButton,response_rating_scale_likert_active,1850,NA,NA,Strongly Disagree,1,0,1,0,NA,NA,NA,NA,1,statements,It is the best way to protect yourself and your loved ones,1,17/05/2021 11:20,17/05/2021 11:23,190,Most weeks,Most weeks,25,Female,-99,Vocational Training / Apprenticeship,23,1,Against,For
7,1658859139472,26/07/2022 18:12:19,1658859138543,1,26/07/2022 19:12:18,93981,5,task-ig1e,NA,23317809,6842811,NA,complete,NA,62e02e365fba70e54c66ea85,computer,Desktop or Laptop,Windows 10,Firefox 102.0,1280x800,1064x675,NA,ITT Ratings,3,against,3,NA,ACCEPT,NA,NA,NA,NA,NA,NA,NA,NA,batch3hes,batch3hes,21,5,1,Screen 1,continueButton,response_rating_scale_likert_active,5170,NA,NA,Disagree,1,0,1,0,NA,NA,NA,NA,1,statements,the pro's out weigh the con's of the vaccine,1,17/05/2021 11:20,17/05/2021 11:23,190,Most weeks,Most weeks,25,Female,-99,Vocational Training / Apprenticeship,23,3,Against,For
8,1658859142410,26/07/2022 18:12:22,1658859141480,1,26/07/2022 19:12:21,93981,5,task-ig1e,NA,23317809,6842811,NA,complete,NA,62e02e365fba70e54c66ea85,computer,Desktop or Laptop,Windows 10,Firefox 102.0,1280x800,1064x675,NA,ITT Ratings,3,against,3,NA,ACCEPT,NA,NA,NA,NA,NA,NA,NA,NA,batch3hes,batch3hes,27,6,1,Screen 1,continueButton,response_rating_scale_likert_active,2910,NA,NA,Strongly Disagree,1,0,1,0,NA,NA,NA,NA,1,statements,Everyone else is getting it and I don't want to be left behind.,1,17/05/2021 10:52,17/05/2021 11:24,1936,Most weeks,Most days,64,Male,-99,No formal qualifications,24,3,Against,For
9,1658859147678,26/07/2022 18:12:27,1658859146599,1,26/07/2022 19:12:26,93981,5,task-ig1e,NA,23317809,6842811,NA,complete,NA,62e02e365fba70e54c66ea85,computer,Desktop or Laptop,Windows 10,Firefox 102.0,1280x800,1064x675,NA,ITT Ratings,3,against,3,NA,ACCEPT,NA,NA,NA,NA,NA,NA,NA,NA,batch3hes,batch3hes,5,7,1,Screen 1,continueButton,response_rating_scale_likert_active,5090,NA,NA,Strongly Agree,1,0,1,0,NA,NA,NA,NA,1,statements,Will it even work given the virus is changing all the time,1,17/05/2021 11:09,17/05/2021 11:22,779,Most months,Most months,45,Female,-99,GCSEs,21,2,Against,Against
10,1658859166706,26/07/2022 18:12:46,1658859165775,1,26/07/2022 19:12:45,93981,5,task-ig1e,NA,23317809,6842811,NA,complete,NA,62e02e365fba70e54c66ea85,computer,Desktop or Laptop,Windows 10,Firefox 102.0,1280x800,1064x675,NA,ITT Ratings,3,against,3,NA,ACCEPT,NA,NA,NA,NA,NA,NA,NA,NA,batch3hes,batch3hes,11,8,1,Screen 1,continueButton,response_rating_scale_likert_active,19139,NA,NA,Neither Agree nor Disagree,1,0,1,0,NA,NA,NA,NA,1,statements,The doctors are not to be trusted as they're only interested in increasing the daily infection rate counts.,1,17/05/2021 11:10,17/05/2021 11:23,785,A few times a year,Rarely,19,Male,-99,A levels,22,2,Against,Against
11,1658859171715,26/07/2022 18:12:51,1658859170784,1,26/07/2022 19:12:50,93981,5,task-ig1e,NA,23317809,6842811,NA,complete,NA,62e02e365fba70e54c66ea85,computer,Desktop or Laptop,Windows 10,Firefox 102.0,1280x800,1064x675,NA,ITT Ratings,3,against,3,NA,ACCEPT,NA,NA,NA,NA,NA,NA,NA,NA,batch3hes,batch3hes,13,9,1,Screen 1,continueButton,response_rating_scale_likert_active,4981,NA,NA,Strongly Disagree,1,0,1,0,NA,NA,NA,NA,1,statements,That its a necessity for the virus to be eradicated for good and it's the only way out of this pandemic.,1,17/05/2021 11:10,17/05/2021 11:23,785,A few times a year,Rarely,19,Male,-99,A levels,22,1,Against,For
12,1658859175053,26/07/2022 18:12:55,1658859174119,1,26/07/2022 19:12:54,93981,5,task-ig1e,NA,23317809,6842811,NA,complete,NA,62e02e365fba70e54c66ea85,computer,Desktop or Laptop,Windows 10,Firefox 102.0,1280x800,1064x675,NA,ITT Ratings,3,against,3,NA,ACCEPT,NA,NA,NA,NA,NA,NA,NA,NA,batch3hes,batch3hes,47,10,1,Screen 1,continueButton,response_rating_scale_likert_active,3306,NA,NA,Strongly Agree,1,0,1,0,NA,NA,NA,NA,1,statements,"There's money in vaccines, not in natural herbal remedies.",1,17/05/2021 11:17,17/05/2021 11:26,535,Most weeks,Most weeks,29,Female,-99,A levels,28,2,Against,Against
13,1658859178155,26/07/2022 18:12:58,1658859177208,1,26/07/2022 19:12:57,93981,5,task-ig1e,NA,23317809,6842811,NA,complete,NA,62e02e365fba70e54c66ea85,computer,Desktop or Laptop,Windows 10,Firefox 102.0,1280x800,1064x675,NA,ITT Ratings,3,against,3,NA,ACCEPT,NA,NA,NA,NA,NA,NA,NA,NA,batch3hes,batch3hes,37,11,1,Screen 1,continueButton,response_rating_scale_likert_active,3065,NA,NA,Strongly Disagree,1,0,1,0,NA,NA,NA,NA,1,statements,To get back to normality,1,17/05/2021 11:12,17/05/2021 11:25,781,Most weeks,Most months,44,Male,-99,A levels,26,1,Against,For
14,1658859184365,26/07/2022 18:13:04,1658859183424,1,26/07/2022 19:13:03,93981,5,task-ig1e,NA,23317809,6842811,NA,complete,NA,62e02e365fba70e54c66ea85,computer,Desktop or Laptop,Windows 10,Firefox 102.0,1280x800,1064x675,NA,ITT Ratings,3,against,3,NA,ACCEPT,NA,NA,NA,NA,NA,NA,NA,NA,batch3hes,batch3hes,6,12,1,Screen 1,continueButton,response_rating_scale_likert_active,6186,NA,NA,Somewhat Agree,1,0,1,0,NA,NA,NA,NA,1,statements,Im confused into whether to receive it or not,1,17/05/2021 11:09,17/05/2021 11:22,779,Most months,Most months,45,Female,-99,GCSEs,21,3,Against,Against
15,1658859191054,26/07/2022 18:13:11,1658859190088,1,26/07/2022 19:13:10,93981,5,task-ig1e,NA,23317809,6842811,NA,complete,NA,62e02e365fba70e54c66ea85,computer,Desktop or Laptop,Windows 10,Firefox 102.0,1280x800,1064x675,NA,ITT Ratings,3,against,3,NA,ACCEPT,NA,NA,NA,NA,NA,NA,NA,NA,batch3hes,batch3hes,36,13,1,Screen 1,continueButton,response_rating_scale_likert_active,6638,NA,NA,Agree,1,0,1,0,NA,NA,NA,NA,1,statements,Being pushed by government and they can't be trusted as gone against expert advice in the past,1,17/05/2021 11:12,17/05/2021 11:25,781,Most weeks,Most months,44,Male,-99,A levels,26,3,Against,Against
16,1658859193238,26/07/2022 18:13:13,1658859192272,1,26/07/2022 19:13:12,93981,5,task-ig1e,NA,23317809,6842811,NA,complete,NA,62e02e365fba70e54c66ea85,computer,Desktop or Laptop,Windows 10,Firefox 102.0,1280x800,1064x675,NA,ITT Ratings,3,against,3,NA,ACCEPT,NA,NA,NA,NA,NA,NA,NA,NA,batch3hes,batch3hes,54,14,1,Screen 1,continueButton,response_rating_scale_likert_active,2154,NA,NA,Strongly Agree,1,0,1,0,NA,NA,NA,NA,1,statements,it was rolled out too quick and not tested well enough,1,17/05/2021 11:19,17/05/2021 11:26,432,Once or twice a year,Most months,37,Female,-99,A levels,29,3,Against,Against
17,1658859195790,26/07/2022 18:13:15,1658859194847,1,26/07/2022 19:13:14,93981,5,task-ig1e,NA,23317809,6842811,NA,complete,NA,62e02e365fba70e54c66ea85,computer,Desktop or Laptop,Windows 10,Firefox 102.0,1280x800,1064x675,NA,ITT Ratings,3,against,3,NA,ACCEPT,NA,NA,NA,NA,NA,NA,NA,NA,batch3hes,batch3hes,45,15,1,Screen 1,continueButton,response_rating_scale_likert_active,2545,NA,NA,Strongly Disagree,1,0,1,0,NA,NA,NA,NA,1,statements,Non profit vaccination,1,17/05/2021 11:17,17/05/2021 11:25,451,Never,Never,28,Female,-99,A levels,27,3,Against,For
18,1658859200639,26/07/2022 18:13:20,1658859199703,1,26/07/2022 19:13:19,93981,5,task-ig1e,NA,23317809,6842811,NA,complete,NA,62e02e365fba70e54c66ea85,computer,Desktop or Laptop,Windows 10,Firefox 102.0,1280x800,1064x675,NA,ITT Ratings,3,against,3,NA,ACCEPT,NA,NA,NA,NA,NA,NA,NA,NA,batch3hes,batch3hes,56,16,1,Screen 1,continueButton,response_rating_scale_likert_active,4815,NA,NA,Disagree,1,0,1,0,NA,NA,NA,NA,1,statements,in case employers say you have to be vaccinated to work,1,17/05/2021 11:19,17/05/2021 11:26,432,Once or twice a year,Most months,37,Female,-99,A levels,29,2,Against,For
19,1658859207235,26/07/2022 18:13:27,1658859206295,1,26/07/2022 19:13:26,93981,5,task-ig1e,NA,23317809,6842811,NA,complete,NA,62e02e365fba70e54c66ea85,computer,Desktop or Laptop,Windows 10,Firefox 102.0,1280x800,1064x675,NA,ITT Ratings,3,against,3,NA,ACCEPT,NA,NA,NA,NA,NA,NA,NA,NA,batch3hes,batch3hes,16,17,1,Screen 1,continueButton,response_rating_scale_likert_active,6567,NA,NA,Strongly Agree,1,0,1,0,NA,NA,NA,NA,1,statements,I don't trust how quickly the vaccination has been developed,1,17/05/2021 11:20,17/05/2021 11:23,190,Most weeks,Most weeks,25,Female,-99,Vocational Training / Apprenticeship,23,1,Against,Against
20,1658859216116,26/07/2022 18:13:36,1658859215031,1,26/07/2022 19:13:35,93981,5,task-ig1e,NA,23317809,6842811,NA,complete,NA,62e02e365fba70e54c66ea85,computer,Desktop or Laptop,Windows 10,Firefox 102.0,1280x800,1064x675,NA,ITT Ratings,3,against,3,NA,ACCEPT,NA,NA,NA,NA,NA,NA,NA,NA,batch3hes,batch3hes,10,18,1,Screen 1,continueButton,response_rating_scale_likert_active,8711,NA,NA,Agree,1,0,1,0,NA,NA,NA,NA,1,statements,It's not safe. Because of the viral videos of people passing out and the conspiracy theories of trolls on the internet instigating doubts.,1,17/05/2021 11:10,17/05/2021 11:23,785,A few times a year,Rarely,19,Male,-99,A levels,22,1,Against,Against
21,1658859219099,26/07/2022 18:13:39,1658859218159,1,26/07/2022 19:13:38,93981,5,task-ig1e,NA,23317809,6842811,NA,complete,NA,62e02e365fba70e54c66ea85,computer,Desktop or Laptop,Windows 10,Firefox 102.0,1280x800,1064x675,NA,ITT Ratings,3,against,3,NA,ACCEPT,NA,NA,NA,NA,NA,NA,NA,NA,batch3hes,batch3hes,18,19,1,Screen 1,continueButton,response_rating_scale_likert_active,3100,NA,NA,Strongly Agree,1,0,1,0,NA,NA,NA,NA,1,statements,There is no proof that the vaccine actually protects you or others against covid,1,17/05/2021 11:20,17/05/2021 11:23,190,Most weeks,Most weeks,25,Female,-99,Vocational Training / Apprenticeship,23,3,Against,Against
22,1658859223739,26/07/2022 18:13:43,1658859222791,1,26/07/2022 19:13:42,93981,5,task-ig1e,NA,23317809,6842811,NA,complete,NA,62e02e365fba70e54c66ea85,computer,Desktop or Laptop,Windows 10,Firefox 102.0,1280x800,1064x675,NA,ITT Ratings,3,against,3,NA,ACCEPT,NA,NA,NA,NA,NA,NA,NA,NA,batch3hes,batch3hes,9,20,1,Screen 1,continueButton,response_rating_scale_likert_active,4605,NA,NA,Disagree,1,0,1,0,NA,NA,NA,NA,1,statements,I work in the NHS or health sector,1,17/05/2021 11:09,17/05/2021 11:22,779,Most months,Most months,45,Female,-99,GCSEs,21,3,Against,For
23,1658859227486,26/07/2022 18:13:47,1658859226543,1,26/07/2022 19:13:46,93981,5,task-ig1e,NA,23317809,6842811,NA,complete,NA,62e02e365fba70e54c66ea85,computer,Desktop or Laptop,Windows 10,Firefox 102.0,1280x800,1064x675,NA,ITT Ratings,3,against,3,NA,ACCEPT,NA,NA,NA,NA,NA,NA,NA,NA,batch3hes,batch3hes,7,21,1,Screen 1,continueButton,response_rating_scale_likert_active,3724,NA,NA,Strongly Disagree,1,0,1,0,NA,NA,NA,NA,1,statements,I  have elderly family which I want to protect,1,17/05/2021 11:09,17/05/2021 11:22,779,Most months,Most months,45,Female,-99,GCSEs,21,1,Against,For
24,1658859229624,26/07/2022 18:13:49,1658859228695,1,26/07/2022 19:13:48,93981,5,task-ig1e,NA,23317809,6842811,NA,complete,NA,62e02e365fba70e54c66ea85,computer,Desktop or Laptop,Windows 10,Firefox 102.0,1280x800,1064x675,NA,ITT Ratings,3,against,3,NA,ACCEPT,NA,NA,NA,NA,NA,NA,NA,NA,batch3hes,batch3hes,38,22,1,Screen 1,continueButton,response_rating_scale_likert_active,2117,NA,NA,Strongly Disagree,1,0,1,0,NA,NA,NA,NA,1,statements,Don't want to get sick of covid,1,17/05/2021 11:12,17/05/2021 11:25,781,Most weeks,Most months,44,Male,-99,A levels,26,2,Against,For
25,1658859232000,26/07/2022 18:13:52,1658859231063,1,26/07/2022 19:13:51,93981,5,task-ig1e,NA,23317809,6842811,NA,complete,NA,62e02e365fba70e54c66ea85,computer,Desktop or Laptop,Windows 10,Firefox 102.0,1280x800,1064x675,NA,ITT Ratings,3,against,3,NA,ACCEPT,NA,NA,NA,NA,NA,NA,NA,NA,batch3hes,batch3hes,62,23,1,Screen 1,continueButton,response_rating_scale_likert_active,2341,NA,NA,Strongly Disagree,1,0,1,0,NA,NA,NA,NA,1,statements,It protects us and other people,1,17/05/2021 11:19,17/05/2021 11:28,553,Most months,Most months,48,Female,-99,A levels,30,2,Against,For
26,1658859233827,26/07/2022 18:13:53,1658859232887,1,26/07/2022 19:13:52,93981,5,task-ig1e,NA,23317809,6842811,NA,complete,NA,62e02e365fba70e54c66ea85,computer,Desktop or Laptop,Windows 10,Firefox 102.0,1280x800,1064x675,NA,ITT Ratings,3,against,3,NA,ACCEPT,NA,NA,NA,NA,NA,NA,NA,NA,batch3hes,batch3hes,42,24,1,Screen 1,continueButton,response_rating_scale_likert_active,1800,NA,NA,Strongly Disagree,1,0,1,0,NA,NA,NA,NA,1,statements,Safer for the population,1,17/05/2021 11:17,17/05/2021 11:25,451,Never,Never,28,Female,-99,A levels,27,3,Against,Against
27,1658859235690,26/07/2022 18:13:55,1658859234759,1,26/07/2022 19:13:54,93981,5,task-ig1e,NA,23317809,6842811,NA,complete,NA,62e02e365fba70e54c66ea85,computer,Desktop or Laptop,Windows 10,Firefox 102.0,1280x800,1064x675,NA,ITT Ratings,3,against,3,NA,ACCEPT,NA,NA,NA,NA,NA,NA,NA,NA,batch3hes,batch3hes,51,25,1,Screen 1,continueButton,response_rating_scale_likert_active,1844,NA,NA,Disagree,1,0,1,0,NA,NA,NA,NA,1,statements,Everyone else is getting one,1,17/05/2021 11:17,17/05/2021 11:26,535,Most weeks,Most weeks,29,Female,-99,A levels,28,3,Against,For
28,1658859239926,26/07/2022 18:13:59,1658859238991,1,26/07/2022 19:13:58,93981,5,task-ig1e,NA,23317809,6842811,NA,complete,NA,62e02e365fba70e54c66ea85,computer,Desktop or Laptop,Windows 10,Firefox 102.0,1280x800,1064x675,NA,ITT Ratings,3,against,3,NA,ACCEPT,NA,NA,NA,NA,NA,NA,NA,NA,batch3hes,batch3hes,15,26,1,Screen 1,continueButton,response_rating_scale_likert_active,4207,NA,NA,Disagree,1,0,1,0,NA,NA,NA,NA,1,statements,There are side effects but only a very low probability of it taking place,1,17/05/2021 11:10,17/05/2021 11:23,785,A few times a year,Rarely,19,Male,-99,A levels,22,3,Against,For
29,1658859243599,26/07/2022 18:14:03,1658859242671,1,26/07/2022 19:14:02,93981,5,task-ig1e,NA,23317809,6842811,NA,complete,NA,62e02e365fba70e54c66ea85,computer,Desktop or Laptop,Windows 10,Firefox 102.0,1280x800,1064x675,NA,ITT Ratings,3,against,3,NA,ACCEPT,NA,NA,NA,NA,NA,NA,NA,NA,batch3hes,batch3hes,28,27,1,Screen 1,continueButton,response_rating_scale_likert_active,3653,NA,NA,Agree,1,0,1,0,NA,NA,NA,NA,1,statements,There's still a chance of getting a blood clot and dying,1,17/05/2021 11:11,17/05/2021 11:24,795,Most days,Most months,25,Female,-99,"Postgraduate degree (MSc, MA, MPhil)",25,1,Against,Against
30,1658859246939,26/07/2022 18:14:06,1658859245998,1,26/07/2022 19:14:05,93981,5,task-ig1e,NA,23317809,6842811,NA,complete,NA,62e02e365fba70e54c66ea85,computer,Desktop or Laptop,Windows 10,Firefox 102.0,1280x800,1064x675,NA,ITT Ratings,3,against,3,NA,ACCEPT,NA,NA,NA,NA,NA,NA,NA,NA,batch3hes,batch3hes,17,28,1,Screen 1,continueButton,response_rating_scale_likert_active,3302,NA,NA,Strongly Agree,1,0,1,0,NA,NA,NA,NA,1,statements,I'm anxious about the long and short term side effects from having the vaccine,1,17/05/2021 11:20,17/05/2021 11:23,190,Most weeks,Most weeks,25,Female,-99,Vocational Training / Apprenticeship,23,2,Against,Against
31,1658859251977,26/07/2022 18:14:11,1658859251040,1,26/07/2022 19:14:11,93981,5,task-ig1e,NA,23317809,6842811,NA,complete,NA,62e02e365fba70e54c66ea85,computer,Desktop or Laptop,Windows 10,Firefox 102.0,1280x800,1064x675,NA,ITT Ratings,3,against,3,NA,ACCEPT,NA,NA,NA,NA,NA,NA,NA,NA,batch3hes,batch3hes,58,29,1,Screen 1,continueButton,response_rating_scale_likert_active,5014,NA,NA,Somewhat Agree,1,0,1,0,NA,NA,NA,NA,1,statements,"I do not want the side effects associated with the virus, such as blood clots, to effect me",1,17/05/2021 11:19,17/05/2021 11:28,553,Most months,Most months,48,Female,-99,A levels,30,1,Against,Against
32,1658859255074,26/07/2022 18:14:15,1658859254135,1,26/07/2022 19:14:14,93981,5,task-ig1e,NA,23317809,6842811,NA,complete,NA,62e02e365fba70e54c66ea85,computer,Desktop or Laptop,Windows 10,Firefox 102.0,1280x800,1064x675,NA,ITT Ratings,3,against,3,NA,ACCEPT,NA,NA,NA,NA,NA,NA,NA,NA,batch3hes,batch3hes,20,30,1,Screen 1,continueButton,response_rating_scale_likert_active,3073,NA,NA,Disagree,1,0,1,0,NA,NA,NA,NA,1,statements,It wouldn't have been offered out if it wasn't safe,1,17/05/2021 11:20,17/05/2021 11:23,190,Most weeks,Most weeks,25,Female,-99,Vocational Training / Apprenticeship,23,2,Against,For
33,1658859257664,26/07/2022 18:14:17,1658859256727,1,26/07/2022 19:14:16,93981,5,task-ig1e,NA,23317809,6842811,NA,complete,NA,62e02e365fba70e54c66ea85,computer,Desktop or Laptop,Windows 10,Firefox 102.0,1280x800,1064x675,NA,ITT Ratings,3,against,3,NA,ACCEPT,NA,NA,NA,NA,NA,NA,NA,NA,batch3hes,batch3hes,60,31,1,Screen 1,continueButton,response_rating_scale_likert_active,2567,NA,NA,Strongly Agree,1,0,1,0,NA,NA,NA,NA,1,statements,It may not completely eradicate the virus,1,17/05/2021 11:19,17/05/2021 11:28,553,Most months,Most months,48,Female,-99,A levels,30,3,Against,Against
34,1658859262660,26/07/2022 18:14:22,1658859261727,1,26/07/2022 19:14:21,93981,5,task-ig1e,NA,23317809,6842811,NA,complete,NA,62e02e365fba70e54c66ea85,computer,Desktop or Laptop,Windows 10,Firefox 102.0,1280x800,1064x675,NA,ITT Ratings,3,against,3,NA,ACCEPT,NA,NA,NA,NA,NA,NA,NA,NA,batch3hes,batch3hes,59,32,1,Screen 1,continueButton,response_rating_scale_likert_active,4975,NA,NA,Strongly Agree,1,0,1,0,NA,NA,NA,NA,1,statements,"I do not trust how quickly the vaccine has been processed, neither who has made them",1,17/05/2021 11:19,17/05/2021 11:28,553,Most months,Most months,48,Female,-99,A levels,30,2,Against,Against
35,1658859266306,26/07/2022 18:14:26,1658859265377,1,26/07/2022 19:14:25,93981,5,task-ig1e,NA,23317809,6842811,NA,complete,NA,62e02e365fba70e54c66ea85,computer,Desktop or Laptop,Windows 10,Firefox 102.0,1280x800,1064x675,NA,ITT Ratings,3,against,3,NA,ACCEPT,NA,NA,NA,NA,NA,NA,NA,NA,batch3hes,batch3hes,3,33,1,Screen 1,continueButton,response_rating_scale_likert_active,3623,NA,NA,Somewhat Disagree,1,0,1,0,NA,NA,NA,NA,1,statements,We would like to check you are reading each argument carefully. Please select 'Somewhat Disagree' for this answer,1,NA,NA,NA,NA,NA,NA,NA,NA,NA,NA,check2,NA,NA
36,1658859271191,26/07/2022 18:14:31,1658859270264,1,26/07/2022 19:14:30,93981,5,task-ig1e,NA,23317809,6842811,NA,complete,NA,62e02e365fba70e54c66ea85,computer,Desktop or Laptop,Windows 10,Firefox 102.0,1280x800,1064x675,NA,ITT Ratings,3,against,3,NA,ACCEPT,NA,NA,NA,NA,NA,NA,NA,NA,batch3hes,batch3hes,32,34,1,Screen 1,continueButton,response_rating_scale_likert_active,4859,NA,NA,Somewhat Disagree,1,0,1,0,NA,NA,NA,NA,1,statements,You apparently don't have to wear a mask,1,17/05/2021 11:11,17/05/2021 11:24,795,Most days,Most months,25,Female,-99,"Postgraduate degree (MSc, MA, MPhil)",25,2,Against,For
37,1658859272951,26/07/2022 18:14:32,1658859272015,1,26/07/2022 19:14:32,93981,5,task-ig1e,NA,23317809,6842811,NA,complete,NA,62e02e365fba70e54c66ea85,computer,Desktop or Laptop,Windows 10,Firefox 102.0,1280x800,1064x675,NA,ITT Ratings,3,against,3,NA,ACCEPT,NA,NA,NA,NA,NA,NA,NA,NA,batch3hes,batch3hes,57,35,1,Screen 1,continueButton,response_rating_scale_likert_active,1727,NA,NA,Strongly Disagree,1,0,1,0,NA,NA,NA,NA,1,statements,to protect the elderly and vulnerable,1,17/05/2021 11:19,17/05/2021 11:26,432,Once or twice a year,Most months,37,Female,-99,A levels,29,3,Against,For
38,1658859275974,26/07/2022 18:14:35,1658859275046,1,26/07/2022 19:14:35,93981,5,task-ig1e,NA,23317809,6842811,NA,complete,NA,62e02e365fba70e54c66ea85,computer,Desktop or Laptop,Windows 10,Firefox 102.0,1280x800,1064x675,NA,ITT Ratings,3,against,3,NA,ACCEPT,NA,NA,NA,NA,NA,NA,NA,NA,batch3hes,batch3hes,39,36,1,Screen 1,continueButton,response_rating_scale_likert_active,3007,NA,NA,Disagree,1,0,1,0,NA,NA,NA,NA,1,statements,Everyone else is having the vaccine,1,17/05/2021 11:12,17/05/2021 11:25,781,Most weeks,Most months,44,Male,-99,A levels,26,3,Against,For
39,1658859278574,26/07/2022 18:14:38,1658859277647,1,26/07/2022 19:14:37,93981,5,task-ig1e,NA,23317809,6842811,NA,complete,NA,62e02e365fba70e54c66ea85,computer,Desktop or Laptop,Windows 10,Firefox 102.0,1280x800,1064x675,NA,ITT Ratings,3,against,3,NA,ACCEPT,NA,NA,NA,NA,NA,NA,NA,NA,batch3hes,batch3hes,31,37,1,Screen 1,continueButton,response_rating_scale_likert_active,2577,NA,NA,Disagree,1,0,1,0,NA,NA,NA,NA,1,statements,You're chances of getting the virus are reduced,1,17/05/2021 11:11,17/05/2021 11:24,795,Most days,Most months,25,Female,-99,"Postgraduate degree (MSc, MA, MPhil)",25,1,Against,For
40,1658859293505,26/07/2022 18:14:53,1658859292560,1,26/07/2022 19:14:52,93981,5,task-ig1e,NA,23317809,6842811,NA,complete,NA,62e02e365fba70e54c66ea85,computer,Desktop or Laptop,Windows 10,Firefox 102.0,1280x800,1064x675,NA,ITT Ratings,3,against,3,NA,ACCEPT,NA,NA,NA,NA,NA,NA,NA,NA,batch3hes,batch3hes,12,38,1,Screen 1,continueButton,response_rating_scale_likert_active,14888,NA,NA,Somewhat Disagree,1,0,1,0,NA,NA,NA,NA,1,statements,The rare cases and side effects that take place due to taking the vaccine,1,17/05/2021 11:10,17/05/2021 11:23,785,A few times a year,Rarely,19,Male,-99,A levels,22,3,Against,Against
41,1658859299648,26/07/2022 18:14:59,1658859298711,1,26/07/2022 19:14:58,93981,5,task-ig1e,NA,23317809,6842811,NA,complete,NA,62e02e365fba70e54c66ea85,computer,Desktop or Laptop,Windows 10,Firefox 102.0,1280x800,1064x675,NA,ITT Ratings,3,against,3,NA,ACCEPT,NA,NA,NA,NA,NA,NA,NA,NA,batch3hes,batch3hes,48,39,1,Screen 1,continueButton,response_rating_scale_likert_active,6124,NA,NA,Strongly Agree,1,0,1,0,NA,NA,NA,NA,1,statements,"Lack of trust - non disclosure forms are filled in left, right and centre so I have lost trust in the government and hospitals",1,17/05/2021 11:17,17/05/2021 11:26,535,Most weeks,Most weeks,29,Female,-99,A levels,28,3,Against,Against
42,1658859302963,26/07/2022 18:15:02,1658859302015,1,26/07/2022 19:15:02,93981,5,task-ig1e,NA,23317809,6842811,NA,complete,NA,62e02e365fba70e54c66ea85,computer,Desktop or Laptop,Windows 10,Firefox 102.0,1280x800,1064x675,NA,ITT Ratings,3,against,3,NA,ACCEPT,NA,NA,NA,NA,NA,NA,NA,NA,batch3hes,batch3hes,24,40,1,Screen 1,continueButton,response_rating_scale_likert_active,3280,NA,NA,Strongly Agree,1,0,1,0,NA,NA,NA,NA,1,statements,I don't have enough information on the possible long term effects of the vaccine.,1,17/05/2021 10:52,17/05/2021 11:24,1936,Most weeks,Most days,64,Male,-99,No formal qualifications,24,3,Against,Against
43,1658859305250,26/07/2022 18:15:05,1658859304311,1,26/07/2022 19:15:04,93981,5,task-ig1e,NA,23317809,6842811,NA,complete,NA,62e02e365fba70e54c66ea85,computer,Desktop or Laptop,Windows 10,Firefox 102.0,1280x800,1064x675,NA,ITT Ratings,3,against,3,NA,ACCEPT,NA,NA,NA,NA,NA,NA,NA,NA,batch3hes,batch3hes,26,41,1,Screen 1,continueButton,response_rating_scale_likert_active,2268,NA,NA,Disagree,1,0,1,0,NA,NA,NA,NA,1,statements,I think the positives outweigh the negatives.,1,17/05/2021 10:52,17/05/2021 11:24,1936,Most weeks,Most days,64,Male,-99,No formal qualifications,24,2,Against,For
44,1658859308611,26/07/2022 18:15:08,1658859307679,1,26/07/2022 19:15:07,93981,5,task-ig1e,NA,23317809,6842811,NA,complete,NA,62e02e365fba70e54c66ea85,computer,Desktop or Laptop,Windows 10,Firefox 102.0,1280x800,1064x675,NA,ITT Ratings,3,against,3,NA,ACCEPT,NA,NA,NA,NA,NA,NA,NA,NA,batch3hes,batch3hes,52,42,1,Screen 1,continueButton,response_rating_scale_likert_active,3343,NA,NA,Somewhat Agree,1,0,1,0,NA,NA,NA,NA,1,statements,it does not work its all a hoax,1,17/05/2021 11:19,17/05/2021 11:26,432,Once or twice a year,Most months,37,Female,-99,A levels,29,1,Against,Against
45,1658859313037,26/07/2022 18:15:13,1658859312095,1,26/07/2022 19:15:12,93981,5,task-ig1e,NA,23317809,6842811,NA,complete,NA,62e02e365fba70e54c66ea85,computer,Desktop or Laptop,Windows 10,Firefox 102.0,1280x800,1064x675,NA,ITT Ratings,3,against,3,NA,ACCEPT,NA,NA,NA,NA,NA,NA,NA,NA,batch3hes,batch3hes,14,43,1,Screen 1,continueButton,response_rating_scale_likert_active,4391,NA,NA,Disagree,1,0,1,0,NA,NA,NA,NA,1,statements,The NHS put their lives on the line for the peoples safety.,1,17/05/2021 11:10,17/05/2021 11:23,785,A few times a year,Rarely,19,Male,-99,A levels,22,2,Against,For
46,1658859315426,26/07/2022 18:15:15,1658859314486,1,26/07/2022 19:15:14,93981,5,task-ig1e,NA,23317809,6842811,NA,complete,NA,62e02e365fba70e54c66ea85,computer,Desktop or Laptop,Windows 10,Firefox 102.0,1280x800,1064x675,NA,ITT Ratings,3,against,3,NA,ACCEPT,NA,NA,NA,NA,NA,NA,NA,NA,batch3hes,batch3hes,23,44,1,Screen 1,continueButton,response_rating_scale_likert_active,2366,NA,NA,Strongly Agree,1,0,1,0,NA,NA,NA,NA,1,statements,"I am concerned the vaccine has been released too soon, not enough testing.",1,17/05/2021 10:52,17/05/2021 11:24,1936,Most weeks,Most days,64,Male,-99,No formal qualifications,24,2,Against,Against
47,1658859317368,26/07/2022 18:15:17,1658859316423,1,26/07/2022 19:15:16,93981,5,task-ig1e,NA,23317809,6842811,NA,complete,NA,62e02e365fba70e54c66ea85,computer,Desktop or Laptop,Windows 10,Firefox 102.0,1280x800,1064x675,NA,ITT Ratings,3,against,3,NA,ACCEPT,NA,NA,NA,NA,NA,NA,NA,NA,batch3hes,batch3hes,49,45,1,Screen 1,continueButton,response_rating_scale_likert_active,1910,NA,NA,Strongly Disagree,1,0,1,0,NA,NA,NA,NA,1,statements,It's to protect myself and those around me,1,17/05/2021 11:17,17/05/2021 11:26,535,Most weeks,Most weeks,29,Female,-99,A levels,28,1,Against,For
48,1658859324213,26/07/2022 18:15:24,1658859323271,1,26/07/2022 19:15:23,93981,5,task-ig1e,NA,23317809,6842811,NA,complete,NA,62e02e365fba70e54c66ea85,computer,Desktop or Laptop,Windows 10,Firefox 102.0,1280x800,1064x675,NA,ITT Ratings,3,against,3,NA,ACCEPT,NA,NA,NA,NA,NA,NA,NA,NA,batch3hes,batch3hes,43,46,1,Screen 1,continueButton,response_rating_scale_likert_active,6822,NA,NA,Somewhat Disagree,1,0,1,0,NA,NA,NA,NA,1,statements,Produced quickly and effectively,1,17/05/2021 11:17,17/05/2021 11:25,451,Never,Never,28,Female,-99,A levels,27,1,Against,For
49,1658859338299,26/07/2022 18:15:38,1658859337359,1,26/07/2022 19:15:37,93981,5,task-ig1e,NA,23317809,6842811,NA,complete,NA,62e02e365fba70e54c66ea85,computer,Desktop or Laptop,Windows 10,Firefox 102.0,1280x800,1064x675,NA,ITT Ratings,3,against,3,NA,ACCEPT,NA,NA,NA,NA,NA,NA,NA,NA,batch3hes,batch3hes,61,47,1,Screen 1,continueButton,response_rating_scale_likert_active,14062,NA,NA,Strongly Disagree,1,0,1,0,NA,NA,NA,NA,1,statements,It will help get rid of the presence of COVID in our world,1,17/05/2021 11:19,17/05/2021 11:28,553,Most months,Most months,48,Female,-99,A levels,30,1,Against,For
50,1658859342102,26/07/2022 18:15:42,1658859341151,1,26/07/2022 19:15:41,93981,5,task-ig1e,NA,23317809,6842811,NA,complete,NA,62e02e365fba70e54c66ea85,computer,Desktop or Laptop,Windows 10,Firefox 102.0,1280x800,1064x675,NA,ITT Ratings,3,against,3,NA,ACCEPT,NA,NA,NA,NA,NA,NA,NA,NA,batch3hes,batch3hes,40,48,1,Screen 1,continueButton,response_rating_scale_likert_active,3767,NA,NA,Somewhat Disagree,1,0,1,0,NA,NA,NA,NA,1,statements,Produced effectively,1,17/05/2021 11:17,17/05/2021 11:25,451,Never,Never,28,Female,-99,A levels,27,1,Against,Against
51,1658859345106,26/07/2022 18:15:45,1658859344167,1,26/07/2022 19:15:44,93981,5,task-ig1e,NA,23317809,6842811,NA,complete,NA,62e02e365fba70e54c66ea85,computer,Desktop or Laptop,Windows 10,Firefox 102.0,1280x800,1064x675,NA,ITT Ratings,3,against,3,NA,ACCEPT,NA,NA,NA,NA,NA,NA,NA,NA,batch3hes,batch3hes,46,49,1,Screen 1,continueButton,response_rating_scale_likert_active,2990,NA,NA,Strongly Agree,1,0,1,0,NA,NA,NA,NA,1,statements,Produced too quickly when they've had years to develop a cure for other diseases and failed,1,17/05/2021 11:17,17/05/2021 11:26,535,Most weeks,Most weeks,29,Female,-99,A levels,28,1,Against,Against
52,1658859348051,26/07/2022 18:15:48,1658859347111,1,26/07/2022 19:15:47,93981,5,task-ig1e,NA,23317809,6842811,NA,complete,NA,62e02e365fba70e54c66ea85,computer,Desktop or Laptop,Windows 10,Firefox 102.0,1280x800,1064x675,NA,ITT Ratings,3,against,3,NA,ACCEPT,NA,NA,NA,NA,NA,NA,NA,NA,batch3hes,batch3hes,2,50,1,Screen 1,continueButton,response_rating_scale_likert_active,2917,NA,NA,Somewhat Agree,1,0,1,0,NA,NA,NA,NA,1,statements,We would like to check you are reading each argument carefully. Please select 'Somewhat Agree' for this answer,1,NA,NA,NA,NA,NA,NA,NA,NA,NA,NA,check1,NA,NA
53,1658859351027,26/07/2022 18:15:51,1658859349967,1,26/07/2022 19:15:49,93981,5,task-ig1e,NA,23317809,6842811,NA,complete,NA,62e02e365fba70e54c66ea85,computer,Desktop or Laptop,Windows 10,Firefox 102.0,1280x800,1064x675,NA,ITT Ratings,3,against,3,NA,ACCEPT,NA,NA,NA,NA,NA,NA,NA,NA,batch3hes,batch3hes,55,51,1,Screen 1,continueButton,response_rating_scale_likert_active,2830,NA,NA,Disagree,1,0,1,0,NA,NA,NA,NA,1,statements,so I can go on holiday as we wont be able to travel without one,1,17/05/2021 11:19,17/05/2021 11:26,432,Once or twice a year,Most months,37,Female,-99,A levels,29,1,Against,For
54,1658859357048,26/07/2022 18:15:57,1658859356103,1,26/07/2022 19:15:56,93981,5,task-ig1e,NA,23317809,6842811,NA,complete,NA,62e02e365fba70e54c66ea85,computer,Desktop or Laptop,Windows 10,Firefox 102.0,1280x800,1064x675,NA,ITT Ratings,3,against,3,NA,ACCEPT,NA,NA,NA,NA,NA,NA,NA,NA,batch3hes,batch3hes,4,52,1,Screen 1,continueButton,response_rating_scale_likert_active,6110,NA,NA,Strongly Agree,1,0,1,0,NA,NA,NA,NA,1,statements,I dont know the true side effects years down the line,1,17/05/2021 11:09,17/05/2021 11:22,779,Most months,Most months,45,Female,-99,GCSEs,21,1,Against,Against
55,1658859360815,26/07/2022 18:16:00,1658859359872,1,26/07/2022 19:15:59,93981,5,task-ig1e,NA,23317809,6842811,NA,complete,NA,62e02e365fba70e54c66ea85,computer,Desktop or Laptop,Windows 10,Firefox 102.0,1280x800,1064x675,NA,ITT Ratings,3,against,3,NA,ACCEPT,NA,NA,NA,NA,NA,NA,NA,NA,batch3hes,batch3hes,8,53,1,Screen 1,continueButton,response_rating_scale_likert_active,3745,NA,NA,Somewhat Disagree,1,0,1,0,NA,NA,NA,NA,1,statements,I have to because my employer insists on it,1,17/05/2021 11:09,17/05/2021 11:22,779,Most months,Most months,45,Female,-99,GCSEs,21,2,Against,For
56,1658859363385,26/07/2022 18:16:03,1658859362447,1,26/07/2022 19:16:02,93981,5,task-ig1e,NA,23317809,6842811,NA,complete,NA,62e02e365fba70e54c66ea85,computer,Desktop or Laptop,Windows 10,Firefox 102.0,1280x800,1064x675,NA,ITT Ratings,3,against,3,NA,ACCEPT,NA,NA,NA,NA,NA,NA,NA,NA,batch3hes,batch3hes,33,54,1,Screen 1,continueButton,response_rating_scale_likert_active,2552,NA,NA,Disagree,1,0,1,0,NA,NA,NA,NA,1,statements,You can travel to countries without quarantine period,1,17/05/2021 11:11,17/05/2021 11:24,795,Most days,Most months,25,Female,-99,"Postgraduate degree (MSc, MA, MPhil)",25,3,Against,For
57,1658859365395,26/07/2022 18:16:05,1658859364455,1,26/07/2022 19:16:04,93981,5,task-ig1e,NA,23317809,6842811,NA,complete,NA,62e02e365fba70e54c66ea85,computer,Desktop or Laptop,Windows 10,Firefox 102.0,1280x800,1064x675,NA,ITT Ratings,3,against,3,NA,ACCEPT,NA,NA,NA,NA,NA,NA,NA,NA,batch3hes,batch3hes,41,55,1,Screen 1,continueButton,response_rating_scale_likert_active,1984,NA,NA,Disagree,1,0,1,0,NA,NA,NA,NA,1,statements,Plenty of research been done,1,17/05/2021 11:17,17/05/2021 11:25,451,Never,Never,28,Female,-99,A levels,27,2,Against,Against
58,1658859372640,26/07/2022 18:16:12,1658859371703,1,26/07/2022 19:16:11,93981,5,task-ig1e,NA,23317809,6842811,NA,complete,NA,62e02e365fba70e54c66ea85,computer,Desktop or Laptop,Windows 10,Firefox 102.0,1280x800,1064x675,NA,ITT Ratings,3,against,3,NA,ACCEPT,NA,NA,NA,NA,NA,NA,NA,NA,batch3hes,batch3hes,29,56,1,Screen 1,continueButton,response_rating_scale_likert_active,7225,NA,NA,Somewhat Agree,1,0,1,0,NA,NA,NA,NA,1,statements,"After getting the vaccine, I've heard that your arm largely swells and  aches for weeks before you can go back to normal activities",1,17/05/2021 11:11,17/05/2021 11:24,795,Most days,Most months,25,Female,-99,"Postgraduate degree (MSc, MA, MPhil)",25,2,Against,Against
59,1658859374903,26/07/2022 18:16:14,1658859373960,1,26/07/2022 19:16:13,93981,5,task-ig1e,NA,23317809,6842811,NA,complete,NA,62e02e365fba70e54c66ea85,computer,Desktop or Laptop,Windows 10,Firefox 102.0,1280x800,1064x675,NA,ITT Ratings,3,against,3,NA,ACCEPT,NA,NA,NA,NA,NA,NA,NA,NA,batch3hes,batch3hes,25,57,1,Screen 1,continueButton,response_rating_scale_likert_active,2231,NA,NA,Strongly Disagree,1,0,1,0,NA,NA,NA,NA,1,statements,I want the vaccine as soon as possible to protect myself from covid.,1,17/05/2021 10:52,17/05/2021 11:24,1936,Most weeks,Most days,64,Male,-99,No formal qualifications,24,1,Against,For
60,1658859378103,26/07/2022 18:16:18,1658859377167,1,26/07/2022 19:16:17,93981,5,task-ig1e,NA,23317809,6842811,NA,complete,NA,62e02e365fba70e54c66ea85,computer,Desktop or Laptop,Windows 10,Firefox 102.0,1280x800,1064x675,NA,ITT Ratings,3,against,3,NA,ACCEPT,NA,NA,NA,NA,NA,NA,NA,NA,batch3hes,batch3hes,53,58,1,Screen 1,continueButton,response_rating_scale_likert_active,3182,NA,NA,Strongly Agree,1,0,1,0,NA,NA,NA,NA,1,statements,not enough time given to see the long term effects of having the vaccine,1,17/05/2021 11:19,17/05/2021 11:26,432,Once or twice a year,Most months,37,Female,-99,A levels,29,2,Against,Against
61,1658859381892,26/07/2022 18:16:21,1658859380960,1,26/07/2022 19:16:20,93981,5,task-ig1e,NA,23317809,6842811,NA,complete,NA,62e02e365fba70e54c66ea85,computer,Desktop or Laptop,Windows 10,Firefox 102.0,1280x800,1064x675,NA,ITT Ratings,3,against,3,NA,ACCEPT,NA,NA,NA,NA,NA,NA,NA,NA,batch3hes,batch3hes,34,59,1,Screen 1,continueButton,response_rating_scale_likert_active,3769,NA,NA,Strongly Agree,1,0,1,0,NA,NA,NA,NA,1,statements,Not been clearly tested over a long period and still being tested hence being called clinical trials.,1,17/05/2021 11:12,17/05/2021 11:25,781,Most weeks,Most months,44,Male,-99,A levels,26,1,Against,Against
62,1658859384334,26/07/2022 18:16:24,1658859383399,1,26/07/2022 19:16:23,93981,5,task-ig1e,NA,23317809,6842811,NA,complete,NA,62e02e365fba70e54c66ea85,computer,Desktop or Laptop,Windows 10,Firefox 102.0,1280x800,1064x675,NA,ITT Ratings,3,against,3,NA,ACCEPT,NA,NA,NA,NA,NA,NA,NA,NA,batch3hes,batch3hes,22,60,1,Screen 1,continueButton,response_rating_scale_likert_active,2417,NA,NA,Agree,1,0,1,0,NA,NA,NA,NA,1,statements,I am worried about possible side effects.,1,17/05/2021 10:52,17/05/2021 11:24,1936,Most weeks,Most days,64,Male,-99,No formal qualifications,24,1,Against,Against
63,1658859387370,26/07/2022 18:16:27,1658859386431,1,26/07/2022 19:16:26,93981,5,task-ig1e,NA,23317809,6842811,NA,complete,NA,62e02e365fba70e54c66ea85,computer,Desktop or Laptop,Windows 10,Firefox 102.0,1280x800,1064x675,NA,ITT Ratings,3,against,3,NA,ACCEPT,NA,NA,NA,NA,NA,NA,NA,NA,batch3hes,batch3hes,63,61,1,Screen 1,continueButton,response_rating_scale_likert_active,3011,NA,NA,Disagree,1,0,1,0,NA,NA,NA,NA,1,statements,"Vaccines in the past have proved successful, such as the influenza vaccine",1,17/05/2021 11:19,17/05/2021 11:28,553,Most months,Most months,48,Female,-99,A levels,30,3,Against,For
64,1658859392477,26/07/2022 18:16:32,1658859391503,1,26/07/2022 19:16:31,93981,5,task-ig1e,NA,23317809,6842811,NA,complete,NA,62e02e365fba70e54c66ea85,computer,Desktop or Laptop,Windows 10,Firefox 102.0,1280x800,1064x675,NA,ITT Ratings,3,against,3,NA,ACCEPT,NA,NA,NA,NA,NA,NA,NA,NA,batch3hes,batch3hes,35,62,1,Screen 1,continueButton,response_rating_scale_likert_active,5054,NA,NA,Strongly Agree,1,0,1,0,NA,NA,NA,NA,1,statements,No proof vaccine works against current or new strains,1,17/05/2021 11:12,17/05/2021 11:25,781,Most weeks,Most months,44,Male,-99,A levels,26,2,Against,Against
65,1658859392537,26/07/2022 18:16:32,1658859391511,1,26/07/2022 19:16:31,93981,5,task-ig1e,NA,23317809,6842811,NA,complete,NA,62e02e365fba70e54c66ea85,computer,Desktop or Laptop,Windows 10,Firefox 102.0,1280x800,1064x675,NA,ITT Ratings,3,against,3,NA,ACCEPT,NA,NA,NA,NA,NA,NA,NA,NA,batch3hes,NA,NA,END TASK,NA,NA,NA,NA,275535,NA,NA,NA,NA,0,1,0,NA,NA,NA,NA,NA,NA,NA,NA,NA,NA,NA,NA,NA,NA,NA,NA,NA,NA,NA,NA,NA
1,1658859158468,26/07/2022 18:12:38,1658859158320,1,26/07/2022 19:12:38,93981,5,task-ig1e,NA,23317835,6842813,NA,complete,NA,62e02e4be6bf8db9a5abae0e,computer,Desktop or Laptop,Mac OS 10.15.6,Safari 15.5,768x1024,704x639,NA,ITT Ratings,3,against,3,NA,ACCEPT,NA,NA,NA,NA,NA,NA,NA,NA,batch3hes,NA,NA,BEGIN TASK,NA,NA,NA,NA,NA,NA,NA,NA,NA,0,1,0,NA,NA,NA,NA,NA,NA,NA,NA,NA,NA,NA,NA,NA,NA,NA,NA,NA,NA,NA,NA,NA
2,1658859179191,26/07/2022 18:12:59,1658859179100,1,26/07/2022 19:12:59,93981,5,task-ig1e,NA,23317835,6842813,NA,complete,NA,62e02e4be6bf8db9a5abae0e,computer,Desktop or Laptop,Mac OS 10.15.6,Safari 15.5,768x1024,704x639,NA,ITT Ratings,3,against,3,NA,ACCEPT,NA,NA,NA,NA,NA,NA,NA,NA,batch3hes,batch3hes,1,1,1,Screen 1,advancementZone,continue_button,20711,NA,NA,NA,NA,0,1,0,NA,NA,NA,NA,NA,instructions,NA,NA,NA,NA,NA,NA,NA,NA,NA,NA,NA,NA,NA,NA,NA
3,1658859322564,26/07/2022 18:15:22,1658859322361,1,26/07/2022 19:15:22,93981,5,task-ig1e,NA,23317835,6842813,NA,complete,NA,62e02e4be6bf8db9a5abae0e,computer,Desktop or Laptop,Mac OS 10.15.6,Safari 15.5,768x1024,704x639,NA,ITT Ratings,3,against,3,NA,ACCEPT,NA,NA,NA,NA,NA,NA,NA,NA,batch3hes,batch3hes,13,1,1,Screen 1,continueButton,response_rating_scale_likert_active,143229,NA,NA,Somewhat Disagree,1,0,1,0,NA,NA,NA,NA,1,statements,That its a necessity for the virus to be eradicated for good and it's the only way out of this pandemic.,1,17/05/2021 11:10,17/05/2021 11:23,785,A few times a year,Rarely,19,Male,-99,A levels,22,1,Against,For
4,1658859334514,26/07/2022 18:15:34,1658859334414,1,26/07/2022 19:15:34,93981,5,task-ig1e,NA,23317835,6842813,NA,complete,NA,62e02e4be6bf8db9a5abae0e,computer,Desktop or Laptop,Mac OS 10.15.6,Safari 15.5,768x1024,704x639,NA,ITT Ratings,3,against,3,NA,ACCEPT,NA,NA,NA,NA,NA,NA,NA,NA,batch3hes,batch3hes,6,2,1,Screen 1,continueButton,response_rating_scale_likert_active,12010,NA,NA,Somewhat Agree,1,0,1,0,NA,NA,NA,NA,1,statements,Im confused into whether to receive it or not,1,17/05/2021 11:09,17/05/2021 11:22,779,Most months,Most months,45,Female,-99,GCSEs,21,3,Against,Against
5,1658859339376,26/07/2022 18:15:39,1658859339282,1,26/07/2022 19:15:39,93981,5,task-ig1e,NA,23317835,6842813,NA,complete,NA,62e02e4be6bf8db9a5abae0e,computer,Desktop or Laptop,Mac OS 10.15.6,Safari 15.5,768x1024,704x639,NA,ITT Ratings,3,against,3,NA,ACCEPT,NA,NA,NA,NA,NA,NA,NA,NA,batch3hes,batch3hes,44,3,1,Screen 1,continueButton,response_rating_scale_likert_active,4827,NA,NA,Disagree,1,0,1,0,NA,NA,NA,NA,1,statements,Plenty of case studies,1,17/05/2021 11:17,17/05/2021 11:25,451,Never,Never,28,Female,-99,A levels,27,2,Against,For
6,1658859390005,26/07/2022 18:16:30,1658859389908,1,26/07/2022 19:16:29,93981,5,task-ig1e,NA,23317835,6842813,NA,complete,NA,62e02e4be6bf8db9a5abae0e,computer,Desktop or Laptop,Mac OS 10.15.6,Safari 15.5,768x1024,704x639,NA,ITT Ratings,3,against,3,NA,ACCEPT,NA,NA,NA,NA,NA,NA,NA,NA,batch3hes,batch3hes,54,4,1,Screen 1,continueButton,response_rating_scale_likert_active,50584.99999999997,NA,NA,Agree,1,0,1,0,NA,NA,NA,NA,1,statements,it was rolled out too quick and not tested well enough,1,17/05/2021 11:19,17/05/2021 11:26,432,Once or twice a year,Most months,37,Female,-99,A levels,29,3,Against,Against
7,1658859392662,26/07/2022 18:16:32,1658859392582,1,26/07/2022 19:16:32,93981,5,task-ig1e,NA,23317835,6842813,NA,complete,NA,62e02e4be6bf8db9a5abae0e,computer,Desktop or Laptop,Mac OS 10.15.6,Safari 15.5,768x1024,704x639,NA,ITT Ratings,3,against,3,NA,ACCEPT,NA,NA,NA,NA,NA,NA,NA,NA,batch3hes,batch3hes,40,5,1,Screen 1,continueButton,response_rating_scale_likert_active,2631,NA,NA,Disagree,1,0,1,0,NA,NA,NA,NA,1,statements,Produced effectively,1,17/05/2021 11:17,17/05/2021 11:25,451,Never,Never,28,Female,-99,A levels,27,1,Against,Against
8,1658859396779,26/07/2022 18:16:36,1658859396691,1,26/07/2022 19:16:36,93981,5,task-ig1e,NA,23317835,6842813,NA,complete,NA,62e02e4be6bf8db9a5abae0e,computer,Desktop or Laptop,Mac OS 10.15.6,Safari 15.5,768x1024,704x639,NA,ITT Ratings,3,against,3,NA,ACCEPT,NA,NA,NA,NA,NA,NA,NA,NA,batch3hes,batch3hes,18,6,1,Screen 1,continueButton,response_rating_scale_likert_active,4078.999999999971,NA,NA,Agree,1,0,1,0,NA,NA,NA,NA,1,statements,There is no proof that the vaccine actually protects you or others against covid,1,17/05/2021 11:20,17/05/2021 11:23,190,Most weeks,Most weeks,25,Female,-99,Vocational Training / Apprenticeship,23,3,Against,Against
9,1658859403143,26/07/2022 18:16:43,1658859403028,1,26/07/2022 19:16:43,93981,5,task-ig1e,NA,23317835,6842813,NA,complete,NA,62e02e4be6bf8db9a5abae0e,computer,Desktop or Laptop,Mac OS 10.15.6,Safari 15.5,768x1024,704x639,NA,ITT Ratings,3,against,3,NA,ACCEPT,NA,NA,NA,NA,NA,NA,NA,NA,batch3hes,batch3hes,3,7,1,Screen 1,continueButton,response_rating_scale_likert_active,6304,NA,NA,Somewhat Disagree,1,0,1,0,NA,NA,NA,NA,1,statements,We would like to check you are reading each argument carefully. Please select 'Somewhat Disagree' for this answer,1,NA,NA,NA,NA,NA,NA,NA,NA,NA,NA,check2,NA,NA
10,1658859494160,26/07/2022 18:18:14,1658859493997,1,26/07/2022 19:18:13,93981,5,task-ig1e,NA,23317835,6842813,NA,complete,NA,62e02e4be6bf8db9a5abae0e,computer,Desktop or Laptop,Mac OS 10.15.6,Safari 15.5,768x1024,704x639,NA,ITT Ratings,3,against,3,NA,ACCEPT,NA,NA,NA,NA,NA,NA,NA,NA,batch3hes,batch3hes,12,8,1,Screen 1,continueButton,response_rating_scale_likert_active,90934,NA,NA,Neither Agree nor Disagree,1,0,1,0,NA,NA,NA,NA,1,statements,The rare cases and side effects that take place due to taking the vaccine,1,17/05/2021 11:10,17/05/2021 11:23,785,A few times a year,Rarely,19,Male,-99,A levels,22,3,Against,Against
11,1658859496800,26/07/2022 18:18:16,1658859496706,1,26/07/2022 19:18:16,93981,5,task-ig1e,NA,23317835,6842813,NA,complete,NA,62e02e4be6bf8db9a5abae0e,computer,Desktop or Laptop,Mac OS 10.15.6,Safari 15.5,768x1024,704x639,NA,ITT Ratings,3,against,3,NA,ACCEPT,NA,NA,NA,NA,NA,NA,NA,NA,batch3hes,batch3hes,57,9,1,Screen 1,continueButton,response_rating_scale_likert_active,2680,NA,NA,Disagree,1,0,1,0,NA,NA,NA,NA,1,statements,to protect the elderly and vulnerable,1,17/05/2021 11:19,17/05/2021 11:26,432,Once or twice a year,Most months,37,Female,-99,A levels,29,3,Against,For
12,1658859504905,26/07/2022 18:18:24,1658859504779,1,26/07/2022 19:18:24,93981,5,task-ig1e,NA,23317835,6842813,NA,complete,NA,62e02e4be6bf8db9a5abae0e,computer,Desktop or Laptop,Mac OS 10.15.6,Safari 15.5,768x1024,704x639,NA,ITT Ratings,3,against,3,NA,ACCEPT,NA,NA,NA,NA,NA,NA,NA,NA,batch3hes,batch3hes,29,10,1,Screen 1,continueButton,response_rating_scale_likert_active,8041,NA,NA,Somewhat Agree,1,0,1,0,NA,NA,NA,NA,1,statements,"After getting the vaccine, I've heard that your arm largely swells and  aches for weeks before you can go back to normal activities",1,17/05/2021 11:11,17/05/2021 11:24,795,Most days,Most months,25,Female,-99,"Postgraduate degree (MSc, MA, MPhil)",25,2,Against,Against
13,1658859515693,26/07/2022 18:18:35,1658859515611,1,26/07/2022 19:18:35,93981,5,task-ig1e,NA,23317835,6842813,NA,complete,NA,62e02e4be6bf8db9a5abae0e,computer,Desktop or Laptop,Mac OS 10.15.6,Safari 15.5,768x1024,704x639,NA,ITT Ratings,3,against,3,NA,ACCEPT,NA,NA,NA,NA,NA,NA,NA,NA,batch3hes,batch3hes,10,11,1,Screen 1,continueButton,response_rating_scale_likert_active,10799,NA,NA,Strongly Disagree,1,0,1,0,NA,NA,NA,NA,1,statements,It's not safe. Because of the viral videos of people passing out and the conspiracy theories of trolls on the internet instigating doubts.,1,17/05/2021 11:10,17/05/2021 11:23,785,A few times a year,Rarely,19,Male,-99,A levels,22,1,Against,Against
14,1658859518738,26/07/2022 18:18:38,1658859518667,1,26/07/2022 19:18:38,93981,5,task-ig1e,NA,23317835,6842813,NA,complete,NA,62e02e4be6bf8db9a5abae0e,computer,Desktop or Laptop,Mac OS 10.15.6,Safari 15.5,768x1024,704x639,NA,ITT Ratings,3,against,3,NA,ACCEPT,NA,NA,NA,NA,NA,NA,NA,NA,batch3hes,batch3hes,16,12,1,Screen 1,continueButton,response_rating_scale_likert_active,3024.999999999942,NA,NA,Agree,1,0,1,0,NA,NA,NA,NA,1,statements,I don't trust how quickly the vaccination has been developed,1,17/05/2021 11:20,17/05/2021 11:23,190,Most weeks,Most weeks,25,Female,-99,Vocational Training / Apprenticeship,23,1,Against,Against
15,1658859523153,26/07/2022 18:18:43,1658859523052,1,26/07/2022 19:18:43,93981,5,task-ig1e,NA,23317835,6842813,NA,complete,NA,62e02e4be6bf8db9a5abae0e,computer,Desktop or Laptop,Mac OS 10.15.6,Safari 15.5,768x1024,704x639,NA,ITT Ratings,3,against,3,NA,ACCEPT,NA,NA,NA,NA,NA,NA,NA,NA,batch3hes,batch3hes,8,13,1,Screen 1,continueButton,response_rating_scale_likert_active,4366,NA,NA,Strongly Disagree,1,0,1,0,NA,NA,NA,NA,1,statements,I have to because my employer insists on it,1,17/05/2021 11:09,17/05/2021 11:22,779,Most months,Most months,45,Female,-99,GCSEs,21,2,Against,For
16,1658859525358,26/07/2022 18:18:45,1658859525262,1,26/07/2022 19:18:45,93981,5,task-ig1e,NA,23317835,6842813,NA,complete,NA,62e02e4be6bf8db9a5abae0e,computer,Desktop or Laptop,Mac OS 10.15.6,Safari 15.5,768x1024,704x639,NA,ITT Ratings,3,against,3,NA,ACCEPT,NA,NA,NA,NA,NA,NA,NA,NA,batch3hes,batch3hes,30,14,1,Screen 1,continueButton,response_rating_scale_likert_active,2184.999999999942,NA,NA,Strongly Agree,1,0,1,0,NA,NA,NA,NA,1,statements,You can still get the virus,1,17/05/2021 11:11,17/05/2021 11:24,795,Most days,Most months,25,Female,-99,"Postgraduate degree (MSc, MA, MPhil)",25,3,Against,Against
17,1658859529818,26/07/2022 18:18:49,1658859529717,1,26/07/2022 19:18:49,93981,5,task-ig1e,NA,23317835,6842813,NA,complete,NA,62e02e4be6bf8db9a5abae0e,computer,Desktop or Laptop,Mac OS 10.15.6,Safari 15.5,768x1024,704x639,NA,ITT Ratings,3,against,3,NA,ACCEPT,NA,NA,NA,NA,NA,NA,NA,NA,batch3hes,batch3hes,38,15,1,Screen 1,continueButton,response_rating_scale_likert_active,4430,NA,NA,Strongly Disagree,1,0,1,0,NA,NA,NA,NA,1,statements,Don't want to get sick of covid,1,17/05/2021 11:12,17/05/2021 11:25,781,Most weeks,Most months,44,Male,-99,A levels,26,2,Against,For
18,1658859531802,26/07/2022 18:18:51,1658859531698,1,26/07/2022 19:18:51,93981,5,task-ig1e,NA,23317835,6842813,NA,complete,NA,62e02e4be6bf8db9a5abae0e,computer,Desktop or Laptop,Mac OS 10.15.6,Safari 15.5,768x1024,704x639,NA,ITT Ratings,3,against,3,NA,ACCEPT,NA,NA,NA,NA,NA,NA,NA,NA,batch3hes,batch3hes,19,16,1,Screen 1,continueButton,response_rating_scale_likert_active,1953,NA,NA,Strongly Disagree,1,0,1,0,NA,NA,NA,NA,1,statements,It is the best way to protect yourself and your loved ones,1,17/05/2021 11:20,17/05/2021 11:23,190,Most weeks,Most weeks,25,Female,-99,Vocational Training / Apprenticeship,23,1,Against,For
19,1658859533661,26/07/2022 18:18:53,1658859533546,1,26/07/2022 19:18:53,93981,5,task-ig1e,NA,23317835,6842813,NA,complete,NA,62e02e4be6bf8db9a5abae0e,computer,Desktop or Laptop,Mac OS 10.15.6,Safari 15.5,768x1024,704x639,NA,ITT Ratings,3,against,3,NA,ACCEPT,NA,NA,NA,NA,NA,NA,NA,NA,batch3hes,batch3hes,42,17,1,Screen 1,continueButton,response_rating_scale_likert_active,1817.0000000000584,NA,NA,Strongly Disagree,1,0,1,0,NA,NA,NA,NA,1,statements,Safer for the population,1,17/05/2021 11:17,17/05/2021 11:25,451,Never,Never,28,Female,-99,A levels,27,3,Against,Against
20,1658859536242,26/07/2022 18:18:56,1658859536132,1,26/07/2022 19:18:56,93981,5,task-ig1e,NA,23317835,6842813,NA,complete,NA,62e02e4be6bf8db9a5abae0e,computer,Desktop or Laptop,Mac OS 10.15.6,Safari 15.5,768x1024,704x639,NA,ITT Ratings,3,against,3,NA,ACCEPT,NA,NA,NA,NA,NA,NA,NA,NA,batch3hes,batch3hes,55,18,1,Screen 1,continueButton,response_rating_scale_likert_active,2557,NA,NA,Strongly Agree,1,0,1,0,NA,NA,NA,NA,1,statements,so I can go on holiday as we wont be able to travel without one,1,17/05/2021 11:19,17/05/2021 11:26,432,Once or twice a year,Most months,37,Female,-99,A levels,29,1,Against,For
21,1658859538482,26/07/2022 18:18:58,1658859538374,1,26/07/2022 19:18:58,93981,5,task-ig1e,NA,23317835,6842813,NA,complete,NA,62e02e4be6bf8db9a5abae0e,computer,Desktop or Laptop,Mac OS 10.15.6,Safari 15.5,768x1024,704x639,NA,ITT Ratings,3,against,3,NA,ACCEPT,NA,NA,NA,NA,NA,NA,NA,NA,batch3hes,batch3hes,14,19,1,Screen 1,continueButton,response_rating_scale_likert_active,2209,NA,NA,Strongly Disagree,1,0,1,0,NA,NA,NA,NA,1,statements,The NHS put their lives on the line for the peoples safety.,1,17/05/2021 11:10,17/05/2021 11:23,785,A few times a year,Rarely,19,Male,-99,A levels,22,2,Against,For
22,1658859541622,26/07/2022 18:19:01,1658859541529,1,26/07/2022 19:19:01,93981,5,task-ig1e,NA,23317835,6842813,NA,complete,NA,62e02e4be6bf8db9a5abae0e,computer,Desktop or Laptop,Mac OS 10.15.6,Safari 15.5,768x1024,704x639,NA,ITT Ratings,3,against,3,NA,ACCEPT,NA,NA,NA,NA,NA,NA,NA,NA,batch3hes,batch3hes,32,20,1,Screen 1,continueButton,response_rating_scale_likert_active,3121.000000000058,NA,NA,Strongly Disagree,1,0,1,0,NA,NA,NA,NA,1,statements,You apparently don't have to wear a mask,1,17/05/2021 11:11,17/05/2021 11:24,795,Most days,Most months,25,Female,-99,"Postgraduate degree (MSc, MA, MPhil)",25,2,Against,For
23,1658859544957,26/07/2022 18:19:04,1658859544860,1,26/07/2022 19:19:04,93981,5,task-ig1e,NA,23317835,6842813,NA,complete,NA,62e02e4be6bf8db9a5abae0e,computer,Desktop or Laptop,Mac OS 10.15.6,Safari 15.5,768x1024,704x639,NA,ITT Ratings,3,against,3,NA,ACCEPT,NA,NA,NA,NA,NA,NA,NA,NA,batch3hes,batch3hes,23,21,1,Screen 1,continueButton,response_rating_scale_likert_active,3299.999999999942,NA,NA,Agree,1,0,1,0,NA,NA,NA,NA,1,statements,"I am concerned the vaccine has been released too soon, not enough testing.",1,17/05/2021 10:52,17/05/2021 11:24,1936,Most weeks,Most days,64,Male,-99,No formal qualifications,24,2,Against,Against
24,1658859547494,26/07/2022 18:19:07,1658859547381,1,26/07/2022 19:19:07,93981,5,task-ig1e,NA,23317835,6842813,NA,complete,NA,62e02e4be6bf8db9a5abae0e,computer,Desktop or Laptop,Mac OS 10.15.6,Safari 15.5,768x1024,704x639,NA,ITT Ratings,3,against,3,NA,ACCEPT,NA,NA,NA,NA,NA,NA,NA,NA,batch3hes,batch3hes,37,22,1,Screen 1,continueButton,response_rating_scale_likert_active,2485,NA,NA,Disagree,1,0,1,0,NA,NA,NA,NA,1,statements,To get back to normality,1,17/05/2021 11:12,17/05/2021 11:25,781,Most weeks,Most months,44,Male,-99,A levels,26,1,Against,For
25,1658859551032,26/07/2022 18:19:11,1658859550947,1,26/07/2022 19:19:10,93981,5,task-ig1e,NA,23317835,6842813,NA,complete,NA,62e02e4be6bf8db9a5abae0e,computer,Desktop or Laptop,Mac OS 10.15.6,Safari 15.5,768x1024,704x639,NA,ITT Ratings,3,against,3,NA,ACCEPT,NA,NA,NA,NA,NA,NA,NA,NA,batch3hes,batch3hes,53,23,1,Screen 1,continueButton,response_rating_scale_likert_active,3535,NA,NA,Agree,1,0,1,0,NA,NA,NA,NA,1,statements,not enough time given to see the long term effects of having the vaccine,1,17/05/2021 11:19,17/05/2021 11:26,432,Once or twice a year,Most months,37,Female,-99,A levels,29,2,Against,Against
26,1658859556955,26/07/2022 18:19:16,1658859556873,1,26/07/2022 19:19:16,93981,5,task-ig1e,NA,23317835,6842813,NA,complete,NA,62e02e4be6bf8db9a5abae0e,computer,Desktop or Laptop,Mac OS 10.15.6,Safari 15.5,768x1024,704x639,NA,ITT Ratings,3,against,3,NA,ACCEPT,NA,NA,NA,NA,NA,NA,NA,NA,batch3hes,batch3hes,20,24,1,Screen 1,continueButton,response_rating_scale_likert_active,5897.999999999942,NA,NA,Somewhat Disagree,1,0,1,0,NA,NA,NA,NA,1,statements,It wouldn't have been offered out if it wasn't safe,1,17/05/2021 11:20,17/05/2021 11:23,190,Most weeks,Most weeks,25,Female,-99,Vocational Training / Apprenticeship,23,2,Against,For
27,1658859559336,26/07/2022 18:19:19,1658859559249,1,26/07/2022 19:19:19,93981,5,task-ig1e,NA,23317835,6842813,NA,complete,NA,62e02e4be6bf8db9a5abae0e,computer,Desktop or Laptop,Mac OS 10.15.6,Safari 15.5,768x1024,704x639,NA,ITT Ratings,3,against,3,NA,ACCEPT,NA,NA,NA,NA,NA,NA,NA,NA,batch3hes,batch3hes,33,25,1,Screen 1,continueButton,response_rating_scale_likert_active,2348,NA,NA,Agree,1,0,1,0,NA,NA,NA,NA,1,statements,You can travel to countries without quarantine period,1,17/05/2021 11:11,17/05/2021 11:24,795,Most days,Most months,25,Female,-99,"Postgraduate degree (MSc, MA, MPhil)",25,3,Against,For
28,1658859562383,26/07/2022 18:19:22,1658859562271,1,26/07/2022 19:19:22,93981,5,task-ig1e,NA,23317835,6842813,NA,complete,NA,62e02e4be6bf8db9a5abae0e,computer,Desktop or Laptop,Mac OS 10.15.6,Safari 15.5,768x1024,704x639,NA,ITT Ratings,3,against,3,NA,ACCEPT,NA,NA,NA,NA,NA,NA,NA,NA,batch3hes,batch3hes,61,26,1,Screen 1,continueButton,response_rating_scale_likert_active,2994,NA,NA,Strongly Disagree,1,0,1,0,NA,NA,NA,NA,1,statements,It will help get rid of the presence of COVID in our world,1,17/05/2021 11:19,17/05/2021 11:28,553,Most months,Most months,48,Female,-99,A levels,30,1,Against,For
29,1658859564574,26/07/2022 18:19:24,1658859564496,1,26/07/2022 19:19:24,93981,5,task-ig1e,NA,23317835,6842813,NA,complete,NA,62e02e4be6bf8db9a5abae0e,computer,Desktop or Laptop,Mac OS 10.15.6,Safari 15.5,768x1024,704x639,NA,ITT Ratings,3,against,3,NA,ACCEPT,NA,NA,NA,NA,NA,NA,NA,NA,batch3hes,batch3hes,50,27,1,Screen 1,continueButton,response_rating_scale_likert_active,2199,NA,NA,Disagree,1,0,1,0,NA,NA,NA,NA,1,statements,It's a way of getting life back to normal,1,17/05/2021 11:17,17/05/2021 11:26,535,Most weeks,Most weeks,29,Female,-99,A levels,28,2,Against,For
30,1658859571426,26/07/2022 18:19:31,1658859571344,1,26/07/2022 19:19:31,93981,5,task-ig1e,NA,23317835,6842813,NA,complete,NA,62e02e4be6bf8db9a5abae0e,computer,Desktop or Laptop,Mac OS 10.15.6,Safari 15.5,768x1024,704x639,NA,ITT Ratings,3,against,3,NA,ACCEPT,NA,NA,NA,NA,NA,NA,NA,NA,batch3hes,batch3hes,48,28,1,Screen 1,continueButton,response_rating_scale_likert_active,6819,NA,NA,Neither Agree nor Disagree,1,0,1,0,NA,NA,NA,NA,1,statements,"Lack of trust - non disclosure forms are filled in left, right and centre so I have lost trust in the government and hospitals",1,17/05/2021 11:17,17/05/2021 11:26,535,Most weeks,Most weeks,29,Female,-99,A levels,28,3,Against,Against
31,1658859574917,26/07/2022 18:19:34,1658859574794,1,26/07/2022 19:19:34,93981,5,task-ig1e,NA,23317835,6842813,NA,complete,NA,62e02e4be6bf8db9a5abae0e,computer,Desktop or Laptop,Mac OS 10.15.6,Safari 15.5,768x1024,704x639,NA,ITT Ratings,3,against,3,NA,ACCEPT,NA,NA,NA,NA,NA,NA,NA,NA,batch3hes,batch3hes,28,29,1,Screen 1,continueButton,response_rating_scale_likert_active,3424,NA,NA,Somewhat Disagree,1,0,1,0,NA,NA,NA,NA,1,statements,There's still a chance of getting a blood clot and dying,1,17/05/2021 11:11,17/05/2021 11:24,795,Most days,Most months,25,Female,-99,"Postgraduate degree (MSc, MA, MPhil)",25,1,Against,Against
32,1658859579247,26/07/2022 18:19:39,1658859579141,1,26/07/2022 19:19:39,93981,5,task-ig1e,NA,23317835,6842813,NA,complete,NA,62e02e4be6bf8db9a5abae0e,computer,Desktop or Laptop,Mac OS 10.15.6,Safari 15.5,768x1024,704x639,NA,ITT Ratings,3,against,3,NA,ACCEPT,NA,NA,NA,NA,NA,NA,NA,NA,batch3hes,batch3hes,5,30,1,Screen 1,continueButton,response_rating_scale_likert_active,4317.000000000058,NA,NA,Agree,1,0,1,0,NA,NA,NA,NA,1,statements,Will it even work given the virus is changing all the time,1,17/05/2021 11:09,17/05/2021 11:22,779,Most months,Most months,45,Female,-99,GCSEs,21,2,Against,Against
33,1658859582506,26/07/2022 18:19:42,1658859582418,1,26/07/2022 19:19:42,93981,5,task-ig1e,NA,23317835,6842813,NA,complete,NA,62e02e4be6bf8db9a5abae0e,computer,Desktop or Laptop,Mac OS 10.15.6,Safari 15.5,768x1024,704x639,NA,ITT Ratings,3,against,3,NA,ACCEPT,NA,NA,NA,NA,NA,NA,NA,NA,batch3hes,batch3hes,45,31,1,Screen 1,continueButton,response_rating_scale_likert_active,3246,NA,NA,Neither Agree nor Disagree,1,0,1,0,NA,NA,NA,NA,1,statements,Non profit vaccination,1,17/05/2021 11:17,17/05/2021 11:25,451,Never,Never,28,Female,-99,A levels,27,3,Against,For
34,1658859587586,26/07/2022 18:19:47,1658859587491,1,26/07/2022 19:19:47,93981,5,task-ig1e,NA,23317835,6842813,NA,complete,NA,62e02e4be6bf8db9a5abae0e,computer,Desktop or Laptop,Mac OS 10.15.6,Safari 15.5,768x1024,704x639,NA,ITT Ratings,3,against,3,NA,ACCEPT,NA,NA,NA,NA,NA,NA,NA,NA,batch3hes,batch3hes,34,32,1,Screen 1,continueButton,response_rating_scale_likert_active,5045,NA,NA,Agree,1,0,1,0,NA,NA,NA,NA,1,statements,Not been clearly tested over a long period and still being tested hence being called clinical trials.,1,17/05/2021 11:12,17/05/2021 11:25,781,Most weeks,Most months,44,Male,-99,A levels,26,1,Against,Against
35,1658859589590,26/07/2022 18:19:49,1658859589489,1,26/07/2022 19:19:49,93981,5,task-ig1e,NA,23317835,6842813,NA,complete,NA,62e02e4be6bf8db9a5abae0e,computer,Desktop or Laptop,Mac OS 10.15.6,Safari 15.5,768x1024,704x639,NA,ITT Ratings,3,against,3,NA,ACCEPT,NA,NA,NA,NA,NA,NA,NA,NA,batch3hes,batch3hes,41,33,1,Screen 1,continueButton,response_rating_scale_likert_active,1967,NA,NA,Disagree,1,0,1,0,NA,NA,NA,NA,1,statements,Plenty of research been done,1,17/05/2021 11:17,17/05/2021 11:25,451,Never,Never,28,Female,-99,A levels,27,2,Against,Against
36,1658859596049,26/07/2022 18:19:56,1658859595966,1,26/07/2022 19:19:55,93981,5,task-ig1e,NA,23317835,6842813,NA,complete,NA,62e02e4be6bf8db9a5abae0e,computer,Desktop or Laptop,Mac OS 10.15.6,Safari 15.5,768x1024,704x639,NA,ITT Ratings,3,against,3,NA,ACCEPT,NA,NA,NA,NA,NA,NA,NA,NA,batch3hes,batch3hes,56,34,1,Screen 1,continueButton,response_rating_scale_likert_active,6450,NA,NA,Somewhat Disagree,1,0,1,0,NA,NA,NA,NA,1,statements,in case employers say you have to be vaccinated to work,1,17/05/2021 11:19,17/05/2021 11:26,432,Once or twice a year,Most months,37,Female,-99,A levels,29,2,Against,For
37,1658859599092,26/07/2022 18:19:59,1658859599012,1,26/07/2022 19:19:59,93981,5,task-ig1e,NA,23317835,6842813,NA,complete,NA,62e02e4be6bf8db9a5abae0e,computer,Desktop or Laptop,Mac OS 10.15.6,Safari 15.5,768x1024,704x639,NA,ITT Ratings,3,against,3,NA,ACCEPT,NA,NA,NA,NA,NA,NA,NA,NA,batch3hes,batch3hes,9,35,1,Screen 1,continueButton,response_rating_scale_likert_active,3018,NA,NA,Disagree,1,0,1,0,NA,NA,NA,NA,1,statements,I work in the NHS or health sector,1,17/05/2021 11:09,17/05/2021 11:22,779,Most months,Most months,45,Female,-99,GCSEs,21,3,Against,For
38,1658859603982,26/07/2022 18:20:03,1658859603880,1,26/07/2022 19:20:03,93981,5,task-ig1e,NA,23317835,6842813,NA,complete,NA,62e02e4be6bf8db9a5abae0e,computer,Desktop or Laptop,Mac OS 10.15.6,Safari 15.5,768x1024,704x639,NA,ITT Ratings,3,against,3,NA,ACCEPT,NA,NA,NA,NA,NA,NA,NA,NA,batch3hes,batch3hes,36,36,1,Screen 1,continueButton,response_rating_scale_likert_active,4837,NA,NA,Neither Agree nor Disagree,1,0,1,0,NA,NA,NA,NA,1,statements,Being pushed by government and they can't be trusted as gone against expert advice in the past,1,17/05/2021 11:12,17/05/2021 11:25,781,Most weeks,Most months,44,Male,-99,A levels,26,3,Against,Against
39,1658859605983,26/07/2022 18:20:05,1658859605899,1,26/07/2022 19:20:05,93981,5,task-ig1e,NA,23317835,6842813,NA,complete,NA,62e02e4be6bf8db9a5abae0e,computer,Desktop or Laptop,Mac OS 10.15.6,Safari 15.5,768x1024,704x639,NA,ITT Ratings,3,against,3,NA,ACCEPT,NA,NA,NA,NA,NA,NA,NA,NA,batch3hes,batch3hes,39,37,1,Screen 1,continueButton,response_rating_scale_likert_active,1991,NA,NA,Strongly Disagree,1,0,1,0,NA,NA,NA,NA,1,statements,Everyone else is having the vaccine,1,17/05/2021 11:12,17/05/2021 11:25,781,Most weeks,Most months,44,Male,-99,A levels,26,3,Against,For
40,1658859607898,26/07/2022 18:20:07,1658859607802,1,26/07/2022 19:20:07,93981,5,task-ig1e,NA,23317835,6842813,NA,complete,NA,62e02e4be6bf8db9a5abae0e,computer,Desktop or Laptop,Mac OS 10.15.6,Safari 15.5,768x1024,704x639,NA,ITT Ratings,3,against,3,NA,ACCEPT,NA,NA,NA,NA,NA,NA,NA,NA,batch3hes,batch3hes,49,38,1,Screen 1,continueButton,response_rating_scale_likert_active,1875.9999999999416,NA,NA,Strongly Disagree,1,0,1,0,NA,NA,NA,NA,1,statements,It's to protect myself and those around me,1,17/05/2021 11:17,17/05/2021 11:26,535,Most weeks,Most weeks,29,Female,-99,A levels,28,1,Against,For
41,1658859609929,26/07/2022 18:20:09,1658859609839,1,26/07/2022 19:20:09,93981,5,task-ig1e,NA,23317835,6842813,NA,complete,NA,62e02e4be6bf8db9a5abae0e,computer,Desktop or Laptop,Mac OS 10.15.6,Safari 15.5,768x1024,704x639,NA,ITT Ratings,3,against,3,NA,ACCEPT,NA,NA,NA,NA,NA,NA,NA,NA,batch3hes,batch3hes,22,39,1,Screen 1,continueButton,response_rating_scale_likert_active,2011,NA,NA,Strongly Agree,1,0,1,0,NA,NA,NA,NA,1,statements,I am worried about possible side effects.,1,17/05/2021 10:52,17/05/2021 11:24,1936,Most weeks,Most days,64,Male,-99,No formal qualifications,24,1,Against,Against
42,1658859616962,26/07/2022 18:20:16,1658859616883,1,26/07/2022 19:20:16,93981,5,task-ig1e,NA,23317835,6842813,NA,complete,NA,62e02e4be6bf8db9a5abae0e,computer,Desktop or Laptop,Mac OS 10.15.6,Safari 15.5,768x1024,704x639,NA,ITT Ratings,3,against,3,NA,ACCEPT,NA,NA,NA,NA,NA,NA,NA,NA,batch3hes,batch3hes,15,40,1,Screen 1,continueButton,response_rating_scale_likert_active,7015,NA,NA,Neither Agree nor Disagree,1,0,1,0,NA,NA,NA,NA,1,statements,There are side effects but only a very low probability of it taking place,1,17/05/2021 11:10,17/05/2021 11:23,785,A few times a year,Rarely,19,Male,-99,A levels,22,3,Against,For
43,1658859619427,26/07/2022 18:20:19,1658859619330,1,26/07/2022 19:20:19,93981,5,task-ig1e,NA,23317835,6842813,NA,complete,NA,62e02e4be6bf8db9a5abae0e,computer,Desktop or Laptop,Mac OS 10.15.6,Safari 15.5,768x1024,704x639,NA,ITT Ratings,3,against,3,NA,ACCEPT,NA,NA,NA,NA,NA,NA,NA,NA,batch3hes,batch3hes,59,41,1,Screen 1,continueButton,response_rating_scale_likert_active,2417.000000000058,NA,NA,Somewhat Agree,1,0,1,0,NA,NA,NA,NA,1,statements,"I do not trust how quickly the vaccine has been processed, neither who has made them",1,17/05/2021 11:19,17/05/2021 11:28,553,Most months,Most months,48,Female,-99,A levels,30,2,Against,Against
44,1658859621324,26/07/2022 18:20:21,1658859621217,1,26/07/2022 19:20:21,93981,5,task-ig1e,NA,23317835,6842813,NA,complete,NA,62e02e4be6bf8db9a5abae0e,computer,Desktop or Laptop,Mac OS 10.15.6,Safari 15.5,768x1024,704x639,NA,ITT Ratings,3,against,3,NA,ACCEPT,NA,NA,NA,NA,NA,NA,NA,NA,batch3hes,batch3hes,51,42,1,Screen 1,continueButton,response_rating_scale_likert_active,1858,NA,NA,Strongly Disagree,1,0,1,0,NA,NA,NA,NA,1,statements,Everyone else is getting one,1,17/05/2021 11:17,17/05/2021 11:26,535,Most weeks,Most weeks,29,Female,-99,A levels,28,3,Against,For
45,1658859624938,26/07/2022 18:20:24,1658859624846,1,26/07/2022 19:20:24,93981,5,task-ig1e,NA,23317835,6842813,NA,complete,NA,62e02e4be6bf8db9a5abae0e,computer,Desktop or Laptop,Mac OS 10.15.6,Safari 15.5,768x1024,704x639,NA,ITT Ratings,3,against,3,NA,ACCEPT,NA,NA,NA,NA,NA,NA,NA,NA,batch3hes,batch3hes,35,43,1,Screen 1,continueButton,response_rating_scale_likert_active,3600,NA,NA,Strongly Agree,1,0,1,0,NA,NA,NA,NA,1,statements,No proof vaccine works against current or new strains,1,17/05/2021 11:12,17/05/2021 11:25,781,Most weeks,Most months,44,Male,-99,A levels,26,2,Against,Against
46,1658859629474,26/07/2022 18:20:29,1658859629364,1,26/07/2022 19:20:29,93981,5,task-ig1e,NA,23317835,6842813,NA,complete,NA,62e02e4be6bf8db9a5abae0e,computer,Desktop or Laptop,Mac OS 10.15.6,Safari 15.5,768x1024,704x639,NA,ITT Ratings,3,against,3,NA,ACCEPT,NA,NA,NA,NA,NA,NA,NA,NA,batch3hes,batch3hes,46,44,1,Screen 1,continueButton,response_rating_scale_likert_active,4492,NA,NA,Somewhat Agree,1,0,1,0,NA,NA,NA,NA,1,statements,Produced too quickly when they've had years to develop a cure for other diseases and failed,1,17/05/2021 11:17,17/05/2021 11:26,535,Most weeks,Most weeks,29,Female,-99,A levels,28,1,Against,Against
47,1658859633634,26/07/2022 18:20:33,1658859633518,1,26/07/2022 19:20:33,93981,5,task-ig1e,NA,23317835,6842813,NA,complete,NA,62e02e4be6bf8db9a5abae0e,computer,Desktop or Laptop,Mac OS 10.15.6,Safari 15.5,768x1024,704x639,NA,ITT Ratings,3,against,3,NA,ACCEPT,NA,NA,NA,NA,NA,NA,NA,NA,batch3hes,batch3hes,21,45,1,Screen 1,continueButton,response_rating_scale_likert_active,4126,NA,NA,Disagree,1,0,1,0,NA,NA,NA,NA,1,statements,the pro's out weigh the con's of the vaccine,1,17/05/2021 11:20,17/05/2021 11:23,190,Most weeks,Most weeks,25,Female,-99,Vocational Training / Apprenticeship,23,3,Against,For
48,1658859635401,26/07/2022 18:20:35,1658859635319,1,26/07/2022 19:20:35,93981,5,task-ig1e,NA,23317835,6842813,NA,complete,NA,62e02e4be6bf8db9a5abae0e,computer,Desktop or Laptop,Mac OS 10.15.6,Safari 15.5,768x1024,704x639,NA,ITT Ratings,3,against,3,NA,ACCEPT,NA,NA,NA,NA,NA,NA,NA,NA,batch3hes,batch3hes,62,46,1,Screen 1,continueButton,response_rating_scale_likert_active,1773,NA,NA,Disagree,1,0,1,0,NA,NA,NA,NA,1,statements,It protects us and other people,1,17/05/2021 11:19,17/05/2021 11:28,553,Most months,Most months,48,Female,-99,A levels,30,2,Against,For
49,1658859639856,26/07/2022 18:20:39,1658859639778,1,26/07/2022 19:20:39,93981,5,task-ig1e,NA,23317835,6842813,NA,complete,NA,62e02e4be6bf8db9a5abae0e,computer,Desktop or Laptop,Mac OS 10.15.6,Safari 15.5,768x1024,704x639,NA,ITT Ratings,3,against,3,NA,ACCEPT,NA,NA,NA,NA,NA,NA,NA,NA,batch3hes,batch3hes,58,47,1,Screen 1,continueButton,response_rating_scale_likert_active,4430,NA,NA,Somewhat Agree,1,0,1,0,NA,NA,NA,NA,1,statements,"I do not want the side effects associated with the virus, such as blood clots, to effect me",1,17/05/2021 11:19,17/05/2021 11:28,553,Most months,Most months,48,Female,-99,A levels,30,1,Against,Against
50,1658859643053,26/07/2022 18:20:43,1658859642953,1,26/07/2022 19:20:42,93981,5,task-ig1e,NA,23317835,6842813,NA,complete,NA,62e02e4be6bf8db9a5abae0e,computer,Desktop or Laptop,Mac OS 10.15.6,Safari 15.5,768x1024,704x639,NA,ITT Ratings,3,against,3,NA,ACCEPT,NA,NA,NA,NA,NA,NA,NA,NA,batch3hes,batch3hes,17,48,1,Screen 1,continueButton,response_rating_scale_likert_active,3141,NA,NA,Agree,1,0,1,0,NA,NA,NA,NA,1,statements,I'm anxious about the long and short term side effects from having the vaccine,1,17/05/2021 11:20,17/05/2021 11:23,190,Most weeks,Most weeks,25,Female,-99,Vocational Training / Apprenticeship,23,2,Against,Against
51,1658859645439,26/07/2022 18:20:45,1658859645350,1,26/07/2022 19:20:45,93981,5,task-ig1e,NA,23317835,6842813,NA,complete,NA,62e02e4be6bf8db9a5abae0e,computer,Desktop or Laptop,Mac OS 10.15.6,Safari 15.5,768x1024,704x639,NA,ITT Ratings,3,against,3,NA,ACCEPT,NA,NA,NA,NA,NA,NA,NA,NA,batch3hes,batch3hes,47,49,1,Screen 1,continueButton,response_rating_scale_likert_active,2371,NA,NA,Agree,1,0,1,0,NA,NA,NA,NA,1,statements,"There's money in vaccines, not in natural herbal remedies.",1,17/05/2021 11:17,17/05/2021 11:26,535,Most weeks,Most weeks,29,Female,-99,A levels,28,2,Against,Against
52,1658859648469,26/07/2022 18:20:48,1658859648385,1,26/07/2022 19:20:48,93981,5,task-ig1e,NA,23317835,6842813,NA,complete,NA,62e02e4be6bf8db9a5abae0e,computer,Desktop or Laptop,Mac OS 10.15.6,Safari 15.5,768x1024,704x639,NA,ITT Ratings,3,against,3,NA,ACCEPT,NA,NA,NA,NA,NA,NA,NA,NA,batch3hes,batch3hes,31,50,1,Screen 1,continueButton,response_rating_scale_likert_active,3007,NA,NA,Disagree,1,0,1,0,NA,NA,NA,NA,1,statements,You're chances of getting the virus are reduced,1,17/05/2021 11:11,17/05/2021 11:24,795,Most days,Most months,25,Female,-99,"Postgraduate degree (MSc, MA, MPhil)",25,1,Against,For
53,1658859651801,26/07/2022 18:20:51,1658859651712,1,26/07/2022 19:20:51,93981,5,task-ig1e,NA,23317835,6842813,NA,complete,NA,62e02e4be6bf8db9a5abae0e,computer,Desktop or Laptop,Mac OS 10.15.6,Safari 15.5,768x1024,704x639,NA,ITT Ratings,3,against,3,NA,ACCEPT,NA,NA,NA,NA,NA,NA,NA,NA,batch3hes,batch3hes,43,51,1,Screen 1,continueButton,response_rating_scale_likert_active,3300.000000000058,NA,NA,Neither Agree nor Disagree,1,0,1,0,NA,NA,NA,NA,1,statements,Produced quickly and effectively,1,17/05/2021 11:17,17/05/2021 11:25,451,Never,Never,28,Female,-99,A levels,27,1,Against,For
54,1658859655877,26/07/2022 18:20:55,1658859655784,1,26/07/2022 19:20:55,93981,5,task-ig1e,NA,23317835,6842813,NA,complete,NA,62e02e4be6bf8db9a5abae0e,computer,Desktop or Laptop,Mac OS 10.15.6,Safari 15.5,768x1024,704x639,NA,ITT Ratings,3,against,3,NA,ACCEPT,NA,NA,NA,NA,NA,NA,NA,NA,batch3hes,batch3hes,26,52,1,Screen 1,continueButton,response_rating_scale_likert_active,4043.999999999942,NA,NA,Somewhat Disagree,1,0,1,0,NA,NA,NA,NA,1,statements,I think the positives outweigh the negatives.,1,17/05/2021 10:52,17/05/2021 11:24,1936,Most weeks,Most days,64,Male,-99,No formal qualifications,24,2,Against,For
55,1658859669925,26/07/2022 18:21:09,1658859669841,1,26/07/2022 19:21:09,93981,5,task-ig1e,NA,23317835,6842813,NA,complete,NA,62e02e4be6bf8db9a5abae0e,computer,Desktop or Laptop,Mac OS 10.15.6,Safari 15.5,768x1024,704x639,NA,ITT Ratings,3,against,3,NA,ACCEPT,NA,NA,NA,NA,NA,NA,NA,NA,batch3hes,batch3hes,63,53,1,Screen 1,continueButton,response_rating_scale_likert_active,14031,NA,NA,Somewhat Disagree,1,0,1,0,NA,NA,NA,NA,1,statements,"Vaccines in the past have proved successful, such as the influenza vaccine",1,17/05/2021 11:19,17/05/2021 11:28,553,Most months,Most months,48,Female,-99,A levels,30,3,Against,For
56,1658859673320,26/07/2022 18:21:13,1658859673231,1,26/07/2022 19:21:13,93981,5,task-ig1e,NA,23317835,6842813,NA,complete,NA,62e02e4be6bf8db9a5abae0e,computer,Desktop or Laptop,Mac OS 10.15.6,Safari 15.5,768x1024,704x639,NA,ITT Ratings,3,against,3,NA,ACCEPT,NA,NA,NA,NA,NA,NA,NA,NA,batch3hes,batch3hes,52,54,1,Screen 1,continueButton,response_rating_scale_likert_active,3366,NA,NA,Neither Agree nor Disagree,1,0,1,0,NA,NA,NA,NA,1,statements,it does not work its all a hoax,1,17/05/2021 11:19,17/05/2021 11:26,432,Once or twice a year,Most months,37,Female,-99,A levels,29,1,Against,Against
57,1658859675841,26/07/2022 18:21:15,1658859675747,1,26/07/2022 19:21:15,93981,5,task-ig1e,NA,23317835,6842813,NA,complete,NA,62e02e4be6bf8db9a5abae0e,computer,Desktop or Laptop,Mac OS 10.15.6,Safari 15.5,768x1024,704x639,NA,ITT Ratings,3,against,3,NA,ACCEPT,NA,NA,NA,NA,NA,NA,NA,NA,batch3hes,batch3hes,25,55,1,Screen 1,continueButton,response_rating_scale_likert_active,2485.999999999942,NA,NA,Strongly Disagree,1,0,1,0,NA,NA,NA,NA,1,statements,I want the vaccine as soon as possible to protect myself from covid.,1,17/05/2021 10:52,17/05/2021 11:24,1936,Most weeks,Most days,64,Male,-99,No formal qualifications,24,1,Against,For
58,1658859695422,26/07/2022 18:21:35,1658859695326,1,26/07/2022 19:21:35,93981,5,task-ig1e,NA,23317835,6842813,NA,complete,NA,62e02e4be6bf8db9a5abae0e,computer,Desktop or Laptop,Mac OS 10.15.6,Safari 15.5,768x1024,704x639,NA,ITT Ratings,3,against,3,NA,ACCEPT,NA,NA,NA,NA,NA,NA,NA,NA,batch3hes,batch3hes,2,56,1,Screen 1,continueButton,response_rating_scale_likert_active,19552,NA,NA,Somewhat Agree,1,0,1,0,NA,NA,NA,NA,1,statements,We would like to check you are reading each argument carefully. Please select 'Somewhat Agree' for this answer,1,NA,NA,NA,NA,NA,NA,NA,NA,NA,NA,check1,NA,NA
59,1658859697818,26/07/2022 18:21:37,1658859697725,1,26/07/2022 19:21:37,93981,5,task-ig1e,NA,23317835,6842813,NA,complete,NA,62e02e4be6bf8db9a5abae0e,computer,Desktop or Laptop,Mac OS 10.15.6,Safari 15.5,768x1024,704x639,NA,ITT Ratings,3,against,3,NA,ACCEPT,NA,NA,NA,NA,NA,NA,NA,NA,batch3hes,batch3hes,7,57,1,Screen 1,continueButton,response_rating_scale_likert_active,2367,NA,NA,Strongly Disagree,1,0,1,0,NA,NA,NA,NA,1,statements,I  have elderly family which I want to protect,1,17/05/2021 11:09,17/05/2021 11:22,779,Most months,Most months,45,Female,-99,GCSEs,21,1,Against,For
60,1658859712202,26/07/2022 18:21:52,1658859712115,1,26/07/2022 19:21:52,93981,5,task-ig1e,NA,23317835,6842813,NA,complete,NA,62e02e4be6bf8db9a5abae0e,computer,Desktop or Laptop,Mac OS 10.15.6,Safari 15.5,768x1024,704x639,NA,ITT Ratings,3,against,3,NA,ACCEPT,NA,NA,NA,NA,NA,NA,NA,NA,batch3hes,batch3hes,11,58,1,Screen 1,continueButton,response_rating_scale_likert_active,14366.000000000116,NA,NA,Disagree,1,0,1,0,NA,NA,NA,NA,1,statements,The doctors are not to be trusted as they're only interested in increasing the daily infection rate counts.,1,17/05/2021 11:10,17/05/2021 11:23,785,A few times a year,Rarely,19,Male,-99,A levels,22,2,Against,Against
61,1658859722139,26/07/2022 18:22:02,1658859722043,1,26/07/2022 19:22:02,93981,5,task-ig1e,NA,23317835,6842813,NA,complete,NA,62e02e4be6bf8db9a5abae0e,computer,Desktop or Laptop,Mac OS 10.15.6,Safari 15.5,768x1024,704x639,NA,ITT Ratings,3,against,3,NA,ACCEPT,NA,NA,NA,NA,NA,NA,NA,NA,batch3hes,batch3hes,24,59,1,Screen 1,continueButton,response_rating_scale_likert_active,9902,NA,NA,Somewhat Agree,1,0,1,0,NA,NA,NA,NA,1,statements,I don't have enough information on the possible long term effects of the vaccine.,1,17/05/2021 10:52,17/05/2021 11:24,1936,Most weeks,Most days,64,Male,-99,No formal qualifications,24,3,Against,Against
62,1658859724914,26/07/2022 18:22:04,1658859724817,1,26/07/2022 19:22:04,93981,5,task-ig1e,NA,23317835,6842813,NA,complete,NA,62e02e4be6bf8db9a5abae0e,computer,Desktop or Laptop,Mac OS 10.15.6,Safari 15.5,768x1024,704x639,NA,ITT Ratings,3,against,3,NA,ACCEPT,NA,NA,NA,NA,NA,NA,NA,NA,batch3hes,batch3hes,27,60,1,Screen 1,continueButton,response_rating_scale_likert_active,2743.0000000001164,NA,NA,Strongly Disagree,1,0,1,0,NA,NA,NA,NA,1,statements,Everyone else is getting it and I don't want to be left behind.,1,17/05/2021 10:52,17/05/2021 11:24,1936,Most weeks,Most days,64,Male,-99,No formal qualifications,24,3,Against,For
63,1658859728998,26/07/2022 18:22:08,1658859728894,1,26/07/2022 19:22:08,93981,5,task-ig1e,NA,23317835,6842813,NA,complete,NA,62e02e4be6bf8db9a5abae0e,computer,Desktop or Laptop,Mac OS 10.15.6,Safari 15.5,768x1024,704x639,NA,ITT Ratings,3,against,3,NA,ACCEPT,NA,NA,NA,NA,NA,NA,NA,NA,batch3hes,batch3hes,60,61,1,Screen 1,continueButton,response_rating_scale_likert_active,4053,NA,NA,Agree,1,0,1,0,NA,NA,NA,NA,1,statements,It may not completely eradicate the virus,1,17/05/2021 11:19,17/05/2021 11:28,553,Most months,Most months,48,Female,-99,A levels,30,3,Against,Against
64,1658859731398,26/07/2022 18:22:11,1658859731302,1,26/07/2022 19:22:11,93981,5,task-ig1e,NA,23317835,6842813,NA,complete,NA,62e02e4be6bf8db9a5abae0e,computer,Desktop or Laptop,Mac OS 10.15.6,Safari 15.5,768x1024,704x639,NA,ITT Ratings,3,against,3,NA,ACCEPT,NA,NA,NA,NA,NA,NA,NA,NA,batch3hes,batch3hes,4,62,1,Screen 1,continueButton,response_rating_scale_likert_active,2385,NA,NA,Agree,1,0,1,0,NA,NA,NA,NA,1,statements,I dont know the true side effects years down the line,1,17/05/2021 11:09,17/05/2021 11:22,779,Most months,Most months,45,Female,-99,GCSEs,21,1,Against,Against
65,1658859731448,26/07/2022 18:22:11,1658859731313,1,26/07/2022 19:22:11,93981,5,task-ig1e,NA,23317835,6842813,NA,complete,NA,62e02e4be6bf8db9a5abae0e,computer,Desktop or Laptop,Mac OS 10.15.6,Safari 15.5,768x1024,704x639,NA,ITT Ratings,3,against,3,NA,ACCEPT,NA,NA,NA,NA,NA,NA,NA,NA,batch3hes,NA,NA,END TASK,NA,NA,NA,NA,572993,NA,NA,NA,NA,0,1,0,NA,NA,NA,NA,NA,NA,NA,NA,NA,NA,NA,NA,NA,NA,NA,NA,NA,NA,NA,NA,NA
1,1658859410861,26/07/2022 18:16:50,1658859410844,2,26/07/2022 20:16:50,93981,5,task-ig1e,NA,23317937,6842851,NA,complete,NA,62e02f5d2b43428f29e80b76,computer,Desktop or Laptop,Windows 10,Chrome 103.0.0.0,1366x768,1366x657,NA,ITT Ratings,3,against,3,NA,ACCEPT,NA,NA,NA,NA,NA,NA,NA,NA,batch3hes,NA,NA,BEGIN TASK,NA,NA,NA,NA,NA,NA,NA,NA,NA,0,1,0,NA,NA,NA,NA,NA,NA,NA,NA,NA,NA,NA,NA,NA,NA,NA,NA,NA,NA,NA,NA,NA
2,1658859424274,26/07/2022 18:17:04,1658859424269,2,26/07/2022 20:17:04,93981,5,task-ig1e,NA,23317937,6842851,NA,complete,NA,62e02f5d2b43428f29e80b76,computer,Desktop or Laptop,Windows 10,Chrome 103.0.0.0,1366x768,1366x657,NA,ITT Ratings,3,against,3,NA,ACCEPT,NA,NA,NA,NA,NA,NA,NA,NA,batch3hes,batch3hes,1,1,1,Screen 1,advancementZone,continue_button,13272.599999904633,NA,NA,NA,NA,0,1,0,NA,NA,NA,NA,NA,instructions,NA,NA,NA,NA,NA,NA,NA,NA,NA,NA,NA,NA,NA,NA,NA
3,1658859431867,26/07/2022 18:17:11,1658859431863,2,26/07/2022 20:17:11,93981,5,task-ig1e,NA,23317937,6842851,NA,complete,NA,62e02f5d2b43428f29e80b76,computer,Desktop or Laptop,Windows 10,Chrome 103.0.0.0,1366x768,1366x657,NA,ITT Ratings,3,against,3,NA,ACCEPT,NA,NA,NA,NA,NA,NA,NA,NA,batch3hes,batch3hes,62,1,1,Screen 1,continueButton,response_rating_scale_likert_active,7535.100000023842,NA,NA,Strongly Disagree,1,0,1,0,NA,NA,NA,NA,1,statements,It protects us and other people,1,17/05/2021 11:19,17/05/2021 11:28,553,Most months,Most months,48,Female,-99,A levels,30,2,Against,For
4,1658859438864,26/07/2022 18:17:18,1658859438860,2,26/07/2022 20:17:18,93981,5,task-ig1e,NA,23317937,6842851,NA,complete,NA,62e02f5d2b43428f29e80b76,computer,Desktop or Laptop,Windows 10,Chrome 103.0.0.0,1366x768,1366x657,NA,ITT Ratings,3,against,3,NA,ACCEPT,NA,NA,NA,NA,NA,NA,NA,NA,batch3hes,batch3hes,63,2,1,Screen 1,continueButton,response_rating_scale_likert_active,6951.399999976158,NA,NA,Neither Agree nor Disagree,1,0,1,0,NA,NA,NA,NA,1,statements,"Vaccines in the past have proved successful, such as the influenza vaccine",1,17/05/2021 11:19,17/05/2021 11:28,553,Most months,Most months,48,Female,-99,A levels,30,3,Against,For
5,1658859444823,26/07/2022 18:17:24,1658859444835,2,26/07/2022 20:17:24,93981,5,task-ig1e,NA,23317937,6842851,NA,complete,NA,62e02f5d2b43428f29e80b76,computer,Desktop or Laptop,Windows 10,Chrome 103.0.0.0,1366x768,1366x657,NA,ITT Ratings,3,against,3,NA,ACCEPT,NA,NA,NA,NA,NA,NA,NA,NA,batch3hes,batch3hes,16,3,1,Screen 1,continueButton,response_rating_scale_likert_active,5934.899999976158,NA,NA,Strongly Agree,1,0,1,0,NA,NA,NA,NA,1,statements,I don't trust how quickly the vaccination has been developed,1,17/05/2021 11:20,17/05/2021 11:23,190,Most weeks,Most weeks,25,Female,-99,Vocational Training / Apprenticeship,23,1,Against,Against
6,1658859450408,26/07/2022 18:17:30,1658859450420,2,26/07/2022 20:17:30,93981,5,task-ig1e,NA,23317937,6842851,NA,complete,NA,62e02f5d2b43428f29e80b76,computer,Desktop or Laptop,Windows 10,Chrome 103.0.0.0,1366x768,1366x657,NA,ITT Ratings,3,against,3,NA,ACCEPT,NA,NA,NA,NA,NA,NA,NA,NA,batch3hes,batch3hes,4,4,1,Screen 1,continueButton,response_rating_scale_likert_active,5549.100000023842,NA,NA,Agree,1,0,1,0,NA,NA,NA,NA,1,statements,I dont know the true side effects years down the line,1,17/05/2021 11:09,17/05/2021 11:22,779,Most months,Most months,45,Female,-99,GCSEs,21,1,Against,Against
7,1658859454793,26/07/2022 18:17:34,1658859454811,2,26/07/2022 20:17:34,93981,5,task-ig1e,NA,23317937,6842851,NA,complete,NA,62e02f5d2b43428f29e80b76,computer,Desktop or Laptop,Windows 10,Chrome 103.0.0.0,1366x768,1366x657,NA,ITT Ratings,3,against,3,NA,ACCEPT,NA,NA,NA,NA,NA,NA,NA,NA,batch3hes,batch3hes,15,5,1,Screen 1,continueButton,response_rating_scale_likert_active,4352.199999928474,NA,NA,Disagree,1,0,1,0,NA,NA,NA,NA,1,statements,There are side effects but only a very low probability of it taking place,1,17/05/2021 11:10,17/05/2021 11:23,785,A few times a year,Rarely,19,Male,-99,A levels,22,3,Against,For
8,1658859459662,26/07/2022 18:17:39,1658859459675,2,26/07/2022 20:17:39,93981,5,task-ig1e,NA,23317937,6842851,NA,complete,NA,62e02f5d2b43428f29e80b76,computer,Desktop or Laptop,Windows 10,Chrome 103.0.0.0,1366x768,1366x657,NA,ITT Ratings,3,against,3,NA,ACCEPT,NA,NA,NA,NA,NA,NA,NA,NA,batch3hes,batch3hes,18,6,1,Screen 1,continueButton,response_rating_scale_likert_active,4828.600000023842,NA,NA,Strongly Agree,1,0,1,0,NA,NA,NA,NA,1,statements,There is no proof that the vaccine actually protects you or others against covid,1,17/05/2021 11:20,17/05/2021 11:23,190,Most weeks,Most weeks,25,Female,-99,Vocational Training / Apprenticeship,23,3,Against,Against
9,1658859466072,26/07/2022 18:17:46,1658859466091,2,26/07/2022 20:17:46,93981,5,task-ig1e,NA,23317937,6842851,NA,complete,NA,62e02f5d2b43428f29e80b76,computer,Desktop or Laptop,Windows 10,Chrome 103.0.0.0,1366x768,1366x657,NA,ITT Ratings,3,against,3,NA,ACCEPT,NA,NA,NA,NA,NA,NA,NA,NA,batch3hes,batch3hes,20,7,1,Screen 1,continueButton,response_rating_scale_likert_active,6380.300000071526,NA,NA,Neither Agree nor Disagree,1,0,1,0,NA,NA,NA,NA,1,statements,It wouldn't have been offered out if it wasn't safe,1,17/05/2021 11:20,17/05/2021 11:23,190,Most weeks,Most weeks,25,Female,-99,Vocational Training / Apprenticeship,23,2,Against,For
10,1658859470969,26/07/2022 18:17:50,1658859470979,2,26/07/2022 20:17:50,93981,5,task-ig1e,NA,23317937,6842851,NA,complete,NA,62e02f5d2b43428f29e80b76,computer,Desktop or Laptop,Windows 10,Chrome 103.0.0.0,1366x768,1366x657,NA,ITT Ratings,3,against,3,NA,ACCEPT,NA,NA,NA,NA,NA,NA,NA,NA,batch3hes,batch3hes,52,8,1,Screen 1,continueButton,response_rating_scale_likert_active,4851,NA,NA,Somewhat Disagree,1,0,1,0,NA,NA,NA,NA,1,statements,it does not work its all a hoax,1,17/05/2021 11:19,17/05/2021 11:26,432,Once or twice a year,Most months,37,Female,-99,A levels,29,1,Against,Against
11,1658859476722,26/07/2022 18:17:56,1658859476731,2,26/07/2022 20:17:56,93981,5,task-ig1e,NA,23317937,6842851,NA,complete,NA,62e02f5d2b43428f29e80b76,computer,Desktop or Laptop,Windows 10,Chrome 103.0.0.0,1366x768,1366x657,NA,ITT Ratings,3,against,3,NA,ACCEPT,NA,NA,NA,NA,NA,NA,NA,NA,batch3hes,batch3hes,6,9,1,Screen 1,continueButton,response_rating_scale_likert_active,5715.300000071526,NA,NA,Somewhat Agree,1,0,1,0,NA,NA,NA,NA,1,statements,Im confused into whether to receive it or not,1,17/05/2021 11:09,17/05/2021 11:22,779,Most months,Most months,45,Female,-99,GCSEs,21,3,Against,Against
12,1658859479857,26/07/2022 18:17:59,1658859479860,2,26/07/2022 20:17:59,93981,5,task-ig1e,NA,23317937,6842851,NA,complete,NA,62e02f5d2b43428f29e80b76,computer,Desktop or Laptop,Windows 10,Chrome 103.0.0.0,1366x768,1366x657,NA,ITT Ratings,3,against,3,NA,ACCEPT,NA,NA,NA,NA,NA,NA,NA,NA,batch3hes,batch3hes,43,10,1,Screen 1,continueButton,response_rating_scale_likert_active,3091.7999999523163,NA,NA,Disagree,1,0,1,0,NA,NA,NA,NA,1,statements,Produced quickly and effectively,1,17/05/2021 11:17,17/05/2021 11:25,451,Never,Never,28,Female,-99,A levels,27,1,Against,For
13,1658859483584,26/07/2022 18:18:03,1658859483595,2,26/07/2022 20:18:03,93981,5,task-ig1e,NA,23317937,6842851,NA,complete,NA,62e02f5d2b43428f29e80b76,computer,Desktop or Laptop,Windows 10,Chrome 103.0.0.0,1366x768,1366x657,NA,ITT Ratings,3,against,3,NA,ACCEPT,NA,NA,NA,NA,NA,NA,NA,NA,batch3hes,batch3hes,60,11,1,Screen 1,continueButton,response_rating_scale_likert_active,3698.1999999284744,NA,NA,Strongly Agree,1,0,1,0,NA,NA,NA,NA,1,statements,It may not completely eradicate the virus,1,17/05/2021 11:19,17/05/2021 11:28,553,Most months,Most months,48,Female,-99,A levels,30,3,Against,Against
14,1658859488261,26/07/2022 18:18:08,1658859488260,2,26/07/2022 20:18:08,93981,5,task-ig1e,NA,23317937,6842851,NA,complete,NA,62e02f5d2b43428f29e80b76,computer,Desktop or Laptop,Windows 10,Chrome 103.0.0.0,1366x768,1366x657,NA,ITT Ratings,3,against,3,NA,ACCEPT,NA,NA,NA,NA,NA,NA,NA,NA,batch3hes,batch3hes,47,12,1,Screen 1,continueButton,response_rating_scale_likert_active,4630,NA,NA,Strongly Agree,1,0,1,0,NA,NA,NA,NA,1,statements,"There's money in vaccines, not in natural herbal remedies.",1,17/05/2021 11:17,17/05/2021 11:26,535,Most weeks,Most weeks,29,Female,-99,A levels,28,2,Against,Against
15,1658859493667,26/07/2022 18:18:13,1658859493668,2,26/07/2022 20:18:13,93981,5,task-ig1e,NA,23317937,6842851,NA,complete,NA,62e02f5d2b43428f29e80b76,computer,Desktop or Laptop,Windows 10,Chrome 103.0.0.0,1366x768,1366x657,NA,ITT Ratings,3,against,3,NA,ACCEPT,NA,NA,NA,NA,NA,NA,NA,NA,batch3hes,batch3hes,9,13,1,Screen 1,continueButton,response_rating_scale_likert_active,5374.600000023842,NA,NA,Strongly Disagree,1,0,1,0,NA,NA,NA,NA,1,statements,I work in the NHS or health sector,1,17/05/2021 11:09,17/05/2021 11:22,779,Most months,Most months,45,Female,-99,GCSEs,21,3,Against,For
16,1658859498499,26/07/2022 18:18:18,1658859498331,2,26/07/2022 20:18:18,93981,5,task-ig1e,NA,23317937,6842851,NA,complete,NA,62e02f5d2b43428f29e80b76,computer,Desktop or Laptop,Windows 10,Chrome 103.0.0.0,1366x768,1366x657,NA,ITT Ratings,3,against,3,NA,ACCEPT,NA,NA,NA,NA,NA,NA,NA,NA,batch3hes,batch3hes,24,14,1,Screen 1,continueButton,response_rating_scale_likert_active,4628.300000071526,NA,NA,Strongly Agree,1,0,1,0,NA,NA,NA,NA,1,statements,I don't have enough information on the possible long term effects of the vaccine.,1,17/05/2021 10:52,17/05/2021 11:24,1936,Most weeks,Most days,64,Male,-99,No formal qualifications,24,3,Against,Against
17,1658859498537,26/07/2022 18:18:18,1658859498395,2,26/07/2022 20:18:18,93981,5,task-ig1e,NA,23317937,6842851,NA,complete,NA,62e02f5d2b43428f29e80b76,computer,Desktop or Laptop,Windows 10,Chrome 103.0.0.0,1366x768,1366x657,NA,ITT Ratings,3,against,3,NA,ACCEPT,NA,NA,NA,NA,NA,NA,NA,NA,batch3hes,batch3hes,13,15,1,Screen 1,continueButton,response_rating_scale_likert_active,32,NA,NA,Strongly Agree,1,0,1,0,NA,NA,NA,NA,1,statements,That its a necessity for the virus to be eradicated for good and it's the only way out of this pandemic.,1,17/05/2021 11:10,17/05/2021 11:23,785,A few times a year,Rarely,19,Male,-99,A levels,22,1,Against,For
18,1658859502122,26/07/2022 18:18:22,1658859502124,2,26/07/2022 20:18:22,93981,5,task-ig1e,NA,23317937,6842851,NA,complete,NA,62e02f5d2b43428f29e80b76,computer,Desktop or Laptop,Windows 10,Chrome 103.0.0.0,1366x768,1366x657,NA,ITT Ratings,3,against,3,NA,ACCEPT,NA,NA,NA,NA,NA,NA,NA,NA,batch3hes,batch3hes,40,16,1,Screen 1,continueButton,response_rating_scale_likert_active,3700.6999999284744,NA,NA,Disagree,1,0,1,0,NA,NA,NA,NA,1,statements,Produced effectively,1,17/05/2021 11:17,17/05/2021 11:25,451,Never,Never,28,Female,-99,A levels,27,1,Against,Against
19,1658859506134,26/07/2022 18:18:26,1658859506140,2,26/07/2022 20:18:26,93981,5,task-ig1e,NA,23317937,6842851,NA,complete,NA,62e02f5d2b43428f29e80b76,computer,Desktop or Laptop,Windows 10,Chrome 103.0.0.0,1366x768,1366x657,NA,ITT Ratings,3,against,3,NA,ACCEPT,NA,NA,NA,NA,NA,NA,NA,NA,batch3hes,batch3hes,21,17,1,Screen 1,continueButton,response_rating_scale_likert_active,3982.899999976158,NA,NA,Disagree,1,0,1,0,NA,NA,NA,NA,1,statements,the pro's out weigh the con's of the vaccine,1,17/05/2021 11:20,17/05/2021 11:23,190,Most weeks,Most weeks,25,Female,-99,Vocational Training / Apprenticeship,23,3,Against,For
20,1658859510149,26/07/2022 18:18:30,1658859510151,2,26/07/2022 20:18:30,93981,5,task-ig1e,NA,23317937,6842851,NA,complete,NA,62e02f5d2b43428f29e80b76,computer,Desktop or Laptop,Windows 10,Chrome 103.0.0.0,1366x768,1366x657,NA,ITT Ratings,3,against,3,NA,ACCEPT,NA,NA,NA,NA,NA,NA,NA,NA,batch3hes,batch3hes,44,18,1,Screen 1,continueButton,response_rating_scale_likert_active,3982.099999904633,NA,NA,Somewhat Disagree,1,0,1,0,NA,NA,NA,NA,1,statements,Plenty of case studies,1,17/05/2021 11:17,17/05/2021 11:25,451,Never,Never,28,Female,-99,A levels,27,2,Against,For
21,1658859514318,26/07/2022 18:18:34,1658859514331,2,26/07/2022 20:18:34,93981,5,task-ig1e,NA,23317937,6842851,NA,complete,NA,62e02f5d2b43428f29e80b76,computer,Desktop or Laptop,Windows 10,Chrome 103.0.0.0,1366x768,1366x657,NA,ITT Ratings,3,against,3,NA,ACCEPT,NA,NA,NA,NA,NA,NA,NA,NA,batch3hes,batch3hes,53,19,1,Screen 1,continueButton,response_rating_scale_likert_active,4147.5,NA,NA,Strongly Agree,1,0,1,0,NA,NA,NA,NA,1,statements,not enough time given to see the long term effects of having the vaccine,1,17/05/2021 11:19,17/05/2021 11:26,432,Once or twice a year,Most months,37,Female,-99,A levels,29,2,Against,Against
22,1658859514433,26/07/2022 18:18:34,1658859514436,2,26/07/2022 20:18:34,93981,5,task-ig1e,NA,23317937,6842851,NA,complete,NA,62e02f5d2b43428f29e80b76,computer,Desktop or Laptop,Windows 10,Chrome 103.0.0.0,1366x768,1366x657,NA,ITT Ratings,3,against,3,NA,ACCEPT,NA,NA,NA,NA,NA,NA,NA,NA,batch3hes,batch3hes,38,20,1,Screen 1,continueButton,response_rating_scale_likert_active,70.60000002384186,NA,NA,Strongly Agree,1,0,1,0,NA,NA,NA,NA,1,statements,Don't want to get sick of covid,1,17/05/2021 11:12,17/05/2021 11:25,781,Most weeks,Most months,44,Male,-99,A levels,26,2,Against,For
23,1658859519185,26/07/2022 18:18:39,1658859519179,2,26/07/2022 20:18:39,93981,5,task-ig1e,NA,23317937,6842851,NA,complete,NA,62e02f5d2b43428f29e80b76,computer,Desktop or Laptop,Windows 10,Chrome 103.0.0.0,1366x768,1366x657,NA,ITT Ratings,3,against,3,NA,ACCEPT,NA,NA,NA,NA,NA,NA,NA,NA,batch3hes,batch3hes,45,21,1,Screen 1,continueButton,response_rating_scale_likert_active,4708.199999928474,NA,NA,Somewhat Disagree,1,0,1,0,NA,NA,NA,NA,1,statements,Non profit vaccination,1,17/05/2021 11:17,17/05/2021 11:25,451,Never,Never,28,Female,-99,A levels,27,3,Against,For
24,1658859524905,26/07/2022 18:18:44,1658859524909,2,26/07/2022 20:18:44,93981,5,task-ig1e,NA,23317937,6842851,NA,complete,NA,62e02f5d2b43428f29e80b76,computer,Desktop or Laptop,Windows 10,Chrome 103.0.0.0,1366x768,1366x657,NA,ITT Ratings,3,against,3,NA,ACCEPT,NA,NA,NA,NA,NA,NA,NA,NA,batch3hes,batch3hes,26,22,1,Screen 1,continueButton,response_rating_scale_likert_active,5699.799999952316,NA,NA,Disagree,1,0,1,0,NA,NA,NA,NA,1,statements,I think the positives outweigh the negatives.,1,17/05/2021 10:52,17/05/2021 11:24,1936,Most weeks,Most days,64,Male,-99,No formal qualifications,24,2,Against,For
25,1658859528386,26/07/2022 18:18:48,1658859528388,2,26/07/2022 20:18:48,93981,5,task-ig1e,NA,23317937,6842851,NA,complete,NA,62e02f5d2b43428f29e80b76,computer,Desktop or Laptop,Windows 10,Chrome 103.0.0.0,1366x768,1366x657,NA,ITT Ratings,3,against,3,NA,ACCEPT,NA,NA,NA,NA,NA,NA,NA,NA,batch3hes,batch3hes,31,23,1,Screen 1,continueButton,response_rating_scale_likert_active,3447.899999976158,NA,NA,Somewhat Disagree,1,0,1,0,NA,NA,NA,NA,1,statements,You're chances of getting the virus are reduced,1,17/05/2021 11:11,17/05/2021 11:24,795,Most days,Most months,25,Female,-99,"Postgraduate degree (MSc, MA, MPhil)",25,1,Against,For
26,1658859532543,26/07/2022 18:18:52,1658859532544,2,26/07/2022 20:18:52,93981,5,task-ig1e,NA,23317937,6842851,NA,complete,NA,62e02f5d2b43428f29e80b76,computer,Desktop or Laptop,Windows 10,Chrome 103.0.0.0,1366x768,1366x657,NA,ITT Ratings,3,against,3,NA,ACCEPT,NA,NA,NA,NA,NA,NA,NA,NA,batch3hes,batch3hes,54,24,1,Screen 1,continueButton,response_rating_scale_likert_active,4125.599999904633,NA,NA,Agree,1,0,1,0,NA,NA,NA,NA,1,statements,it was rolled out too quick and not tested well enough,1,17/05/2021 11:19,17/05/2021 11:26,432,Once or twice a year,Most months,37,Female,-99,A levels,29,3,Against,Against
27,1658859541768,26/07/2022 18:19:01,1658859541765,2,26/07/2022 20:19:01,93981,5,task-ig1e,NA,23317937,6842851,NA,complete,NA,62e02f5d2b43428f29e80b76,computer,Desktop or Laptop,Windows 10,Chrome 103.0.0.0,1366x768,1366x657,NA,ITT Ratings,3,against,3,NA,ACCEPT,NA,NA,NA,NA,NA,NA,NA,NA,batch3hes,batch3hes,3,25,1,Screen 1,continueButton,response_rating_scale_likert_active,9188.799999952316,NA,NA,Somewhat Disagree,1,0,1,0,NA,NA,NA,NA,1,statements,We would like to check you are reading each argument carefully. Please select 'Somewhat Disagree' for this answer,1,NA,NA,NA,NA,NA,NA,NA,NA,NA,NA,check2,NA,NA
28,1658859548748,26/07/2022 18:19:08,1658859548752,2,26/07/2022 20:19:08,93981,5,task-ig1e,NA,23317937,6842851,NA,complete,NA,62e02f5d2b43428f29e80b76,computer,Desktop or Laptop,Windows 10,Chrome 103.0.0.0,1366x768,1366x657,NA,ITT Ratings,3,against,3,NA,ACCEPT,NA,NA,NA,NA,NA,NA,NA,NA,batch3hes,batch3hes,36,26,1,Screen 1,continueButton,response_rating_scale_likert_active,6951,NA,NA,Strongly Agree,1,0,1,0,NA,NA,NA,NA,1,statements,Being pushed by government and they can't be trusted as gone against expert advice in the past,1,17/05/2021 11:12,17/05/2021 11:25,781,Most weeks,Most months,44,Male,-99,A levels,26,3,Against,Against
29,1658859553601,26/07/2022 18:19:13,1658859553612,2,26/07/2022 20:19:13,93981,5,task-ig1e,NA,23317937,6842851,NA,complete,NA,62e02f5d2b43428f29e80b76,computer,Desktop or Laptop,Windows 10,Chrome 103.0.0.0,1366x768,1366x657,NA,ITT Ratings,3,against,3,NA,ACCEPT,NA,NA,NA,NA,NA,NA,NA,NA,batch3hes,batch3hes,19,27,1,Screen 1,continueButton,response_rating_scale_likert_active,4824.299999952316,NA,NA,Disagree,1,0,1,0,NA,NA,NA,NA,1,statements,It is the best way to protect yourself and your loved ones,1,17/05/2021 11:20,17/05/2021 11:23,190,Most weeks,Most weeks,25,Female,-99,Vocational Training / Apprenticeship,23,1,Against,For
30,1658859560021,26/07/2022 18:19:20,1658859560036,2,26/07/2022 20:19:20,93981,5,task-ig1e,NA,23317937,6842851,NA,complete,NA,62e02f5d2b43428f29e80b76,computer,Desktop or Laptop,Windows 10,Chrome 103.0.0.0,1366x768,1366x657,NA,ITT Ratings,3,against,3,NA,ACCEPT,NA,NA,NA,NA,NA,NA,NA,NA,batch3hes,batch3hes,29,28,1,Screen 1,continueButton,response_rating_scale_likert_active,6393.200000047684,NA,NA,Neither Agree nor Disagree,1,0,1,0,NA,NA,NA,NA,1,statements,"After getting the vaccine, I've heard that your arm largely swells and  aches for weeks before you can go back to normal activities",1,17/05/2021 11:11,17/05/2021 11:24,795,Most days,Most months,25,Female,-99,"Postgraduate degree (MSc, MA, MPhil)",25,2,Against,Against
31,1658859566893,26/07/2022 18:19:26,1658859566897,2,26/07/2022 20:19:26,93981,5,task-ig1e,NA,23317937,6842851,NA,complete,NA,62e02f5d2b43428f29e80b76,computer,Desktop or Laptop,Windows 10,Chrome 103.0.0.0,1366x768,1366x657,NA,ITT Ratings,3,against,3,NA,ACCEPT,NA,NA,NA,NA,NA,NA,NA,NA,batch3hes,batch3hes,56,29,1,Screen 1,continueButton,response_rating_scale_likert_active,6830.399999976158,NA,NA,Somewhat Disagree,1,0,1,0,NA,NA,NA,NA,1,statements,in case employers say you have to be vaccinated to work,1,17/05/2021 11:19,17/05/2021 11:26,432,Once or twice a year,Most months,37,Female,-99,A levels,29,2,Against,For
32,1658859569531,26/07/2022 18:19:29,1658859569533,2,26/07/2022 20:19:29,93981,5,task-ig1e,NA,23317937,6842851,NA,complete,NA,62e02f5d2b43428f29e80b76,computer,Desktop or Laptop,Windows 10,Chrome 103.0.0.0,1366x768,1366x657,NA,ITT Ratings,3,against,3,NA,ACCEPT,NA,NA,NA,NA,NA,NA,NA,NA,batch3hes,batch3hes,42,30,1,Screen 1,continueButton,response_rating_scale_likert_active,2605.5,NA,NA,Somewhat Disagree,1,0,1,0,NA,NA,NA,NA,1,statements,Safer for the population,1,17/05/2021 11:17,17/05/2021 11:25,451,Never,Never,28,Female,-99,A levels,27,3,Against,Against
33,1658859573698,26/07/2022 18:19:33,1658859573701,2,26/07/2022 20:19:33,93981,5,task-ig1e,NA,23317937,6842851,NA,complete,NA,62e02f5d2b43428f29e80b76,computer,Desktop or Laptop,Windows 10,Chrome 103.0.0.0,1366x768,1366x657,NA,ITT Ratings,3,against,3,NA,ACCEPT,NA,NA,NA,NA,NA,NA,NA,NA,batch3hes,batch3hes,8,31,1,Screen 1,continueButton,response_rating_scale_likert_active,4132.699999928474,NA,NA,Strongly Disagree,1,0,1,0,NA,NA,NA,NA,1,statements,I have to because my employer insists on it,1,17/05/2021 11:09,17/05/2021 11:22,779,Most months,Most months,45,Female,-99,GCSEs,21,2,Against,For
34,1658859580188,26/07/2022 18:19:40,1658859580197,2,26/07/2022 20:19:40,93981,5,task-ig1e,NA,23317937,6842851,NA,complete,NA,62e02f5d2b43428f29e80b76,computer,Desktop or Laptop,Windows 10,Chrome 103.0.0.0,1366x768,1366x657,NA,ITT Ratings,3,against,3,NA,ACCEPT,NA,NA,NA,NA,NA,NA,NA,NA,batch3hes,batch3hes,58,32,1,Screen 1,continueButton,response_rating_scale_likert_active,6466.200000047684,NA,NA,Strongly Agree,1,0,1,0,NA,NA,NA,NA,1,statements,"I do not want the side effects associated with the virus, such as blood clots, to effect me",1,17/05/2021 11:19,17/05/2021 11:28,553,Most months,Most months,48,Female,-99,A levels,30,1,Against,Against
35,1658859587801,26/07/2022 18:19:47,1658859587778,2,26/07/2022 20:19:47,93981,5,task-ig1e,NA,23317937,6842851,NA,complete,NA,62e02f5d2b43428f29e80b76,computer,Desktop or Laptop,Windows 10,Chrome 103.0.0.0,1366x768,1366x657,NA,ITT Ratings,3,against,3,NA,ACCEPT,NA,NA,NA,NA,NA,NA,NA,NA,batch3hes,batch3hes,50,33,1,Screen 1,continueButton,response_rating_scale_likert_active,7550.399999976158,NA,NA,Strongly Disagree,1,0,1,0,NA,NA,NA,NA,1,statements,It's a way of getting life back to normal,1,17/05/2021 11:17,17/05/2021 11:26,535,Most weeks,Most weeks,29,Female,-99,A levels,28,2,Against,For
36,1658859587867,26/07/2022 18:19:47,1658859587827,2,26/07/2022 20:19:47,93981,5,task-ig1e,NA,23317937,6842851,NA,complete,NA,62e02f5d2b43428f29e80b76,computer,Desktop or Laptop,Windows 10,Chrome 103.0.0.0,1366x768,1366x657,NA,ITT Ratings,3,against,3,NA,ACCEPT,NA,NA,NA,NA,NA,NA,NA,NA,batch3hes,batch3hes,61,34,1,Screen 1,continueButton,response_rating_scale_likert_active,13.399999976158142,NA,NA,Strongly Disagree,1,0,1,0,NA,NA,NA,NA,1,statements,It will help get rid of the presence of COVID in our world,1,17/05/2021 11:19,17/05/2021 11:28,553,Most months,Most months,48,Female,-99,A levels,30,1,Against,For
