Event.Index,UTC.Timestamp,UTC.Date,Local.Timestamp,Local.Timezone,Local.Date,Experiment.ID,Experiment.Version,Tree.Node.Key,Repeat.Key,Schedule.ID,Participant.Private.ID,Participant.Starting.Group,Participant.Status,Participant.Completion.Code,Participant.External.Session.ID,Participant.Device.Type,Participant.Device,Participant.OS,Participant.Browser,Participant.Monitor.Size,Participant.Viewport.Size,Checkpoint,Task.Name,Task.Version,branch.69an,randomiser.8vg2,quota.bqtt,quota.rycs,quota.wtfi,quota.usve,quota.zgic,quota.f3yz,quota.r9vy,quota.tfqq,quota.3dga,quota.dtj6,Spreadsheet,Spreadsheet.Name,Spreadsheet.Row,Trial.Number,Screen.Number,Screen.Name,Zone.Name,Zone.Type,Reaction.Time,Reaction.Onset,Response.Type,Response,Attempt,Correct,Incorrect,Dishonest,X.Coordinate,Y.Coordinate,Timed.Out,randomise_blocks,randomise_trials,display,Arguments,ShowProgressBar,StartDate,EndDate,Duration,discuss_1,read_1,age,gender,gender_4_TEXT,edu,ID,arg_ID,Position,Arg_Position
1,1658857111615,26/07/2022 17:38:31,1658857108215,1,26/07/2022 18:38:28,93981,5,task-lkrz,NA,23317044,6842601,NA,complete,NA,62e0266533de3203ec785a61,mobile,undefined undefined,Android 10,Chrome 103.0.5060.114,846x412,798x332,NA,ITT Ratings,3,against,2,ACCEPT,NA,NA,NA,NA,NA,NA,NA,NA,NA,batch2hes,NA,NA,BEGIN TASK,NA,NA,NA,NA,NA,NA,NA,NA,NA,0,1,0,NA,NA,NA,NA,NA,NA,NA,NA,NA,NA,NA,NA,NA,NA,NA,NA,NA,NA,NA,NA,NA
2,1658857118810,26/07/2022 17:38:38,1658857115452,1,26/07/2022 18:38:35,93981,5,task-lkrz,NA,23317044,6842601,NA,complete,NA,62e0266533de3203ec785a61,mobile,undefined undefined,Android 10,Chrome 103.0.5060.114,846x412,798x284,NA,ITT Ratings,3,against,2,ACCEPT,NA,NA,NA,NA,NA,NA,NA,NA,NA,batch2hes,batch2hes,1,1,1,Screen 1,advancementZone,continue_button,7034,NA,NA,NA,NA,0,1,0,NA,NA,NA,NA,NA,instructions,NA,NA,NA,NA,NA,NA,NA,NA,NA,NA,NA,NA,NA,NA,NA
3,1658857141072,26/07/2022 17:39:01,1658857137721,1,26/07/2022 18:38:57,93981,5,task-lkrz,NA,23317044,6842601,NA,complete,NA,62e0266533de3203ec785a61,mobile,undefined undefined,Android 10,Chrome 103.0.5060.114,412x846,412x622,NA,ITT Ratings,3,against,2,ACCEPT,NA,NA,NA,NA,NA,NA,NA,NA,NA,batch2hes,batch2hes,17,1,1,Screen 1,continueButton,response_rating_scale_likert_active,22175.70000001788,NA,NA,Strongly Agree,1,0,1,0,NA,NA,NA,NA,1,statements,That I am concerned about unknown long term affects,1,17/05/2021 11:08,17/05/2021 11:16,512,Rarely,A few times a year,39,Female,-99,A levels,13,2,Against,Against
4,1658857152914,26/07/2022 17:39:12,1658857149536,1,26/07/2022 18:39:09,93981,5,task-lkrz,NA,23317044,6842601,NA,complete,NA,62e0266533de3203ec785a61,mobile,undefined undefined,Android 10,Chrome 103.0.5060.114,412x846,412x622,NA,ITT Ratings,3,against,2,ACCEPT,NA,NA,NA,NA,NA,NA,NA,NA,NA,batch2hes,batch2hes,39,2,1,Screen 1,continueButton,response_rating_scale_likert_active,9197.30000001192,NA,NA,Agree,1,0,1,0,NA,NA,NA,NA,1,statements,I don't want to be scared of catching covid-19 anymore,1,17/05/2021 10:22,17/05/2021 11:19,3415,Most weeks,Rarely,26,Female,-99,"Postgraduate degree (MSc, MA, MPhil)",16,3,Against,For
5,1658857159595,26/07/2022 17:39:19,1658857156226,1,26/07/2022 18:39:16,93981,5,task-lkrz,NA,23317044,6842601,NA,complete,NA,62e0266533de3203ec785a61,mobile,undefined undefined,Android 10,Chrome 103.0.5060.114,846x412,798x284,NA,ITT Ratings,3,against,2,ACCEPT,NA,NA,NA,NA,NA,NA,NA,NA,NA,batch2hes,batch2hes,43,3,1,Screen 1,continueButton,response_rating_scale_likert_active,5022.0999999940395,NA,NA,Strongly Disagree,1,0,1,0,NA,NA,NA,NA,1,statements,I haven't bothered to do my research and I blindly trust everything I'm told by authorities.,1,17/05/2021 11:07,17/05/2021 11:21,851,Most days,Most days,59,Female,-99,A levels,17,1,Against,For
6,1658857181369,26/07/2022 17:39:41,1658857178020,1,26/07/2022 18:39:38,93981,5,task-lkrz,NA,23317044,6842601,NA,complete,NA,62e0266533de3203ec785a61,mobile,undefined undefined,Android 10,Chrome 103.0.5060.114,846x412,798x284,NA,ITT Ratings,3,against,2,ACCEPT,NA,NA,NA,NA,NA,NA,NA,NA,NA,batch2hes,batch2hes,55,4,1,Screen 1,continueButton,response_rating_scale_likert_active,21708.59999999404,NA,NA,Strongly Disagree,1,0,1,0,NA,NA,NA,NA,1,statements,"I'm a sheep, baaa, I follow the herd",1,17/05/2021 11:04,17/05/2021 11:22,1027,A few times a year,A few times a year,38,Male,-99,GCSEs,19,1,Against,For
7,1658857186091,26/07/2022 17:39:46,1658857182753,1,26/07/2022 18:39:42,93981,5,task-lkrz,NA,23317044,6842601,NA,complete,NA,62e0266533de3203ec785a61,mobile,undefined undefined,Android 10,Chrome 103.0.5060.114,412x846,412x622,NA,ITT Ratings,3,against,2,ACCEPT,NA,NA,NA,NA,NA,NA,NA,NA,NA,batch2hes,batch2hes,16,5,1,Screen 1,continueButton,response_rating_scale_likert_active,4603.0999999940395,NA,NA,Strongly Agree,1,0,1,0,NA,NA,NA,NA,1,statements,The vaccine has not been tested enough,1,17/05/2021 11:08,17/05/2021 11:16,512,Rarely,A few times a year,39,Female,-99,A levels,13,1,Against,Against
8,1658857196859,26/07/2022 17:39:56,1658857193503,1,26/07/2022 18:39:53,93981,5,task-lkrz,NA,23317044,6842601,NA,complete,NA,62e0266533de3203ec785a61,mobile,undefined undefined,Android 10,Chrome 103.0.5060.114,412x846,412x622,NA,ITT Ratings,3,against,2,ACCEPT,NA,NA,NA,NA,NA,NA,NA,NA,NA,batch2hes,batch2hes,52,6,1,Screen 1,continueButton,response_rating_scale_likert_active,8643.199999988079,NA,NA,Strongly Agree,1,0,1,0,NA,NA,NA,NA,1,statements,It is unsafe as it has been produced too quickly,1,17/05/2021 11:04,17/05/2021 11:22,1027,A few times a year,A few times a year,38,Male,-99,GCSEs,19,1,Against,Against
9,1658857207061,26/07/2022 17:40:07,1658857203714,1,26/07/2022 18:40:03,93981,5,task-lkrz,NA,23317044,6842601,NA,complete,NA,62e0266533de3203ec785a61,mobile,undefined undefined,Android 10,Chrome 103.0.5060.114,412x846,412x622,NA,ITT Ratings,3,against,2,ACCEPT,NA,NA,NA,NA,NA,NA,NA,NA,NA,batch2hes,batch2hes,40,7,1,Screen 1,continueButton,response_rating_scale_likert_active,7591.90000000596,NA,NA,Somewhat Agree,1,0,1,0,NA,NA,NA,NA,1,statements,It's completely unnecessary for a seasonal flu virus with a better-than 99% survival rate.,1,17/05/2021 11:07,17/05/2021 11:21,851,Most days,Most days,59,Female,-99,A levels,17,1,Against,Against
10,1658857217042,26/07/2022 17:40:17,1658857213690,1,26/07/2022 18:40:13,93981,5,task-lkrz,NA,23317044,6842601,NA,complete,NA,62e0266533de3203ec785a61,mobile,undefined undefined,Android 10,Chrome 103.0.5060.114,412x846,412x622,NA,ITT Ratings,3,against,2,ACCEPT,NA,NA,NA,NA,NA,NA,NA,NA,NA,batch2hes,batch2hes,10,8,1,Screen 1,continueButton,response_rating_scale_likert_active,7861.5,NA,NA,Agree,1,0,1,0,NA,NA,NA,NA,1,statements,There aren't enough studies to show the effectiveness oft hem,1,17/05/2021 11:01,17/05/2021 11:15,865,Rarely,Rarely,28,Female,-99,"No formal qualifications,Undergraduate degree (BSc, BA)",12,1,Against,Against
11,1658857229768,26/07/2022 17:40:29,1658857226420,1,26/07/2022 18:40:26,93981,5,task-lkrz,NA,23317044,6842601,NA,complete,NA,62e0266533de3203ec785a61,mobile,undefined undefined,Android 10,Chrome 103.0.5060.114,846x412,798x284,NA,ITT Ratings,3,against,2,ACCEPT,NA,NA,NA,NA,NA,NA,NA,NA,NA,batch2hes,batch2hes,41,9,1,Screen 1,continueButton,response_rating_scale_likert_active,11114.69999998808,NA,NA,Neither Agree nor Disagree,1,0,1,0,NA,NA,NA,NA,1,statements,It's an mRNA gened-editing overkill for a flu which is less treat to your health than an experimental injection with potential for serious adverse effect including the potential for cytokine storm.,1,17/05/2021 11:07,17/05/2021 11:21,851,Most days,Most days,59,Female,-99,A levels,17,2,Against,Against
12,1658857239832,26/07/2022 17:40:39,1658857236479,1,26/07/2022 18:40:36,93981,5,task-lkrz,NA,23317044,6842601,NA,complete,NA,62e0266533de3203ec785a61,mobile,undefined undefined,Android 10,Chrome 103.0.5060.114,846x412,798x284,NA,ITT Ratings,3,against,2,ACCEPT,NA,NA,NA,NA,NA,NA,NA,NA,NA,batch2hes,batch2hes,21,10,1,Screen 1,continueButton,response_rating_scale_likert_active,9966.69999998808,NA,NA,Strongly Disagree,1,0,1,0,NA,NA,NA,NA,1,statements,To help relieve the pressure on the NHS,1,17/05/2021 11:08,17/05/2021 11:16,512,Rarely,A few times a year,39,Female,-99,A levels,13,3,Against,For
13,1658857245611,26/07/2022 17:40:45,1658857242260,1,26/07/2022 18:40:42,93981,5,task-lkrz,NA,23317044,6842601,NA,complete,NA,62e0266533de3203ec785a61,mobile,undefined undefined,Android 10,Chrome 103.0.5060.114,412x846,412x622,NA,ITT Ratings,3,against,2,ACCEPT,NA,NA,NA,NA,NA,NA,NA,NA,NA,batch2hes,batch2hes,12,11,1,Screen 1,continueButton,response_rating_scale_likert_active,5696.200000017881,NA,NA,Strongly Agree,1,0,1,0,NA,NA,NA,NA,1,statements,i take enough supplements each day,1,17/05/2021 11:01,17/05/2021 11:15,865,Rarely,Rarely,28,Female,-99,"No formal qualifications,Undergraduate degree (BSc, BA)",12,3,Against,Against
14,1658857252275,26/07/2022 17:40:52,1658857248930,1,26/07/2022 18:40:48,93981,5,task-lkrz,NA,23317044,6842601,NA,complete,NA,62e0266533de3203ec785a61,mobile,undefined undefined,Android 10,Chrome 103.0.5060.114,412x846,412x622,NA,ITT Ratings,3,against,2,ACCEPT,NA,NA,NA,NA,NA,NA,NA,NA,NA,batch2hes,batch2hes,19,12,1,Screen 1,continueButton,response_rating_scale_likert_active,4576.300000011921,NA,NA,Strongly Agree,1,0,1,0,NA,NA,NA,NA,1,statements,I want normality to resume,1,17/05/2021 11:08,17/05/2021 11:16,512,Rarely,A few times a year,39,Female,-99,A levels,13,1,Against,For
15,1658857278667,26/07/2022 17:41:18,1658857275327,1,26/07/2022 18:41:15,93981,5,task-lkrz,NA,23317044,6842601,NA,complete,NA,62e0266533de3203ec785a61,mobile,undefined undefined,Android 10,Chrome 103.0.5060.114,412x846,412x622,NA,ITT Ratings,3,against,2,ACCEPT,NA,NA,NA,NA,NA,NA,NA,NA,NA,batch2hes,batch2hes,5,13,1,Screen 1,continueButton,response_rating_scale_likert_active,24229.19999998808,NA,NA,Agree,1,0,1,0,NA,NA,NA,NA,1,statements,Many people have reported unusual side effects/longer lasting side effects.,1,17/05/2021 10:37,17/05/2021 11:15,2299,Once or twice a year,A few times a year,24,Female,-99,A levels,11,2,Against,Against
16,1658857287917,26/07/2022 17:41:27,1658857284573,1,26/07/2022 18:41:24,93981,5,task-lkrz,NA,23317044,6842601,NA,complete,NA,62e0266533de3203ec785a61,mobile,undefined undefined,Android 10,Chrome 103.0.5060.114,846x412,798x284,NA,ITT Ratings,3,against,2,ACCEPT,NA,NA,NA,NA,NA,NA,NA,NA,NA,batch2hes,batch2hes,51,14,1,Screen 1,continueButton,response_rating_scale_likert_active,7143,NA,NA,Somewhat Disagree,1,0,1,0,NA,NA,NA,NA,1,statements,I have responsibility to have the vaccine and keep everybody safe,1,17/05/2021 11:07,17/05/2021 11:21,844,Once or twice a year,A few times a year,61,Female,-99,"Undergraduate degree (BSc, BA)",18,3,Against,For
17,1658857293628,26/07/2022 17:41:33,1658857290284,1,26/07/2022 18:41:30,93981,5,task-lkrz,NA,23317044,6842601,NA,complete,NA,62e0266533de3203ec785a61,mobile,undefined undefined,Android 10,Chrome 103.0.5060.114,412x846,412x622,NA,ITT Ratings,3,against,2,ACCEPT,NA,NA,NA,NA,NA,NA,NA,NA,NA,batch2hes,batch2hes,4,15,1,Screen 1,continueButton,response_rating_scale_likert_active,5625.399999976158,NA,NA,Agree,1,0,1,0,NA,NA,NA,NA,1,statements,The vaccine was produced too quickly and not as trust worthy.,1,17/05/2021 10:37,17/05/2021 11:15,2299,Once or twice a year,A few times a year,24,Female,-99,A levels,11,1,Against,Against
18,1658857302639,26/07/2022 17:41:42,1658857299296,1,26/07/2022 18:41:39,93981,5,task-lkrz,NA,23317044,6842601,NA,complete,NA,62e0266533de3203ec785a61,mobile,undefined undefined,Android 10,Chrome 103.0.5060.114,412x846,412x622,NA,ITT Ratings,3,against,2,ACCEPT,NA,NA,NA,NA,NA,NA,NA,NA,NA,batch2hes,batch2hes,22,16,1,Screen 1,continueButton,response_rating_scale_likert_active,6873.800000011921,NA,NA,Strongly Agree,1,0,1,0,NA,NA,NA,NA,1,statements,"There have been adverse side effects other than the blood clots mentioned in the news,news does not provide all needed information regarding the side effects of the vaccination,including infertility.",1,17/05/2021 11:11,17/05/2021 11:18,471,Most weeks,Most weeks,24,Female,-99,"Undergraduate degree (BSc, BA)",14,1,Against,Against
19,1658857311140,26/07/2022 17:41:51,1658857307789,1,26/07/2022 18:41:47,93981,5,task-lkrz,NA,23317044,6842601,NA,complete,NA,62e0266533de3203ec785a61,mobile,undefined undefined,Android 10,Chrome 103.0.5060.114,412x846,412x622,NA,ITT Ratings,3,against,2,ACCEPT,NA,NA,NA,NA,NA,NA,NA,NA,NA,batch2hes,batch2hes,23,17,1,Screen 1,continueButton,response_rating_scale_likert_active,6864.5,NA,NA,Strongly Agree,1,0,1,0,NA,NA,NA,NA,1,statements,"The vaccine does not prevent covid, nor does it stop the passing of it. So why bother? and if it works, then the people who care about catching it will have it and therefore it doesnt matter if i have",1,17/05/2021 11:11,17/05/2021 11:18,471,Most weeks,Most weeks,24,Female,-99,"Undergraduate degree (BSc, BA)",14,2,Against,Against
20,1658857318218,26/07/2022 17:41:58,1658857314868,1,26/07/2022 18:41:54,93981,5,task-lkrz,NA,23317044,6842601,NA,complete,NA,62e0266533de3203ec785a61,mobile,undefined undefined,Android 10,Chrome 103.0.5060.114,412x846,412x622,NA,ITT Ratings,3,against,2,ACCEPT,NA,NA,NA,NA,NA,NA,NA,NA,NA,batch2hes,batch2hes,13,18,1,Screen 1,continueButton,response_rating_scale_likert_active,5001,NA,NA,Neither Agree nor Disagree,1,0,1,0,NA,NA,NA,NA,1,statements,its safe to take the vaccine,1,17/05/2021 11:01,17/05/2021 11:15,865,Rarely,Rarely,28,Female,-99,"No formal qualifications,Undergraduate degree (BSc, BA)",12,1,Against,For
21,1658857323798,26/07/2022 17:42:03,1658857320451,1,26/07/2022 18:42:00,93981,5,task-lkrz,NA,23317044,6842601,NA,complete,NA,62e0266533de3203ec785a61,mobile,undefined undefined,Android 10,Chrome 103.0.5060.114,412x846,412x622,NA,ITT Ratings,3,against,2,ACCEPT,NA,NA,NA,NA,NA,NA,NA,NA,NA,batch2hes,batch2hes,33,19,1,Screen 1,continueButton,response_rating_scale_likert_active,3990.7999999821186,NA,NA,Strongly Agree,1,0,1,0,NA,NA,NA,NA,1,statements,I just want to get back to normal,1,17/05/2021 11:06,17/05/2021 11:19,791,Most months,Most months,27,Female,-99,GCSEs,15,3,Against,For
22,1658857329776,26/07/2022 17:42:09,1658857326430,1,26/07/2022 18:42:06,93981,5,task-lkrz,NA,23317044,6842601,NA,complete,NA,62e0266533de3203ec785a61,mobile,undefined undefined,Android 10,Chrome 103.0.5060.114,412x846,412x622,NA,ITT Ratings,3,against,2,ACCEPT,NA,NA,NA,NA,NA,NA,NA,NA,NA,batch2hes,batch2hes,48,20,1,Screen 1,continueButton,response_rating_scale_likert_active,4380.799999982119,NA,NA,Strongly Agree,1,0,1,0,NA,NA,NA,NA,1,statements,We don't know the  long term effects of the vaccine,1,17/05/2021 11:07,17/05/2021 11:21,844,Once or twice a year,A few times a year,61,Female,-99,"Undergraduate degree (BSc, BA)",18,3,Against,Against
23,1658857337536,26/07/2022 17:42:17,1658857334189,1,26/07/2022 18:42:14,93981,5,task-lkrz,NA,23317044,6842601,NA,complete,NA,62e0266533de3203ec785a61,mobile,undefined undefined,Android 10,Chrome 103.0.5060.114,412x846,412x622,NA,ITT Ratings,3,against,2,ACCEPT,NA,NA,NA,NA,NA,NA,NA,NA,NA,batch2hes,batch2hes,34,21,1,Screen 1,continueButton,response_rating_scale_likert_active,5637.700000017881,NA,NA,Strongly Agree,1,0,1,0,NA,NA,NA,NA,1,statements,"It hasn't been long enough to test the long tern side effects, and already the side effects are concerning",1,17/05/2021 10:22,17/05/2021 11:19,3415,Most weeks,Rarely,26,Female,-99,"Postgraduate degree (MSc, MA, MPhil)",16,1,Against,Against
24,1658857346553,26/07/2022 17:42:26,1658857343191,1,26/07/2022 18:42:23,93981,5,task-lkrz,NA,23317044,6842601,NA,complete,NA,62e0266533de3203ec785a61,mobile,undefined undefined,Android 10,Chrome 103.0.5060.114,412x846,412x622,NA,ITT Ratings,3,against,2,ACCEPT,NA,NA,NA,NA,NA,NA,NA,NA,NA,batch2hes,batch2hes,20,22,1,Screen 1,continueButton,response_rating_scale_likert_active,6361.199999988079,NA,NA,Somewhat Agree,1,0,1,0,NA,NA,NA,NA,1,statements,"We have no choice, we have to have it",1,17/05/2021 11:08,17/05/2021 11:16,512,Rarely,A few times a year,39,Female,-99,A levels,13,2,Against,For
25,1658857378454,26/07/2022 17:42:58,1658857375113,1,26/07/2022 18:42:55,93981,5,task-lkrz,NA,23317044,6842601,NA,complete,NA,62e0266533de3203ec785a61,mobile,undefined undefined,Android 10,Chrome 103.0.5060.114,412x846,412x622,NA,ITT Ratings,3,against,2,ACCEPT,NA,NA,NA,NA,NA,NA,NA,NA,NA,batch2hes,batch2hes,50,23,1,Screen 1,continueButton,response_rating_scale_likert_active,29808.30000001192,NA,NA,Somewhat Agree,1,0,1,0,NA,NA,NA,NA,1,statements,I've already had Covid and I never want to have it again,1,17/05/2021 11:07,17/05/2021 11:21,844,Once or twice a year,A few times a year,61,Female,-99,"Undergraduate degree (BSc, BA)",18,2,Against,For
26,1658857412162,26/07/2022 17:43:32,1658857408820,1,26/07/2022 18:43:28,93981,5,task-lkrz,NA,23317044,6842601,NA,complete,NA,62e0266533de3203ec785a61,mobile,undefined undefined,Android 10,Chrome 103.0.5060.114,412x846,412x622,NA,ITT Ratings,3,against,2,ACCEPT,NA,NA,NA,NA,NA,NA,NA,NA,NA,batch2hes,batch2hes,11,24,1,Screen 1,continueButton,response_rating_scale_likert_active,31605.40000000596,NA,NA,Somewhat Agree,1,0,1,0,NA,NA,NA,NA,1,statements,what bout herd immunity,1,17/05/2021 11:01,17/05/2021 11:15,865,Rarely,Rarely,28,Female,-99,"No formal qualifications,Undergraduate degree (BSc, BA)",12,2,Against,Against
27,1658857419161,26/07/2022 17:43:39,1658857415813,1,26/07/2022 18:43:35,93981,5,task-lkrz,NA,23317044,6842601,NA,complete,NA,62e0266533de3203ec785a61,mobile,undefined undefined,Android 10,Chrome 103.0.5060.114,412x846,412x622,NA,ITT Ratings,3,against,2,ACCEPT,NA,NA,NA,NA,NA,NA,NA,NA,NA,batch2hes,batch2hes,31,25,1,Screen 1,continueButton,response_rating_scale_likert_active,4832.699999988079,NA,NA,Agree,1,0,1,0,NA,NA,NA,NA,1,statements,I want to be able to work,1,17/05/2021 11:06,17/05/2021 11:19,791,Most months,Most months,27,Female,-99,GCSEs,15,1,Against,For
28,1658857432647,26/07/2022 17:43:52,1658857429301,1,26/07/2022 18:43:49,93981,5,task-lkrz,NA,23317044,6842601,NA,complete,NA,62e0266533de3203ec785a61,mobile,undefined undefined,Android 10,Chrome 103.0.5060.114,412x846,412x622,NA,ITT Ratings,3,against,2,ACCEPT,NA,NA,NA,NA,NA,NA,NA,NA,NA,batch2hes,batch2hes,37,26,1,Screen 1,continueButton,response_rating_scale_likert_active,11364.59999999404,NA,NA,Neither Agree nor Disagree,1,0,1,0,NA,NA,NA,NA,1,statements,I want to do my part and protect my loved ones,1,17/05/2021 10:22,17/05/2021 11:19,3415,Most weeks,Rarely,26,Female,-99,"Postgraduate degree (MSc, MA, MPhil)",16,1,Against,For
29,1658857468427,26/07/2022 17:44:28,1658857465082,1,26/07/2022 18:44:25,93981,5,task-lkrz,NA,23317044,6842601,NA,complete,NA,62e0266533de3203ec785a61,mobile,undefined undefined,Android 10,Chrome 103.0.5060.114,412x846,412x622,NA,ITT Ratings,3,against,2,ACCEPT,NA,NA,NA,NA,NA,NA,NA,NA,NA,batch2hes,batch2hes,29,27,1,Screen 1,continueButton,response_rating_scale_likert_active,34154.5,NA,NA,Agree,1,0,1,0,NA,NA,NA,NA,1,statements,"Vaccine is in it's infancy. Like you said, ""The long-term effects of Covid-19 are not yet known because this disease has only existed since early 2020."" That same statement can be applied to the vacci",1,17/05/2021 11:06,17/05/2021 11:19,791,Most months,Most months,27,Female,-99,GCSEs,15,2,Against,Against
30,1658857475886,26/07/2022 17:44:35,1658857472549,1,26/07/2022 18:44:32,93981,5,task-lkrz,NA,23317044,6842601,NA,complete,NA,62e0266533de3203ec785a61,mobile,undefined undefined,Android 10,Chrome 103.0.5060.114,412x846,412x622,NA,ITT Ratings,3,against,2,ACCEPT,NA,NA,NA,NA,NA,NA,NA,NA,NA,batch2hes,batch2hes,6,28,1,Screen 1,continueButton,response_rating_scale_likert_active,4842.699999988079,NA,NA,Strongly Agree,1,0,1,0,NA,NA,NA,NA,1,statements,I don't trust the government and what they are trying to put into our body/why they are being so forceful.,1,17/05/2021 10:37,17/05/2021 11:15,2299,Once or twice a year,A few times a year,24,Female,-99,A levels,11,3,Against,Against
31,1658857494047,26/07/2022 17:44:54,1658857490704,1,26/07/2022 18:44:50,93981,5,task-lkrz,NA,23317044,6842601,NA,complete,NA,62e0266533de3203ec785a61,mobile,undefined undefined,Android 10,Chrome 103.0.5060.114,412x846,412x622,NA,ITT Ratings,3,against,2,ACCEPT,NA,NA,NA,NA,NA,NA,NA,NA,NA,batch2hes,batch2hes,42,29,1,Screen 1,continueButton,response_rating_scale_likert_active,15529,NA,NA,Neither Agree nor Disagree,1,0,1,0,NA,NA,NA,NA,1,statements,"There are already reports from all over the world, of horrendous adverse consequences to the injection. In addition, thousands of scientist have warned of the unnecessary and dangerous nature.",1,17/05/2021 11:07,17/05/2021 11:21,851,Most days,Most days,59,Female,-99,A levels,17,3,Against,Against
32,1658857502581,26/07/2022 17:45:02,1658857499240,1,26/07/2022 18:44:59,93981,5,task-lkrz,NA,23317044,6842601,NA,complete,NA,62e0266533de3203ec785a61,mobile,undefined undefined,Android 10,Chrome 103.0.5060.114,412x846,412x622,NA,ITT Ratings,3,against,2,ACCEPT,NA,NA,NA,NA,NA,NA,NA,NA,NA,batch2hes,batch2hes,14,30,1,Screen 1,continueButton,response_rating_scale_likert_active,6449.5,NA,NA,Strongly Disagree,1,0,1,0,NA,NA,NA,NA,1,statements,I'm taking the vaccine so i can go out,1,17/05/2021 11:01,17/05/2021 11:15,865,Rarely,Rarely,28,Female,-99,"No formal qualifications,Undergraduate degree (BSc, BA)",12,2,Against,For
33,1658857513188,26/07/2022 17:45:13,1658857509840,1,26/07/2022 18:45:09,93981,5,task-lkrz,NA,23317044,6842601,NA,complete,NA,62e0266533de3203ec785a61,mobile,undefined undefined,Android 10,Chrome 103.0.5060.114,412x846,412x622,NA,ITT Ratings,3,against,2,ACCEPT,NA,NA,NA,NA,NA,NA,NA,NA,NA,batch2hes,batch2hes,59,31,1,Screen 1,continueButton,response_rating_scale_likert_active,8494.100000023842,NA,NA,Strongly Agree,1,0,1,0,NA,NA,NA,NA,1,statements,"the government keeps lying , Which gives me no reason whats so every to think they are telling the truth about the vaccine.",1,17/05/2021 10:52,17/05/2021 11:22,1779,Most weeks,Most days,55,Female,-99,GCSEs,20,2,Against,Against
34,1658857520308,26/07/2022 17:45:20,1658857516967,1,26/07/2022 18:45:16,93981,5,task-lkrz,NA,23317044,6842601,NA,complete,NA,62e0266533de3203ec785a61,mobile,undefined undefined,Android 10,Chrome 103.0.5060.114,412x846,412x622,NA,ITT Ratings,3,against,2,ACCEPT,NA,NA,NA,NA,NA,NA,NA,NA,NA,batch2hes,batch2hes,44,32,1,Screen 1,continueButton,response_rating_scale_likert_active,5004.0999999940395,NA,NA,Strongly Disagree,1,0,1,0,NA,NA,NA,NA,1,statements,I just want a quiet life and to do what I'm told without questioning deeper,1,17/05/2021 11:07,17/05/2021 11:21,851,Most days,Most days,59,Female,-99,A levels,17,2,Against,For
35,1658857526032,26/07/2022 17:45:26,1658857522693,1,26/07/2022 18:45:22,93981,5,task-lkrz,NA,23317044,6842601,NA,complete,NA,62e0266533de3203ec785a61,mobile,undefined undefined,Android 10,Chrome 103.0.5060.114,412x846,412x622,NA,ITT Ratings,3,against,2,ACCEPT,NA,NA,NA,NA,NA,NA,NA,NA,NA,batch2hes,batch2hes,57,33,1,Screen 1,continueButton,response_rating_scale_likert_active,4129.0999999940395,NA,NA,Strongly Agree,1,0,1,0,NA,NA,NA,NA,1,statements,I can't have my own opinion,1,17/05/2021 11:04,17/05/2021 11:22,1027,A few times a year,A few times a year,38,Male,-99,GCSEs,19,3,Against,For
36,1658857531008,26/07/2022 17:45:31,1658857527652,1,26/07/2022 18:45:27,93981,5,task-lkrz,NA,23317044,6842601,NA,complete,NA,62e0266533de3203ec785a61,mobile,undefined undefined,Android 10,Chrome 103.0.5060.114,846x412,798x284,NA,ITT Ratings,3,against,2,ACCEPT,NA,NA,NA,NA,NA,NA,NA,NA,NA,batch2hes,batch2hes,61,34,1,Screen 1,continueButton,response_rating_scale_likert_active,3292.9000000059605,NA,NA,Strongly Disagree,1,0,1,0,NA,NA,NA,NA,1,statements,I am so scared I will not feel save until I have this vaccine.,1,17/05/2021 10:52,17/05/2021 11:22,1779,Most weeks,Most days,55,Female,-99,GCSEs,20,1,Against,For
37,1658857550642,26/07/2022 17:45:50,1658857547284,1,26/07/2022 18:45:47,93981,5,task-lkrz,NA,23317044,6842601,NA,complete,NA,62e0266533de3203ec785a61,mobile,undefined undefined,Android 10,Chrome 103.0.5060.114,412x846,412x622,NA,ITT Ratings,3,against,2,ACCEPT,NA,NA,NA,NA,NA,NA,NA,NA,NA,batch2hes,batch2hes,63,35,1,Screen 1,continueButton,response_rating_scale_likert_active,19538.20000001788,NA,NA,Somewhat Agree,1,0,1,0,NA,NA,NA,NA,1,statements,I am feeling so much pressure by the government I just go for it because I am told to,1,17/05/2021 10:52,17/05/2021 11:22,1779,Most weeks,Most days,55,Female,-99,GCSEs,20,3,Against,For
38,1658857558378,26/07/2022 17:45:58,1658857555024,1,26/07/2022 18:45:55,93981,5,task-lkrz,NA,23317044,6842601,NA,complete,NA,62e0266533de3203ec785a61,mobile,undefined undefined,Android 10,Chrome 103.0.5060.114,412x846,412x622,NA,ITT Ratings,3,against,2,ACCEPT,NA,NA,NA,NA,NA,NA,NA,NA,NA,batch2hes,batch2hes,38,36,1,Screen 1,continueButton,response_rating_scale_likert_active,6110.5999999940395,NA,NA,Agree,1,0,1,0,NA,NA,NA,NA,1,statements,I want my life to go back to normal and be able to return to work/ lesure activities,1,17/05/2021 10:22,17/05/2021 11:19,3415,Most weeks,Rarely,26,Female,-99,"Postgraduate degree (MSc, MA, MPhil)",16,2,Against,For
39,1658857565523,26/07/2022 17:46:05,1658857562178,1,26/07/2022 18:46:02,93981,5,task-lkrz,NA,23317044,6842601,NA,complete,NA,62e0266533de3203ec785a61,mobile,undefined undefined,Android 10,Chrome 103.0.5060.114,846x412,798x284,NA,ITT Ratings,3,against,2,ACCEPT,NA,NA,NA,NA,NA,NA,NA,NA,NA,batch2hes,batch2hes,32,37,1,Screen 1,continueButton,response_rating_scale_likert_active,5547.5,NA,NA,Disagree,1,0,1,0,NA,NA,NA,NA,1,statements,I want to be able to go abroad,1,17/05/2021 11:06,17/05/2021 11:19,791,Most months,Most months,27,Female,-99,GCSEs,15,2,Against,For
40,1658857572337,26/07/2022 17:46:12,1658857569002,1,26/07/2022 18:46:09,93981,5,task-lkrz,NA,23317044,6842601,NA,complete,NA,62e0266533de3203ec785a61,mobile,undefined undefined,Android 10,Chrome 103.0.5060.114,412x846,412x622,NA,ITT Ratings,3,against,2,ACCEPT,NA,NA,NA,NA,NA,NA,NA,NA,NA,batch2hes,batch2hes,18,38,1,Screen 1,continueButton,response_rating_scale_likert_active,6739.300000011921,NA,NA,Strongly Agree,1,0,1,0,NA,NA,NA,NA,1,statements,That I am not confident in the immunisation,1,17/05/2021 11:08,17/05/2021 11:16,512,Rarely,A few times a year,39,Female,-99,A levels,13,3,Against,Against
41,1658857590252,26/07/2022 17:46:30,1658857586904,1,26/07/2022 18:46:26,93981,5,task-lkrz,NA,23317044,6842601,NA,complete,NA,62e0266533de3203ec785a61,mobile,undefined undefined,Android 10,Chrome 103.0.5060.114,846x412,798x284,NA,ITT Ratings,3,against,2,ACCEPT,NA,NA,NA,NA,NA,NA,NA,NA,NA,batch2hes,batch2hes,26,39,1,Screen 1,continueButton,response_rating_scale_likert_active,15804.399999976158,NA,NA,Disagree,1,0,1,0,NA,NA,NA,NA,1,statements,Everyone else has got it and they said it wasnt that bad.,1,17/05/2021 11:11,17/05/2021 11:18,471,Most weeks,Most weeks,24,Female,-99,"Undergraduate degree (BSc, BA)",14,2,Against,For
42,1658857595066,26/07/2022 17:46:35,1658857591719,1,26/07/2022 18:46:31,93981,5,task-lkrz,NA,23317044,6842601,NA,complete,NA,62e0266533de3203ec785a61,mobile,undefined undefined,Android 10,Chrome 103.0.5060.114,846x412,798x284,NA,ITT Ratings,3,against,2,ACCEPT,NA,NA,NA,NA,NA,NA,NA,NA,NA,batch2hes,batch2hes,49,40,1,Screen 1,continueButton,response_rating_scale_likert_active,4734.5,NA,NA,Neither Agree nor Disagree,1,0,1,0,NA,NA,NA,NA,1,statements,I want to feel safe while this virus is still rampant,1,17/05/2021 11:07,17/05/2021 11:21,844,Once or twice a year,A few times a year,61,Female,-99,"Undergraduate degree (BSc, BA)",18,1,Against,For
43,1658857601318,26/07/2022 17:46:41,1658857597964,1,26/07/2022 18:46:37,93981,5,task-lkrz,NA,23317044,6842601,NA,complete,NA,62e0266533de3203ec785a61,mobile,undefined undefined,Android 10,Chrome 103.0.5060.114,846x412,798x284,NA,ITT Ratings,3,against,2,ACCEPT,NA,NA,NA,NA,NA,NA,NA,NA,NA,batch2hes,batch2hes,25,41,1,Screen 1,continueButton,response_rating_scale_likert_active,6146,NA,NA,Neither Agree nor Disagree,1,0,1,0,NA,NA,NA,NA,1,statements,"I want to protect others, which is great, do so, if it works, then they wont catch it from me.",1,17/05/2021 11:11,17/05/2021 11:18,471,Most weeks,Most weeks,24,Female,-99,"Undergraduate degree (BSc, BA)",14,1,Against,For
44,1658857604482,26/07/2022 17:46:44,1658857601141,1,26/07/2022 18:46:41,93981,5,task-lkrz,NA,23317044,6842601,NA,complete,NA,62e0266533de3203ec785a61,mobile,undefined undefined,Android 10,Chrome 103.0.5060.114,846x412,798x284,NA,ITT Ratings,3,against,2,ACCEPT,NA,NA,NA,NA,NA,NA,NA,NA,NA,batch2hes,batch2hes,54,42,1,Screen 1,continueButton,response_rating_scale_likert_active,3091.9000000059605,NA,NA,Strongly Disagree,1,0,1,0,NA,NA,NA,NA,1,statements,The government has put GPS trackers in the vaccine,1,17/05/2021 11:04,17/05/2021 11:22,1027,A few times a year,A few times a year,38,Male,-99,GCSEs,19,3,Against,Against
45,1658857627931,26/07/2022 17:47:07,1658857624577,1,26/07/2022 18:47:04,93981,5,task-lkrz,NA,23317044,6842601,NA,complete,NA,62e0266533de3203ec785a61,mobile,undefined undefined,Android 10,Chrome 103.0.5060.114,846x412,798x284,NA,ITT Ratings,3,against,2,ACCEPT,NA,NA,NA,NA,NA,NA,NA,NA,NA,batch2hes,batch2hes,62,43,1,Screen 1,continueButton,response_rating_scale_likert_active,23347.20000001788,NA,NA,Strongly Disagree,1,0,1,0,NA,NA,NA,NA,1,statements,"most people seem to think if they have the vaccine they can not on holiday , yer right",1,17/05/2021 10:52,17/05/2021 11:22,1779,Most weeks,Most days,55,Female,-99,GCSEs,20,2,Against,For
46,1658857634285,26/07/2022 17:47:14,1658857630945,1,26/07/2022 18:47:10,93981,5,task-lkrz,NA,23317044,6842601,NA,complete,NA,62e0266533de3203ec785a61,mobile,undefined undefined,Android 10,Chrome 103.0.5060.114,412x846,412x622,NA,ITT Ratings,3,against,2,ACCEPT,NA,NA,NA,NA,NA,NA,NA,NA,NA,batch2hes,batch2hes,8,44,1,Screen 1,continueButton,response_rating_scale_likert_active,6272.5,NA,NA,Agree,1,0,1,0,NA,NA,NA,NA,1,statements,I want to get back to normal life and want this to be over soon and want to protect the wider public (Hurd immunity).,1,17/05/2021 10:37,17/05/2021 11:15,2299,Once or twice a year,A few times a year,24,Female,-99,A levels,11,2,Against,For
47,1658857656812,26/07/2022 17:47:36,1658857653452,1,26/07/2022 18:47:33,93981,5,task-lkrz,NA,23317044,6842601,NA,complete,NA,62e0266533de3203ec785a61,mobile,undefined undefined,Android 10,Chrome 103.0.5060.114,412x846,412x622,NA,ITT Ratings,3,against,2,ACCEPT,NA,NA,NA,NA,NA,NA,NA,NA,NA,batch2hes,batch2hes,60,45,1,Screen 1,continueButton,response_rating_scale_likert_active,19897.20000001788,NA,NA,Somewhat Agree,1,0,1,0,NA,NA,NA,NA,1,statements,"the government is so desperate to get this vaccine into people, they are using so much  covid propaganda,  people are neither scad out of there mind, or realize  something is just not right.",1,17/05/2021 10:52,17/05/2021 11:22,1779,Most weeks,Most days,55,Female,-99,GCSEs,20,3,Against,Against
48,1658857677852,26/07/2022 17:47:57,1658857674517,1,26/07/2022 18:47:54,93981,5,task-lkrz,NA,23317044,6842601,NA,complete,NA,62e0266533de3203ec785a61,mobile,undefined undefined,Android 10,Chrome 103.0.5060.114,412x846,412x622,NA,ITT Ratings,3,against,2,ACCEPT,NA,NA,NA,NA,NA,NA,NA,NA,NA,batch2hes,batch2hes,24,46,1,Screen 1,continueButton,response_rating_scale_likert_active,18923.5,NA,NA,Strongly Agree,1,0,1,0,NA,NA,NA,NA,1,statements,Can you believe I had a prolific study that was clearly designed to promote the Covid vaccine? Thats definitley put me off even more!,1,17/05/2021 11:11,17/05/2021 11:18,471,Most weeks,Most weeks,24,Female,-99,"Undergraduate degree (BSc, BA)",14,3,Against,Against
49,1658857686758,26/07/2022 17:48:06,1658857683415,1,26/07/2022 18:48:03,93981,5,task-lkrz,NA,23317044,6842601,NA,complete,NA,62e0266533de3203ec785a61,mobile,undefined undefined,Android 10,Chrome 103.0.5060.114,846x412,798x284,NA,ITT Ratings,3,against,2,ACCEPT,NA,NA,NA,NA,NA,NA,NA,NA,NA,batch2hes,batch2hes,53,47,1,Screen 1,continueButton,response_rating_scale_likert_active,6803.5,NA,NA,Neither Agree nor Disagree,1,0,1,0,NA,NA,NA,NA,1,statements,"The Astrazeneca vaccine causes blood clots, so what do the other vaccines do",1,17/05/2021 11:04,17/05/2021 11:22,1027,A few times a year,A few times a year,38,Male,-99,GCSEs,19,2,Against,Against
50,1658857689168,26/07/2022 17:48:09,1658857685829,1,26/07/2022 18:48:05,93981,5,task-lkrz,NA,23317044,6842601,NA,complete,NA,62e0266533de3203ec785a61,mobile,undefined undefined,Android 10,Chrome 103.0.5060.114,846x412,798x284,NA,ITT Ratings,3,against,2,ACCEPT,NA,NA,NA,NA,NA,NA,NA,NA,NA,batch2hes,batch2hes,28,48,1,Screen 1,continueButton,response_rating_scale_likert_active,2324.7000000178814,NA,NA,Strongly Disagree,1,0,1,0,NA,NA,NA,NA,1,statements,Covid is not that serious.,1,17/05/2021 11:06,17/05/2021 11:19,791,Most months,Most months,27,Female,-99,GCSEs,15,1,Against,Against
51,1658857709183,26/07/2022 17:48:29,1658857705838,1,26/07/2022 18:48:25,93981,5,task-lkrz,NA,23317044,6842601,NA,complete,NA,62e0266533de3203ec785a61,mobile,undefined undefined,Android 10,Chrome 103.0.5060.114,412x846,412x622,NA,ITT Ratings,3,against,2,ACCEPT,NA,NA,NA,NA,NA,NA,NA,NA,NA,batch2hes,batch2hes,58,49,1,Screen 1,continueButton,response_rating_scale_likert_active,19906.60000002384,NA,NA,Somewhat Disagree,1,0,1,0,NA,NA,NA,NA,1,statements,"I do not trust the vaccine, all the people around me are suffering reactions , which you never see with other vaccine giving out",1,17/05/2021 10:52,17/05/2021 11:22,1779,Most weeks,Most days,55,Female,-99,GCSEs,20,1,Against,Against
52,1658857716033,26/07/2022 17:48:36,1658857712693,1,26/07/2022 18:48:32,93981,5,task-lkrz,NA,23317044,6842601,NA,complete,NA,62e0266533de3203ec785a61,mobile,undefined undefined,Android 10,Chrome 103.0.5060.114,412x846,412x622,NA,ITT Ratings,3,against,2,ACCEPT,NA,NA,NA,NA,NA,NA,NA,NA,NA,batch2hes,batch2hes,27,50,1,Screen 1,continueButton,response_rating_scale_likert_active,4760.299999982119,NA,NA,Strongly Agree,1,0,1,0,NA,NA,NA,NA,1,statements,My family wanted me to.,1,17/05/2021 11:11,17/05/2021 11:18,471,Most weeks,Most weeks,24,Female,-99,"Undergraduate degree (BSc, BA)",14,3,Against,For
53,1658857734296,26/07/2022 17:48:54,1658857730953,1,26/07/2022 18:48:50,93981,5,task-lkrz,NA,23317044,6842601,NA,complete,NA,62e0266533de3203ec785a61,mobile,undefined undefined,Android 10,Chrome 103.0.5060.114,412x846,412x622,NA,ITT Ratings,3,against,2,ACCEPT,NA,NA,NA,NA,NA,NA,NA,NA,NA,batch2hes,batch2hes,45,51,1,Screen 1,continueButton,response_rating_scale_likert_active,16640.5,NA,NA,Somewhat Agree,1,0,1,0,NA,NA,NA,NA,1,statements,"I think it's the only way back to ""normal life"", while failing to understand that the more I comply, the more authoritarian the coercion and control will become.",1,17/05/2021 11:07,17/05/2021 11:21,851,Most days,Most days,59,Female,-99,A levels,17,3,Against,For
54,1658857742300,26/07/2022 17:49:02,1658857738939,1,26/07/2022 18:48:58,93981,5,task-lkrz,NA,23317044,6842601,NA,complete,NA,62e0266533de3203ec785a61,mobile,undefined undefined,Android 10,Chrome 103.0.5060.114,412x846,412x622,NA,ITT Ratings,3,against,2,ACCEPT,NA,NA,NA,NA,NA,NA,NA,NA,NA,batch2hes,batch2hes,30,52,1,Screen 1,continueButton,response_rating_scale_likert_active,6309.4000000059605,NA,NA,Strongly Agree,1,0,1,0,NA,NA,NA,NA,1,statements,"The constant changing of what works, what doesn't, who it affects, who it doesn't. They don't really know for sure, do they?",1,17/05/2021 11:06,17/05/2021 11:19,791,Most months,Most months,27,Female,-99,GCSEs,15,3,Against,Against
55,1658857750657,26/07/2022 17:49:10,1658857747307,1,26/07/2022 18:49:07,93981,5,task-lkrz,NA,23317044,6842601,NA,complete,NA,62e0266533de3203ec785a61,mobile,undefined undefined,Android 10,Chrome 103.0.5060.114,846x412,798x284,NA,ITT Ratings,3,against,2,ACCEPT,NA,NA,NA,NA,NA,NA,NA,NA,NA,batch2hes,batch2hes,9,53,1,Screen 1,continueButton,response_rating_scale_likert_active,6705.799999982119,NA,NA,Neither Agree nor Disagree,1,0,1,0,NA,NA,NA,NA,1,statements,Previous vaccines have been successful so I trust in the vaccine.,1,17/05/2021 10:37,17/05/2021 11:15,2299,Once or twice a year,A few times a year,24,Female,-99,A levels,11,3,Against,For
56,1658857763125,26/07/2022 17:49:23,1658857759768,1,26/07/2022 18:49:19,93981,5,task-lkrz,NA,23317044,6842601,NA,complete,NA,62e0266533de3203ec785a61,mobile,undefined undefined,Android 10,Chrome 103.0.5060.114,412x846,412x622,NA,ITT Ratings,3,against,2,ACCEPT,NA,NA,NA,NA,NA,NA,NA,NA,NA,batch2hes,batch2hes,2,54,1,Screen 1,continueButton,response_rating_scale_likert_active,12362.40000000596,NA,NA,Somewhat Agree,1,0,1,0,NA,NA,NA,NA,1,statements,We would like to check you are reading each argument carefully. Please select 'Somewhat Agree' for this answer,1,NA,NA,NA,NA,NA,NA,NA,NA,NA,NA,check1,NA,NA
57,1658857769658,26/07/2022 17:49:29,1658857766321,1,26/07/2022 18:49:26,93981,5,task-lkrz,NA,23317044,6842601,NA,complete,NA,62e0266533de3203ec785a61,mobile,undefined undefined,Android 10,Chrome 103.0.5060.114,412x846,412x622,NA,ITT Ratings,3,against,2,ACCEPT,NA,NA,NA,NA,NA,NA,NA,NA,NA,batch2hes,batch2hes,15,55,1,Screen 1,continueButton,response_rating_scale_likert_active,4429,NA,NA,Agree,1,0,1,0,NA,NA,NA,NA,1,statements,i need to protect other people,1,17/05/2021 11:01,17/05/2021 11:15,865,Rarely,Rarely,28,Female,-99,"No formal qualifications,Undergraduate degree (BSc, BA)",12,3,Against,For
58,1658857776795,26/07/2022 17:49:36,1658857773451,1,26/07/2022 18:49:33,93981,5,task-lkrz,NA,23317044,6842601,NA,complete,NA,62e0266533de3203ec785a61,mobile,undefined undefined,Android 10,Chrome 103.0.5060.114,412x846,412x622,NA,ITT Ratings,3,against,2,ACCEPT,NA,NA,NA,NA,NA,NA,NA,NA,NA,batch2hes,batch2hes,46,56,1,Screen 1,continueButton,response_rating_scale_likert_active,5035.799999982119,NA,NA,Strongly Agree,1,0,1,0,NA,NA,NA,NA,1,statements,I'm sensitive to vaccines and am nervous of the side effects,1,17/05/2021 11:07,17/05/2021 11:21,844,Once or twice a year,A few times a year,61,Female,-99,"Undergraduate degree (BSc, BA)",18,1,Against,Against
59,1658857800097,26/07/2022 17:50:00,1658857796744,1,26/07/2022 18:49:56,93981,5,task-lkrz,NA,23317044,6842601,NA,complete,NA,62e0266533de3203ec785a61,mobile,undefined undefined,Android 10,Chrome 103.0.5060.114,412x846,412x622,NA,ITT Ratings,3,against,2,ACCEPT,NA,NA,NA,NA,NA,NA,NA,NA,NA,batch2hes,batch2hes,35,57,1,Screen 1,continueButton,response_rating_scale_likert_active,21165.19999998808,NA,NA,Neither Agree nor Disagree,1,0,1,0,NA,NA,NA,NA,1,statements,The vaccine doesn't make you less likely to catch Covid-19 it just means you will have a less severe reaction to it. If you are not at risk then why risk the side effects.,1,17/05/2021 10:22,17/05/2021 11:19,3415,Most weeks,Rarely,26,Female,-99,"Postgraduate degree (MSc, MA, MPhil)",16,2,Against,Against
60,1658857814903,26/07/2022 17:50:14,1658857811558,1,26/07/2022 18:50:11,93981,5,task-lkrz,NA,23317044,6842601,NA,complete,NA,62e0266533de3203ec785a61,mobile,undefined undefined,Android 10,Chrome 103.0.5060.114,412x846,412x622,NA,ITT Ratings,3,against,2,ACCEPT,NA,NA,NA,NA,NA,NA,NA,NA,NA,batch2hes,batch2hes,56,58,1,Screen 1,continueButton,response_rating_scale_likert_active,13219.29999998212,NA,NA,Strongly Disagree,1,0,1,0,NA,NA,NA,NA,1,statements,I believe the scaremongering,1,17/05/2021 11:04,17/05/2021 11:22,1027,A few times a year,A few times a year,38,Male,-99,GCSEs,19,2,Against,For
61,1658857823235,26/07/2022 17:50:23,1658857819884,1,26/07/2022 18:50:19,93981,5,task-lkrz,NA,23317044,6842601,NA,complete,NA,62e0266533de3203ec785a61,mobile,undefined undefined,Android 10,Chrome 103.0.5060.114,412x846,412x622,NA,ITT Ratings,3,against,2,ACCEPT,NA,NA,NA,NA,NA,NA,NA,NA,NA,batch2hes,batch2hes,3,59,1,Screen 1,continueButton,response_rating_scale_likert_active,6221.5,NA,NA,Somewhat Disagree,1,0,1,0,NA,NA,NA,NA,1,statements,We would like to check you are reading each argument carefully. Please select 'Somewhat Disagree' for this answer,1,NA,NA,NA,NA,NA,NA,NA,NA,NA,NA,check2,NA,NA
62,1658857840383,26/07/2022 17:50:40,1658857837044,1,26/07/2022 18:50:37,93981,5,task-lkrz,NA,23317044,6842601,NA,complete,NA,62e0266533de3203ec785a61,mobile,undefined undefined,Android 10,Chrome 103.0.5060.114,412x846,412x622,NA,ITT Ratings,3,against,2,ACCEPT,NA,NA,NA,NA,NA,NA,NA,NA,NA,batch2hes,batch2hes,7,60,1,Screen 1,continueButton,response_rating_scale_likert_active,15052.79999998212,NA,NA,Neither Agree nor Disagree,1,0,1,0,NA,NA,NA,NA,1,statements,I want to reduce my risk of Covid-19 to protect myself.,1,17/05/2021 10:37,17/05/2021 11:15,2299,Once or twice a year,A few times a year,24,Female,-99,A levels,11,1,Against,For
63,1658857846814,26/07/2022 17:50:46,1658857843476,1,26/07/2022 18:50:43,93981,5,task-lkrz,NA,23317044,6842601,NA,complete,NA,62e0266533de3203ec785a61,mobile,undefined undefined,Android 10,Chrome 103.0.5060.114,412x846,412x622,NA,ITT Ratings,3,against,2,ACCEPT,NA,NA,NA,NA,NA,NA,NA,NA,NA,batch2hes,batch2hes,47,61,1,Screen 1,continueButton,response_rating_scale_likert_active,4827.0999999940395,NA,NA,Strongly Agree,1,0,1,0,NA,NA,NA,NA,1,statements,We don't know enough about this vaccine to know it's safe yet,1,17/05/2021 11:07,17/05/2021 11:21,844,Once or twice a year,A few times a year,61,Female,-99,"Undergraduate degree (BSc, BA)",18,2,Against,Against
64,1658857853399,26/07/2022 17:50:53,1658857850054,1,26/07/2022 18:50:50,93981,5,task-lkrz,NA,23317044,6842601,NA,complete,NA,62e0266533de3203ec785a61,mobile,undefined undefined,Android 10,Chrome 103.0.5060.114,412x846,412x622,NA,ITT Ratings,3,against,2,ACCEPT,NA,NA,NA,NA,NA,NA,NA,NA,NA,batch2hes,batch2hes,36,62,1,Screen 1,continueButton,response_rating_scale_likert_active,4989.4000000059605,NA,NA,Strongly Agree,1,0,1,0,NA,NA,NA,NA,1,statements,We haven't trusted the government for years why should be trust them now after they've made so many bad descisions in the pandemic.,1,17/05/2021 10:22,17/05/2021 11:19,3415,Most weeks,Rarely,26,Female,-99,"Postgraduate degree (MSc, MA, MPhil)",16,3,Against,Against
65,1658857853473,26/07/2022 17:50:53,1658857850070,1,26/07/2022 18:50:50,93981,5,task-lkrz,NA,23317044,6842601,NA,complete,NA,62e0266533de3203ec785a61,mobile,undefined undefined,Android 10,Chrome 103.0.5060.114,412x846,412x622,NA,ITT Ratings,3,against,2,ACCEPT,NA,NA,NA,NA,NA,NA,NA,NA,NA,batch2hes,NA,NA,END TASK,NA,NA,NA,NA,741856,NA,NA,NA,NA,0,1,0,NA,NA,NA,NA,NA,NA,NA,NA,NA,NA,NA,NA,NA,NA,NA,NA,NA,NA,NA,NA,NA
1,1658858386825,26/07/2022 17:59:46,1658858386758,1,26/07/2022 18:59:46,93981,5,task-lkrz,NA,23317478,6842719,NA,complete,NA,62e02b6afe3501bdfe5beca1,computer,Desktop or Laptop,Mac OS 10.14.6,Safari 14.1.2,1280x800,1280x737,NA,ITT Ratings,3,against,2,ACCEPT,NA,NA,NA,NA,NA,NA,NA,NA,NA,batch2hes,NA,NA,BEGIN TASK,NA,NA,NA,NA,NA,NA,NA,NA,NA,0,1,0,NA,NA,NA,NA,NA,NA,NA,NA,NA,NA,NA,NA,NA,NA,NA,NA,NA,NA,NA,NA,NA
2,1658858391169,26/07/2022 17:59:51,1658858391132,1,26/07/2022 18:59:51,93981,5,task-lkrz,NA,23317478,6842719,NA,complete,NA,62e02b6afe3501bdfe5beca1,computer,Desktop or Laptop,Mac OS 10.14.6,Safari 14.1.2,1280x800,1280x737,NA,ITT Ratings,3,against,2,ACCEPT,NA,NA,NA,NA,NA,NA,NA,NA,NA,batch2hes,batch2hes,1,1,1,Screen 1,advancementZone,continue_button,4328.000000000001,NA,NA,NA,NA,0,1,0,NA,NA,NA,NA,NA,instructions,NA,NA,NA,NA,NA,NA,NA,NA,NA,NA,NA,NA,NA,NA,NA
3,1658858400189,26/07/2022 18:00:00,1658858400138,1,26/07/2022 19:00:00,93981,5,task-lkrz,NA,23317478,6842719,NA,complete,NA,62e02b6afe3501bdfe5beca1,computer,Desktop or Laptop,Mac OS 10.14.6,Safari 14.1.2,1280x800,1280x737,NA,ITT Ratings,3,against,2,ACCEPT,NA,NA,NA,NA,NA,NA,NA,NA,NA,batch2hes,batch2hes,25,1,1,Screen 1,continueButton,response_rating_scale_likert_active,8987.000000000002,NA,NA,Somewhat Disagree,1,0,1,0,NA,NA,NA,NA,1,statements,"I want to protect others, which is great, do so, if it works, then they wont catch it from me.",1,17/05/2021 11:11,17/05/2021 11:18,471,Most weeks,Most weeks,24,Female,-99,"Undergraduate degree (BSc, BA)",14,1,Against,For
4,1658858403261,26/07/2022 18:00:03,1658858403236,1,26/07/2022 19:00:03,93981,5,task-lkrz,NA,23317478,6842719,NA,complete,NA,62e02b6afe3501bdfe5beca1,computer,Desktop or Laptop,Mac OS 10.14.6,Safari 14.1.2,1280x800,1280x737,NA,ITT Ratings,3,against,2,ACCEPT,NA,NA,NA,NA,NA,NA,NA,NA,NA,batch2hes,batch2hes,39,2,1,Screen 1,continueButton,response_rating_scale_likert_active,3080,NA,NA,Somewhat Agree,1,0,1,0,NA,NA,NA,NA,1,statements,I don't want to be scared of catching covid-19 anymore,1,17/05/2021 10:22,17/05/2021 11:19,3415,Most weeks,Rarely,26,Female,-99,"Postgraduate degree (MSc, MA, MPhil)",16,3,Against,For
5,1658858405007,26/07/2022 18:00:05,1658858404938,1,26/07/2022 19:00:04,93981,5,task-lkrz,NA,23317478,6842719,NA,complete,NA,62e02b6afe3501bdfe5beca1,computer,Desktop or Laptop,Mac OS 10.14.6,Safari 14.1.2,1280x800,1280x737,NA,ITT Ratings,3,against,2,ACCEPT,NA,NA,NA,NA,NA,NA,NA,NA,NA,batch2hes,batch2hes,21,3,1,Screen 1,continueButton,response_rating_scale_likert_active,1678.9999999999964,NA,NA,Neither Agree nor Disagree,1,0,1,0,NA,NA,NA,NA,1,statements,To help relieve the pressure on the NHS,1,17/05/2021 11:08,17/05/2021 11:16,512,Rarely,A few times a year,39,Female,-99,A levels,13,3,Against,For
6,1658858410067,26/07/2022 18:00:10,1658858410040,1,26/07/2022 19:00:10,93981,5,task-lkrz,NA,23317478,6842719,NA,complete,NA,62e02b6afe3501bdfe5beca1,computer,Desktop or Laptop,Mac OS 10.14.6,Safari 14.1.2,1280x800,1280x737,NA,ITT Ratings,3,against,2,ACCEPT,NA,NA,NA,NA,NA,NA,NA,NA,NA,batch2hes,batch2hes,53,4,1,Screen 1,continueButton,response_rating_scale_likert_active,5089,NA,NA,Agree,1,0,1,0,NA,NA,NA,NA,1,statements,"The Astrazeneca vaccine causes blood clots, so what do the other vaccines do",1,17/05/2021 11:04,17/05/2021 11:22,1027,A few times a year,A few times a year,38,Male,-99,GCSEs,19,2,Against,Against
7,1658858417191,26/07/2022 18:00:17,1658858416965,1,26/07/2022 19:00:16,93981,5,task-lkrz,NA,23317478,6842719,NA,complete,NA,62e02b6afe3501bdfe5beca1,computer,Desktop or Laptop,Mac OS 10.14.6,Safari 14.1.2,1280x800,1280x737,NA,ITT Ratings,3,against,2,ACCEPT,NA,NA,NA,NA,NA,NA,NA,NA,NA,batch2hes,batch2hes,35,5,1,Screen 1,continueButton,response_rating_scale_likert_active,6906,NA,NA,Somewhat Agree,1,0,1,0,NA,NA,NA,NA,1,statements,The vaccine doesn't make you less likely to catch Covid-19 it just means you will have a less severe reaction to it. If you are not at risk then why risk the side effects.,1,17/05/2021 10:22,17/05/2021 11:19,3415,Most weeks,Rarely,26,Female,-99,"Postgraduate degree (MSc, MA, MPhil)",16,2,Against,Against
8,1658858425132,26/07/2022 18:00:25,1658858425097,1,26/07/2022 19:00:25,93981,5,task-lkrz,NA,23317478,6842719,NA,complete,NA,62e02b6afe3501bdfe5beca1,computer,Desktop or Laptop,Mac OS 10.14.6,Safari 14.1.2,1280x800,1280x737,NA,ITT Ratings,3,against,2,ACCEPT,NA,NA,NA,NA,NA,NA,NA,NA,NA,batch2hes,batch2hes,24,6,1,Screen 1,continueButton,response_rating_scale_likert_active,8119,NA,NA,Disagree,1,0,1,0,NA,NA,NA,NA,1,statements,Can you believe I had a prolific study that was clearly designed to promote the Covid vaccine? Thats definitley put me off even more!,1,17/05/2021 11:11,17/05/2021 11:18,471,Most weeks,Most weeks,24,Female,-99,"Undergraduate degree (BSc, BA)",14,3,Against,Against
9,1658858427464,26/07/2022 18:00:27,1658858427394,1,26/07/2022 19:00:27,93981,5,task-lkrz,NA,23317478,6842719,NA,complete,NA,62e02b6afe3501bdfe5beca1,computer,Desktop or Laptop,Mac OS 10.14.6,Safari 14.1.2,1280x800,1280x737,NA,ITT Ratings,3,against,2,ACCEPT,NA,NA,NA,NA,NA,NA,NA,NA,NA,batch2hes,batch2hes,54,7,1,Screen 1,continueButton,response_rating_scale_likert_active,2282,NA,NA,Disagree,1,0,1,0,NA,NA,NA,NA,1,statements,The government has put GPS trackers in the vaccine,1,17/05/2021 11:04,17/05/2021 11:22,1027,A few times a year,A few times a year,38,Male,-99,GCSEs,19,3,Against,Against
10,1658858429967,26/07/2022 18:00:29,1658858429925,1,26/07/2022 19:00:29,93981,5,task-lkrz,NA,23317478,6842719,NA,complete,NA,62e02b6afe3501bdfe5beca1,computer,Desktop or Laptop,Mac OS 10.14.6,Safari 14.1.2,1280x800,1280x737,NA,ITT Ratings,3,against,2,ACCEPT,NA,NA,NA,NA,NA,NA,NA,NA,NA,batch2hes,batch2hes,4,8,1,Screen 1,continueButton,response_rating_scale_likert_active,2517,NA,NA,Somewhat Agree,1,0,1,0,NA,NA,NA,NA,1,statements,The vaccine was produced too quickly and not as trust worthy.,1,17/05/2021 10:37,17/05/2021 11:15,2299,Once or twice a year,A few times a year,24,Female,-99,A levels,11,1,Against,Against
11,1658858431700,26/07/2022 18:00:31,1658858431670,1,26/07/2022 19:00:31,93981,5,task-lkrz,NA,23317478,6842719,NA,complete,NA,62e02b6afe3501bdfe5beca1,computer,Desktop or Laptop,Mac OS 10.14.6,Safari 14.1.2,1280x800,1280x737,NA,ITT Ratings,3,against,2,ACCEPT,NA,NA,NA,NA,NA,NA,NA,NA,NA,batch2hes,batch2hes,48,9,1,Screen 1,continueButton,response_rating_scale_likert_active,1727,NA,NA,Agree,1,0,1,0,NA,NA,NA,NA,1,statements,We don't know the  long term effects of the vaccine,1,17/05/2021 11:07,17/05/2021 11:21,844,Once or twice a year,A few times a year,61,Female,-99,"Undergraduate degree (BSc, BA)",18,3,Against,Against
12,1658858433816,26/07/2022 18:00:33,1658858433781,1,26/07/2022 19:00:33,93981,5,task-lkrz,NA,23317478,6842719,NA,complete,NA,62e02b6afe3501bdfe5beca1,computer,Desktop or Laptop,Mac OS 10.14.6,Safari 14.1.2,1280x800,1280x737,NA,ITT Ratings,3,against,2,ACCEPT,NA,NA,NA,NA,NA,NA,NA,NA,NA,batch2hes,batch2hes,19,10,1,Screen 1,continueButton,response_rating_scale_likert_active,2094,NA,NA,Neither Agree nor Disagree,1,0,1,0,NA,NA,NA,NA,1,statements,I want normality to resume,1,17/05/2021 11:08,17/05/2021 11:16,512,Rarely,A few times a year,39,Female,-99,A levels,13,1,Against,For
13,1658858435592,26/07/2022 18:00:35,1658858435546,1,26/07/2022 19:00:35,93981,5,task-lkrz,NA,23317478,6842719,NA,complete,NA,62e02b6afe3501bdfe5beca1,computer,Desktop or Laptop,Mac OS 10.14.6,Safari 14.1.2,1280x800,1280x737,NA,ITT Ratings,3,against,2,ACCEPT,NA,NA,NA,NA,NA,NA,NA,NA,NA,batch2hes,batch2hes,13,11,1,Screen 1,continueButton,response_rating_scale_likert_active,1753,NA,NA,Somewhat Disagree,1,0,1,0,NA,NA,NA,NA,1,statements,its safe to take the vaccine,1,17/05/2021 11:01,17/05/2021 11:15,865,Rarely,Rarely,28,Female,-99,"No formal qualifications,Undergraduate degree (BSc, BA)",12,1,Against,For
14,1658858438700,26/07/2022 18:00:38,1658858438674,1,26/07/2022 19:00:38,93981,5,task-lkrz,NA,23317478,6842719,NA,complete,NA,62e02b6afe3501bdfe5beca1,computer,Desktop or Laptop,Mac OS 10.14.6,Safari 14.1.2,1280x800,1280x737,NA,ITT Ratings,3,against,2,ACCEPT,NA,NA,NA,NA,NA,NA,NA,NA,NA,batch2hes,batch2hes,50,12,1,Screen 1,continueButton,response_rating_scale_likert_active,3115,NA,NA,Neither Agree nor Disagree,1,0,1,0,NA,NA,NA,NA,1,statements,I've already had Covid and I never want to have it again,1,17/05/2021 11:07,17/05/2021 11:21,844,Once or twice a year,A few times a year,61,Female,-99,"Undergraduate degree (BSc, BA)",18,2,Against,For
15,1658858441638,26/07/2022 18:00:41,1658858441601,1,26/07/2022 19:00:41,93981,5,task-lkrz,NA,23317478,6842719,NA,complete,NA,62e02b6afe3501bdfe5beca1,computer,Desktop or Laptop,Mac OS 10.14.6,Safari 14.1.2,1280x800,1280x737,NA,ITT Ratings,3,against,2,ACCEPT,NA,NA,NA,NA,NA,NA,NA,NA,NA,batch2hes,batch2hes,58,13,1,Screen 1,continueButton,response_rating_scale_likert_active,2913,NA,NA,Agree,1,0,1,0,NA,NA,NA,NA,1,statements,"I do not trust the vaccine, all the people around me are suffering reactions , which you never see with other vaccine giving out",1,17/05/2021 10:52,17/05/2021 11:22,1779,Most weeks,Most days,55,Female,-99,GCSEs,20,1,Against,Against
16,1658858445766,26/07/2022 18:00:45,1658858445731,1,26/07/2022 19:00:45,93981,5,task-lkrz,NA,23317478,6842719,NA,complete,NA,62e02b6afe3501bdfe5beca1,computer,Desktop or Laptop,Mac OS 10.14.6,Safari 14.1.2,1280x800,1280x737,NA,ITT Ratings,3,against,2,ACCEPT,NA,NA,NA,NA,NA,NA,NA,NA,NA,batch2hes,batch2hes,60,14,1,Screen 1,continueButton,response_rating_scale_likert_active,4115,NA,NA,Somewhat Agree,1,0,1,0,NA,NA,NA,NA,1,statements,"the government is so desperate to get this vaccine into people, they are using so much  covid propaganda,  people are neither scad out of there mind, or realize  something is just not right.",1,17/05/2021 10:52,17/05/2021 11:22,1779,Most weeks,Most days,55,Female,-99,GCSEs,20,3,Against,Against
17,1658858447870,26/07/2022 18:00:47,1658858447839,1,26/07/2022 19:00:47,93981,5,task-lkrz,NA,23317478,6842719,NA,complete,NA,62e02b6afe3501bdfe5beca1,computer,Desktop or Laptop,Mac OS 10.14.6,Safari 14.1.2,1280x800,1280x737,NA,ITT Ratings,3,against,2,ACCEPT,NA,NA,NA,NA,NA,NA,NA,NA,NA,batch2hes,batch2hes,59,15,1,Screen 1,continueButton,response_rating_scale_likert_active,2094,NA,NA,Somewhat Agree,1,0,1,0,NA,NA,NA,NA,1,statements,"the government keeps lying , Which gives me no reason whats so every to think they are telling the truth about the vaccine.",1,17/05/2021 10:52,17/05/2021 11:22,1779,Most weeks,Most days,55,Female,-99,GCSEs,20,2,Against,Against
18,1658858450114,26/07/2022 18:00:50,1658858450085,1,26/07/2022 19:00:50,93981,5,task-lkrz,NA,23317478,6842719,NA,complete,NA,62e02b6afe3501bdfe5beca1,computer,Desktop or Laptop,Mac OS 10.14.6,Safari 14.1.2,1280x800,1280x737,NA,ITT Ratings,3,against,2,ACCEPT,NA,NA,NA,NA,NA,NA,NA,NA,NA,batch2hes,batch2hes,57,16,1,Screen 1,continueButton,response_rating_scale_likert_active,2232.9999999999927,NA,NA,Somewhat Agree,1,0,1,0,NA,NA,NA,NA,1,statements,I can't have my own opinion,1,17/05/2021 11:04,17/05/2021 11:22,1027,A few times a year,A few times a year,38,Male,-99,GCSEs,19,3,Against,For
19,1658858453268,26/07/2022 18:00:53,1658858453243,1,26/07/2022 19:00:53,93981,5,task-lkrz,NA,23317478,6842719,NA,complete,NA,62e02b6afe3501bdfe5beca1,computer,Desktop or Laptop,Mac OS 10.14.6,Safari 14.1.2,1280x800,1280x737,NA,ITT Ratings,3,against,2,ACCEPT,NA,NA,NA,NA,NA,NA,NA,NA,NA,batch2hes,batch2hes,61,17,1,Screen 1,continueButton,response_rating_scale_likert_active,3143.9999999999927,NA,NA,Somewhat Disagree,1,0,1,0,NA,NA,NA,NA,1,statements,I am so scared I will not feel save until I have this vaccine.,1,17/05/2021 10:52,17/05/2021 11:22,1779,Most weeks,Most days,55,Female,-99,GCSEs,20,1,Against,For
20,1658858455245,26/07/2022 18:00:55,1658858455222,1,26/07/2022 19:00:55,93981,5,task-lkrz,NA,23317478,6842719,NA,complete,NA,62e02b6afe3501bdfe5beca1,computer,Desktop or Laptop,Mac OS 10.14.6,Safari 14.1.2,1280x800,1280x737,NA,ITT Ratings,3,against,2,ACCEPT,NA,NA,NA,NA,NA,NA,NA,NA,NA,batch2hes,batch2hes,27,18,1,Screen 1,continueButton,response_rating_scale_likert_active,1965,NA,NA,Somewhat Agree,1,0,1,0,NA,NA,NA,NA,1,statements,My family wanted me to.,1,17/05/2021 11:11,17/05/2021 11:18,471,Most weeks,Most weeks,24,Female,-99,"Undergraduate degree (BSc, BA)",14,3,Against,For
21,1658858456773,26/07/2022 18:00:56,1658858456747,1,26/07/2022 19:00:56,93981,5,task-lkrz,NA,23317478,6842719,NA,complete,NA,62e02b6afe3501bdfe5beca1,computer,Desktop or Laptop,Mac OS 10.14.6,Safari 14.1.2,1280x800,1280x737,NA,ITT Ratings,3,against,2,ACCEPT,NA,NA,NA,NA,NA,NA,NA,NA,NA,batch2hes,batch2hes,20,19,1,Screen 1,continueButton,response_rating_scale_likert_active,1512.0000000000146,NA,NA,Neither Agree nor Disagree,1,0,1,0,NA,NA,NA,NA,1,statements,"We have no choice, we have to have it",1,17/05/2021 11:08,17/05/2021 11:16,512,Rarely,A few times a year,39,Female,-99,A levels,13,2,Against,For
22,1658858462375,26/07/2022 18:01:02,1658858462339,1,26/07/2022 19:01:02,93981,5,task-lkrz,NA,23317478,6842719,NA,complete,NA,62e02b6afe3501bdfe5beca1,computer,Desktop or Laptop,Mac OS 10.14.6,Safari 14.1.2,1280x800,1280x737,NA,ITT Ratings,3,against,2,ACCEPT,NA,NA,NA,NA,NA,NA,NA,NA,NA,batch2hes,batch2hes,29,20,1,Screen 1,continueButton,response_rating_scale_likert_active,5578,NA,NA,Agree,1,0,1,0,NA,NA,NA,NA,1,statements,"Vaccine is in it's infancy. Like you said, ""The long-term effects of Covid-19 are not yet known because this disease has only existed since early 2020."" That same statement can be applied to the vacci",1,17/05/2021 11:06,17/05/2021 11:19,791,Most months,Most months,27,Female,-99,GCSEs,15,2,Against,Against
23,1658858464776,26/07/2022 18:01:04,1658858464739,1,26/07/2022 19:01:04,93981,5,task-lkrz,NA,23317478,6842719,NA,complete,NA,62e02b6afe3501bdfe5beca1,computer,Desktop or Laptop,Mac OS 10.14.6,Safari 14.1.2,1280x800,1280x737,NA,ITT Ratings,3,against,2,ACCEPT,NA,NA,NA,NA,NA,NA,NA,NA,NA,batch2hes,batch2hes,3,21,1,Screen 1,continueButton,response_rating_scale_likert_active,2387,NA,NA,Somewhat Disagree,1,0,1,0,NA,NA,NA,NA,1,statements,We would like to check you are reading each argument carefully. Please select 'Somewhat Disagree' for this answer,1,NA,NA,NA,NA,NA,NA,NA,NA,NA,NA,check2,NA,NA
24,1658858469592,26/07/2022 18:01:09,1658858469550,1,26/07/2022 19:01:09,93981,5,task-lkrz,NA,23317478,6842719,NA,complete,NA,62e02b6afe3501bdfe5beca1,computer,Desktop or Laptop,Mac OS 10.14.6,Safari 14.1.2,1280x800,1280x737,NA,ITT Ratings,3,against,2,ACCEPT,NA,NA,NA,NA,NA,NA,NA,NA,NA,batch2hes,batch2hes,33,22,1,Screen 1,continueButton,response_rating_scale_likert_active,4796,NA,NA,Neither Agree nor Disagree,1,0,1,0,NA,NA,NA,NA,1,statements,I just want to get back to normal,1,17/05/2021 11:06,17/05/2021 11:19,791,Most months,Most months,27,Female,-99,GCSEs,15,3,Against,For
25,1658858471801,26/07/2022 18:01:11,1658858471758,1,26/07/2022 19:01:11,93981,5,task-lkrz,NA,23317478,6842719,NA,complete,NA,62e02b6afe3501bdfe5beca1,computer,Desktop or Laptop,Mac OS 10.14.6,Safari 14.1.2,1280x800,1280x737,NA,ITT Ratings,3,against,2,ACCEPT,NA,NA,NA,NA,NA,NA,NA,NA,NA,batch2hes,batch2hes,49,23,1,Screen 1,continueButton,response_rating_scale_likert_active,2192,NA,NA,Somewhat Disagree,1,0,1,0,NA,NA,NA,NA,1,statements,I want to feel safe while this virus is still rampant,1,17/05/2021 11:07,17/05/2021 11:21,844,Once or twice a year,A few times a year,61,Female,-99,"Undergraduate degree (BSc, BA)",18,1,Against,For
26,1658858474031,26/07/2022 18:01:14,1658858473837,1,26/07/2022 19:01:13,93981,5,task-lkrz,NA,23317478,6842719,NA,complete,NA,62e02b6afe3501bdfe5beca1,computer,Desktop or Laptop,Mac OS 10.14.6,Safari 14.1.2,1280x800,1280x737,NA,ITT Ratings,3,against,2,ACCEPT,NA,NA,NA,NA,NA,NA,NA,NA,NA,batch2hes,batch2hes,46,24,1,Screen 1,continueButton,response_rating_scale_likert_active,2067,NA,NA,Neither Agree nor Disagree,1,0,1,0,NA,NA,NA,NA,1,statements,I'm sensitive to vaccines and am nervous of the side effects,1,17/05/2021 11:07,17/05/2021 11:21,844,Once or twice a year,A few times a year,61,Female,-99,"Undergraduate degree (BSc, BA)",18,1,Against,Against
27,1658858476448,26/07/2022 18:01:16,1658858476408,1,26/07/2022 19:01:16,93981,5,task-lkrz,NA,23317478,6842719,NA,complete,NA,62e02b6afe3501bdfe5beca1,computer,Desktop or Laptop,Mac OS 10.14.6,Safari 14.1.2,1280x800,1280x737,NA,ITT Ratings,3,against,2,ACCEPT,NA,NA,NA,NA,NA,NA,NA,NA,NA,batch2hes,batch2hes,6,25,1,Screen 1,continueButton,response_rating_scale_likert_active,2558.0000000000146,NA,NA,Somewhat Agree,1,0,1,0,NA,NA,NA,NA,1,statements,I don't trust the government and what they are trying to put into our body/why they are being so forceful.,1,17/05/2021 10:37,17/05/2021 11:15,2299,Once or twice a year,A few times a year,24,Female,-99,A levels,11,3,Against,Against
28,1658858480013,26/07/2022 18:01:20,1658858479966,1,26/07/2022 19:01:19,93981,5,task-lkrz,NA,23317478,6842719,NA,complete,NA,62e02b6afe3501bdfe5beca1,computer,Desktop or Laptop,Mac OS 10.14.6,Safari 14.1.2,1280x800,1280x737,NA,ITT Ratings,3,against,2,ACCEPT,NA,NA,NA,NA,NA,NA,NA,NA,NA,batch2hes,batch2hes,22,26,1,Screen 1,continueButton,response_rating_scale_likert_active,3545,NA,NA,Agree,1,0,1,0,NA,NA,NA,NA,1,statements,"There have been adverse side effects other than the blood clots mentioned in the news,news does not provide all needed information regarding the side effects of the vaccination,including infertility.",1,17/05/2021 11:11,17/05/2021 11:18,471,Most weeks,Most weeks,24,Female,-99,"Undergraduate degree (BSc, BA)",14,1,Against,Against
29,1658858487001,26/07/2022 18:01:27,1658858486965,1,26/07/2022 19:01:26,93981,5,task-lkrz,NA,23317478,6842719,NA,complete,NA,62e02b6afe3501bdfe5beca1,computer,Desktop or Laptop,Mac OS 10.14.6,Safari 14.1.2,1280x800,1280x737,NA,ITT Ratings,3,against,2,ACCEPT,NA,NA,NA,NA,NA,NA,NA,NA,NA,batch2hes,batch2hes,62,27,1,Screen 1,continueButton,response_rating_scale_likert_active,6986,NA,NA,Neither Agree nor Disagree,1,0,1,0,NA,NA,NA,NA,1,statements,"most people seem to think if they have the vaccine they can not on holiday , yer right",1,17/05/2021 10:52,17/05/2021 11:22,1779,Most weeks,Most days,55,Female,-99,GCSEs,20,2,Against,For
30,1658858490761,26/07/2022 18:01:30,1658858490692,1,26/07/2022 19:01:30,93981,5,task-lkrz,NA,23317478,6842719,NA,complete,NA,62e02b6afe3501bdfe5beca1,computer,Desktop or Laptop,Mac OS 10.14.6,Safari 14.1.2,1280x800,1280x737,NA,ITT Ratings,3,against,2,ACCEPT,NA,NA,NA,NA,NA,NA,NA,NA,NA,batch2hes,batch2hes,30,28,1,Screen 1,continueButton,response_rating_scale_likert_active,3713,NA,NA,Somewhat Agree,1,0,1,0,NA,NA,NA,NA,1,statements,"The constant changing of what works, what doesn't, who it affects, who it doesn't. They don't really know for sure, do they?",1,17/05/2021 11:06,17/05/2021 11:19,791,Most months,Most months,27,Female,-99,GCSEs,15,3,Against,Against
31,1658858493595,26/07/2022 18:01:33,1658858493530,1,26/07/2022 19:01:33,93981,5,task-lkrz,NA,23317478,6842719,NA,complete,NA,62e02b6afe3501bdfe5beca1,computer,Desktop or Laptop,Mac OS 10.14.6,Safari 14.1.2,1280x800,1280x737,NA,ITT Ratings,3,against,2,ACCEPT,NA,NA,NA,NA,NA,NA,NA,NA,NA,batch2hes,batch2hes,28,29,1,Screen 1,continueButton,response_rating_scale_likert_active,2823,NA,NA,Neither Agree nor Disagree,1,0,1,0,NA,NA,NA,NA,1,statements,Covid is not that serious.,1,17/05/2021 11:06,17/05/2021 11:19,791,Most months,Most months,27,Female,-99,GCSEs,15,1,Against,Against
32,1658858498805,26/07/2022 18:01:38,1658858498767,1,26/07/2022 19:01:38,93981,5,task-lkrz,NA,23317478,6842719,NA,complete,NA,62e02b6afe3501bdfe5beca1,computer,Desktop or Laptop,Mac OS 10.14.6,Safari 14.1.2,1280x800,1280x737,NA,ITT Ratings,3,against,2,ACCEPT,NA,NA,NA,NA,NA,NA,NA,NA,NA,batch2hes,batch2hes,63,30,1,Screen 1,continueButton,response_rating_scale_likert_active,5225.000000000015,NA,NA,Neither Agree nor Disagree,1,0,1,0,NA,NA,NA,NA,1,statements,I am feeling so much pressure by the government I just go for it because I am told to,1,17/05/2021 10:52,17/05/2021 11:22,1779,Most weeks,Most days,55,Female,-99,GCSEs,20,3,Against,For
33,1658858501713,26/07/2022 18:01:41,1658858501675,1,26/07/2022 19:01:41,93981,5,task-lkrz,NA,23317478,6842719,NA,complete,NA,62e02b6afe3501bdfe5beca1,computer,Desktop or Laptop,Mac OS 10.14.6,Safari 14.1.2,1280x800,1280x737,NA,ITT Ratings,3,against,2,ACCEPT,NA,NA,NA,NA,NA,NA,NA,NA,NA,batch2hes,batch2hes,43,31,1,Screen 1,continueButton,response_rating_scale_likert_active,2896.9999999999854,NA,NA,Somewhat Disagree,1,0,1,0,NA,NA,NA,NA,1,statements,I haven't bothered to do my research and I blindly trust everything I'm told by authorities.,1,17/05/2021 11:07,17/05/2021 11:21,851,Most days,Most days,59,Female,-99,A levels,17,1,Against,For
34,1658858507525,26/07/2022 18:01:47,1658858507441,1,26/07/2022 19:01:47,93981,5,task-lkrz,NA,23317478,6842719,NA,complete,NA,62e02b6afe3501bdfe5beca1,computer,Desktop or Laptop,Mac OS 10.14.6,Safari 14.1.2,1280x800,1280x737,NA,ITT Ratings,3,against,2,ACCEPT,NA,NA,NA,NA,NA,NA,NA,NA,NA,batch2hes,batch2hes,41,32,1,Screen 1,continueButton,response_rating_scale_likert_active,5752,NA,NA,Neither Agree nor Disagree,1,0,1,0,NA,NA,NA,NA,1,statements,It's an mRNA gened-editing overkill for a flu which is less treat to your health than an experimental injection with potential for serious adverse effect including the potential for cytokine storm.,1,17/05/2021 11:07,17/05/2021 11:21,851,Most days,Most days,59,Female,-99,A levels,17,2,Against,Against
35,1658858510725,26/07/2022 18:01:50,1658858510684,1,26/07/2022 19:01:50,93981,5,task-lkrz,NA,23317478,6842719,NA,complete,NA,62e02b6afe3501bdfe5beca1,computer,Desktop or Laptop,Mac OS 10.14.6,Safari 14.1.2,1280x800,1280x737,NA,ITT Ratings,3,against,2,ACCEPT,NA,NA,NA,NA,NA,NA,NA,NA,NA,batch2hes,batch2hes,17,33,1,Screen 1,continueButton,response_rating_scale_likert_active,3230,NA,NA,Strongly Agree,1,0,1,0,NA,NA,NA,NA,1,statements,That I am concerned about unknown long term affects,1,17/05/2021 11:08,17/05/2021 11:16,512,Rarely,A few times a year,39,Female,-99,A levels,13,2,Against,Against
36,1658858513836,26/07/2022 18:01:53,1658858513801,1,26/07/2022 19:01:53,93981,5,task-lkrz,NA,23317478,6842719,NA,complete,NA,62e02b6afe3501bdfe5beca1,computer,Desktop or Laptop,Mac OS 10.14.6,Safari 14.1.2,1280x800,1280x737,NA,ITT Ratings,3,against,2,ACCEPT,NA,NA,NA,NA,NA,NA,NA,NA,NA,batch2hes,batch2hes,40,34,1,Screen 1,continueButton,response_rating_scale_likert_active,3104,NA,NA,Agree,1,0,1,0,NA,NA,NA,NA,1,statements,It's completely unnecessary for a seasonal flu virus with a better-than 99% survival rate.,1,17/05/2021 11:07,17/05/2021 11:21,851,Most days,Most days,59,Female,-99,A levels,17,1,Against,Against
37,1658858515528,26/07/2022 18:01:55,1658858515486,1,26/07/2022 19:01:55,93981,5,task-lkrz,NA,23317478,6842719,NA,complete,NA,62e02b6afe3501bdfe5beca1,computer,Desktop or Laptop,Mac OS 10.14.6,Safari 14.1.2,1280x800,1280x737,NA,ITT Ratings,3,against,2,ACCEPT,NA,NA,NA,NA,NA,NA,NA,NA,NA,batch2hes,batch2hes,31,35,1,Screen 1,continueButton,response_rating_scale_likert_active,1672,NA,NA,Neither Agree nor Disagree,1,0,1,0,NA,NA,NA,NA,1,statements,I want to be able to work,1,17/05/2021 11:06,17/05/2021 11:19,791,Most months,Most months,27,Female,-99,GCSEs,15,1,Against,For
38,1658858519447,26/07/2022 18:01:59,1658858519358,1,26/07/2022 19:01:59,93981,5,task-lkrz,NA,23317478,6842719,NA,complete,NA,62e02b6afe3501bdfe5beca1,computer,Desktop or Laptop,Mac OS 10.14.6,Safari 14.1.2,1280x800,1280x737,NA,ITT Ratings,3,against,2,ACCEPT,NA,NA,NA,NA,NA,NA,NA,NA,NA,batch2hes,batch2hes,42,36,1,Screen 1,continueButton,response_rating_scale_likert_active,3859.0000000000146,NA,NA,Agree,1,0,1,0,NA,NA,NA,NA,1,statements,"There are already reports from all over the world, of horrendous adverse consequences to the injection. In addition, thousands of scientist have warned of the unnecessary and dangerous nature.",1,17/05/2021 11:07,17/05/2021 11:21,851,Most days,Most days,59,Female,-99,A levels,17,3,Against,Against
39,1658858521076,26/07/2022 18:02:01,1658858521016,1,26/07/2022 19:02:01,93981,5,task-lkrz,NA,23317478,6842719,NA,complete,NA,62e02b6afe3501bdfe5beca1,computer,Desktop or Laptop,Mac OS 10.14.6,Safari 14.1.2,1280x800,1280x737,NA,ITT Ratings,3,against,2,ACCEPT,NA,NA,NA,NA,NA,NA,NA,NA,NA,batch2hes,batch2hes,10,37,1,Screen 1,continueButton,response_rating_scale_likert_active,1645.999999999971,NA,NA,Agree,1,0,1,0,NA,NA,NA,NA,1,statements,There aren't enough studies to show the effectiveness oft hem,1,17/05/2021 11:01,17/05/2021 11:15,865,Rarely,Rarely,28,Female,-99,"No formal qualifications,Undergraduate degree (BSc, BA)",12,1,Against,Against
40,1658858526215,26/07/2022 18:02:06,1658858526174,1,26/07/2022 19:02:06,93981,5,task-lkrz,NA,23317478,6842719,NA,complete,NA,62e02b6afe3501bdfe5beca1,computer,Desktop or Laptop,Mac OS 10.14.6,Safari 14.1.2,1280x800,1280x737,NA,ITT Ratings,3,against,2,ACCEPT,NA,NA,NA,NA,NA,NA,NA,NA,NA,batch2hes,batch2hes,47,38,1,Screen 1,continueButton,response_rating_scale_likert_active,5146,NA,NA,Agree,1,0,1,0,NA,NA,NA,NA,1,statements,We don't know enough about this vaccine to know it's safe yet,1,17/05/2021 11:07,17/05/2021 11:21,844,Once or twice a year,A few times a year,61,Female,-99,"Undergraduate degree (BSc, BA)",18,2,Against,Against
41,1658858528309,26/07/2022 18:02:08,1658858528270,1,26/07/2022 19:02:08,93981,5,task-lkrz,NA,23317478,6842719,NA,complete,NA,62e02b6afe3501bdfe5beca1,computer,Desktop or Laptop,Mac OS 10.14.6,Safari 14.1.2,1280x800,1280x737,NA,ITT Ratings,3,against,2,ACCEPT,NA,NA,NA,NA,NA,NA,NA,NA,NA,batch2hes,batch2hes,51,39,1,Screen 1,continueButton,response_rating_scale_likert_active,2084,NA,NA,Somewhat Disagree,1,0,1,0,NA,NA,NA,NA,1,statements,I have responsibility to have the vaccine and keep everybody safe,1,17/05/2021 11:07,17/05/2021 11:21,844,Once or twice a year,A few times a year,61,Female,-99,"Undergraduate degree (BSc, BA)",18,3,Against,For
42,1658858530034,26/07/2022 18:02:10,1658858530009,1,26/07/2022 19:02:10,93981,5,task-lkrz,NA,23317478,6842719,NA,complete,NA,62e02b6afe3501bdfe5beca1,computer,Desktop or Laptop,Mac OS 10.14.6,Safari 14.1.2,1280x800,1280x737,NA,ITT Ratings,3,against,2,ACCEPT,NA,NA,NA,NA,NA,NA,NA,NA,NA,batch2hes,batch2hes,32,40,1,Screen 1,continueButton,response_rating_scale_likert_active,1726,NA,NA,Somewhat Agree,1,0,1,0,NA,NA,NA,NA,1,statements,I want to be able to go abroad,1,17/05/2021 11:06,17/05/2021 11:19,791,Most months,Most months,27,Female,-99,GCSEs,15,2,Against,For
43,1658858531646,26/07/2022 18:02:11,1658858531622,1,26/07/2022 19:02:11,93981,5,task-lkrz,NA,23317478,6842719,NA,complete,NA,62e02b6afe3501bdfe5beca1,computer,Desktop or Laptop,Mac OS 10.14.6,Safari 14.1.2,1280x800,1280x737,NA,ITT Ratings,3,against,2,ACCEPT,NA,NA,NA,NA,NA,NA,NA,NA,NA,batch2hes,batch2hes,7,41,1,Screen 1,continueButton,response_rating_scale_likert_active,1600,NA,NA,Neither Agree nor Disagree,1,0,1,0,NA,NA,NA,NA,1,statements,I want to reduce my risk of Covid-19 to protect myself.,1,17/05/2021 10:37,17/05/2021 11:15,2299,Once or twice a year,A few times a year,24,Female,-99,A levels,11,1,Against,For
44,1658858534229,26/07/2022 18:02:14,1658858534194,1,26/07/2022 19:02:14,93981,5,task-lkrz,NA,23317478,6842719,NA,complete,NA,62e02b6afe3501bdfe5beca1,computer,Desktop or Laptop,Mac OS 10.14.6,Safari 14.1.2,1280x800,1280x737,NA,ITT Ratings,3,against,2,ACCEPT,NA,NA,NA,NA,NA,NA,NA,NA,NA,batch2hes,batch2hes,26,42,1,Screen 1,continueButton,response_rating_scale_likert_active,2560,NA,NA,Neither Agree nor Disagree,1,0,1,0,NA,NA,NA,NA,1,statements,Everyone else has got it and they said it wasnt that bad.,1,17/05/2021 11:11,17/05/2021 11:18,471,Most weeks,Most weeks,24,Female,-99,"Undergraduate degree (BSc, BA)",14,2,Against,For
45,1658858536865,26/07/2022 18:02:16,1658858536828,1,26/07/2022 19:02:16,93981,5,task-lkrz,NA,23317478,6842719,NA,complete,NA,62e02b6afe3501bdfe5beca1,computer,Desktop or Laptop,Mac OS 10.14.6,Safari 14.1.2,1280x800,1280x737,NA,ITT Ratings,3,against,2,ACCEPT,NA,NA,NA,NA,NA,NA,NA,NA,NA,batch2hes,batch2hes,34,43,1,Screen 1,continueButton,response_rating_scale_likert_active,2623.000000000029,NA,NA,Somewhat Agree,1,0,1,0,NA,NA,NA,NA,1,statements,"It hasn't been long enough to test the long tern side effects, and already the side effects are concerning",1,17/05/2021 10:22,17/05/2021 11:19,3415,Most weeks,Rarely,26,Female,-99,"Postgraduate degree (MSc, MA, MPhil)",16,1,Against,Against
46,1658858544119,26/07/2022 18:02:24,1658858544075,1,26/07/2022 19:02:24,93981,5,task-lkrz,NA,23317478,6842719,NA,complete,NA,62e02b6afe3501bdfe5beca1,computer,Desktop or Laptop,Mac OS 10.14.6,Safari 14.1.2,1280x800,1280x737,NA,ITT Ratings,3,against,2,ACCEPT,NA,NA,NA,NA,NA,NA,NA,NA,NA,batch2hes,batch2hes,45,44,1,Screen 1,continueButton,response_rating_scale_likert_active,7233.999999999971,NA,NA,Somewhat Agree,1,0,1,0,NA,NA,NA,NA,1,statements,"I think it's the only way back to ""normal life"", while failing to understand that the more I comply, the more authoritarian the coercion and control will become.",1,17/05/2021 11:07,17/05/2021 11:21,851,Most days,Most days,59,Female,-99,A levels,17,3,Against,For
47,1658858546523,26/07/2022 18:02:26,1658858546484,1,26/07/2022 19:02:26,93981,5,task-lkrz,NA,23317478,6842719,NA,complete,NA,62e02b6afe3501bdfe5beca1,computer,Desktop or Laptop,Mac OS 10.14.6,Safari 14.1.2,1280x800,1280x737,NA,ITT Ratings,3,against,2,ACCEPT,NA,NA,NA,NA,NA,NA,NA,NA,NA,batch2hes,batch2hes,8,45,1,Screen 1,continueButton,response_rating_scale_likert_active,2395.000000000029,NA,NA,Somewhat Disagree,1,0,1,0,NA,NA,NA,NA,1,statements,I want to get back to normal life and want this to be over soon and want to protect the wider public (Hurd immunity).,1,17/05/2021 10:37,17/05/2021 11:15,2299,Once or twice a year,A few times a year,24,Female,-99,A levels,11,2,Against,For
48,1658858549638,26/07/2022 18:02:29,1658858549609,1,26/07/2022 19:02:29,93981,5,task-lkrz,NA,23317478,6842719,NA,complete,NA,62e02b6afe3501bdfe5beca1,computer,Desktop or Laptop,Mac OS 10.14.6,Safari 14.1.2,1280x800,1280x737,NA,ITT Ratings,3,against,2,ACCEPT,NA,NA,NA,NA,NA,NA,NA,NA,NA,batch2hes,batch2hes,23,46,1,Screen 1,continueButton,response_rating_scale_likert_active,3113,NA,NA,Agree,1,0,1,0,NA,NA,NA,NA,1,statements,"The vaccine does not prevent covid, nor does it stop the passing of it. So why bother? and if it works, then the people who care about catching it will have it and therefore it doesnt matter if i have",1,17/05/2021 11:11,17/05/2021 11:18,471,Most weeks,Most weeks,24,Female,-99,"Undergraduate degree (BSc, BA)",14,2,Against,Against
49,1658858551805,26/07/2022 18:02:31,1658858551772,1,26/07/2022 19:02:31,93981,5,task-lkrz,NA,23317478,6842719,NA,complete,NA,62e02b6afe3501bdfe5beca1,computer,Desktop or Laptop,Mac OS 10.14.6,Safari 14.1.2,1280x800,1280x737,NA,ITT Ratings,3,against,2,ACCEPT,NA,NA,NA,NA,NA,NA,NA,NA,NA,batch2hes,batch2hes,56,47,1,Screen 1,continueButton,response_rating_scale_likert_active,2150,NA,NA,Somewhat Disagree,1,0,1,0,NA,NA,NA,NA,1,statements,I believe the scaremongering,1,17/05/2021 11:04,17/05/2021 11:22,1027,A few times a year,A few times a year,38,Male,-99,GCSEs,19,2,Against,For
50,1658858554090,26/07/2022 18:02:34,1658858554066,1,26/07/2022 19:02:34,93981,5,task-lkrz,NA,23317478,6842719,NA,complete,NA,62e02b6afe3501bdfe5beca1,computer,Desktop or Laptop,Mac OS 10.14.6,Safari 14.1.2,1280x800,1280x737,NA,ITT Ratings,3,against,2,ACCEPT,NA,NA,NA,NA,NA,NA,NA,NA,NA,batch2hes,batch2hes,44,48,1,Screen 1,continueButton,response_rating_scale_likert_active,2280,NA,NA,Somewhat Disagree,1,0,1,0,NA,NA,NA,NA,1,statements,I just want a quiet life and to do what I'm told without questioning deeper,1,17/05/2021 11:07,17/05/2021 11:21,851,Most days,Most days,59,Female,-99,A levels,17,2,Against,For
51,1658858556678,26/07/2022 18:02:36,1658858556654,1,26/07/2022 19:02:36,93981,5,task-lkrz,NA,23317478,6842719,NA,complete,NA,62e02b6afe3501bdfe5beca1,computer,Desktop or Laptop,Mac OS 10.14.6,Safari 14.1.2,1280x800,1280x737,NA,ITT Ratings,3,against,2,ACCEPT,NA,NA,NA,NA,NA,NA,NA,NA,NA,batch2hes,batch2hes,9,49,1,Screen 1,continueButton,response_rating_scale_likert_active,2573.999999999971,NA,NA,Neither Agree nor Disagree,1,0,1,0,NA,NA,NA,NA,1,statements,Previous vaccines have been successful so I trust in the vaccine.,1,17/05/2021 10:37,17/05/2021 11:15,2299,Once or twice a year,A few times a year,24,Female,-99,A levels,11,3,Against,For
52,1658858558922,26/07/2022 18:02:38,1658858558882,1,26/07/2022 19:02:38,93981,5,task-lkrz,NA,23317478,6842719,NA,complete,NA,62e02b6afe3501bdfe5beca1,computer,Desktop or Laptop,Mac OS 10.14.6,Safari 14.1.2,1280x800,1280x737,NA,ITT Ratings,3,against,2,ACCEPT,NA,NA,NA,NA,NA,NA,NA,NA,NA,batch2hes,batch2hes,5,50,1,Screen 1,continueButton,response_rating_scale_likert_active,2216,NA,NA,Somewhat Agree,1,0,1,0,NA,NA,NA,NA,1,statements,Many people have reported unusual side effects/longer lasting side effects.,1,17/05/2021 10:37,17/05/2021 11:15,2299,Once or twice a year,A few times a year,24,Female,-99,A levels,11,2,Against,Against
53,1658858560728,26/07/2022 18:02:40,1658858560687,1,26/07/2022 19:02:40,93981,5,task-lkrz,NA,23317478,6842719,NA,complete,NA,62e02b6afe3501bdfe5beca1,computer,Desktop or Laptop,Mac OS 10.14.6,Safari 14.1.2,1280x800,1280x737,NA,ITT Ratings,3,against,2,ACCEPT,NA,NA,NA,NA,NA,NA,NA,NA,NA,batch2hes,batch2hes,16,51,1,Screen 1,continueButton,response_rating_scale_likert_active,1791,NA,NA,Somewhat Agree,1,0,1,0,NA,NA,NA,NA,1,statements,The vaccine has not been tested enough,1,17/05/2021 11:08,17/05/2021 11:16,512,Rarely,A few times a year,39,Female,-99,A levels,13,1,Against,Against
54,1658858562543,26/07/2022 18:02:42,1658858562504,1,26/07/2022 19:02:42,93981,5,task-lkrz,NA,23317478,6842719,NA,complete,NA,62e02b6afe3501bdfe5beca1,computer,Desktop or Laptop,Mac OS 10.14.6,Safari 14.1.2,1280x800,1280x737,NA,ITT Ratings,3,against,2,ACCEPT,NA,NA,NA,NA,NA,NA,NA,NA,NA,batch2hes,batch2hes,2,52,1,Screen 1,continueButton,response_rating_scale_likert_active,1802,NA,NA,Somewhat Agree,1,0,1,0,NA,NA,NA,NA,1,statements,We would like to check you are reading each argument carefully. Please select 'Somewhat Agree' for this answer,1,NA,NA,NA,NA,NA,NA,NA,NA,NA,NA,check1,NA,NA
55,1658858565370,26/07/2022 18:02:45,1658858565328,1,26/07/2022 19:02:45,93981,5,task-lkrz,NA,23317478,6842719,NA,complete,NA,62e02b6afe3501bdfe5beca1,computer,Desktop or Laptop,Mac OS 10.14.6,Safari 14.1.2,1280x800,1280x737,NA,ITT Ratings,3,against,2,ACCEPT,NA,NA,NA,NA,NA,NA,NA,NA,NA,batch2hes,batch2hes,36,53,1,Screen 1,continueButton,response_rating_scale_likert_active,2812.999999999971,NA,NA,Agree,1,0,1,0,NA,NA,NA,NA,1,statements,We haven't trusted the government for years why should be trust them now after they've made so many bad descisions in the pandemic.,1,17/05/2021 10:22,17/05/2021 11:19,3415,Most weeks,Rarely,26,Female,-99,"Postgraduate degree (MSc, MA, MPhil)",16,3,Against,Against
56,1658858567390,26/07/2022 18:02:47,1658858567362,1,26/07/2022 19:02:47,93981,5,task-lkrz,NA,23317478,6842719,NA,complete,NA,62e02b6afe3501bdfe5beca1,computer,Desktop or Laptop,Mac OS 10.14.6,Safari 14.1.2,1280x800,1280x737,NA,ITT Ratings,3,against,2,ACCEPT,NA,NA,NA,NA,NA,NA,NA,NA,NA,batch2hes,batch2hes,11,54,1,Screen 1,continueButton,response_rating_scale_likert_active,2022,NA,NA,Neither Agree nor Disagree,1,0,1,0,NA,NA,NA,NA,1,statements,what bout herd immunity,1,17/05/2021 11:01,17/05/2021 11:15,865,Rarely,Rarely,28,Female,-99,"No formal qualifications,Undergraduate degree (BSc, BA)",12,2,Against,Against
57,1658858569796,26/07/2022 18:02:49,1658858569767,1,26/07/2022 19:02:49,93981,5,task-lkrz,NA,23317478,6842719,NA,complete,NA,62e02b6afe3501bdfe5beca1,computer,Desktop or Laptop,Mac OS 10.14.6,Safari 14.1.2,1280x800,1280x737,NA,ITT Ratings,3,against,2,ACCEPT,NA,NA,NA,NA,NA,NA,NA,NA,NA,batch2hes,batch2hes,38,55,1,Screen 1,continueButton,response_rating_scale_likert_active,2390,NA,NA,Neither Agree nor Disagree,1,0,1,0,NA,NA,NA,NA,1,statements,I want my life to go back to normal and be able to return to work/ lesure activities,1,17/05/2021 10:22,17/05/2021 11:19,3415,Most weeks,Rarely,26,Female,-99,"Postgraduate degree (MSc, MA, MPhil)",16,2,Against,For
58,1658858572070,26/07/2022 18:02:52,1658858572029,1,26/07/2022 19:02:52,93981,5,task-lkrz,NA,23317478,6842719,NA,complete,NA,62e02b6afe3501bdfe5beca1,computer,Desktop or Laptop,Mac OS 10.14.6,Safari 14.1.2,1280x800,1280x737,NA,ITT Ratings,3,against,2,ACCEPT,NA,NA,NA,NA,NA,NA,NA,NA,NA,batch2hes,batch2hes,37,56,1,Screen 1,continueButton,response_rating_scale_likert_active,2246,NA,NA,Somewhat Disagree,1,0,1,0,NA,NA,NA,NA,1,statements,I want to do my part and protect my loved ones,1,17/05/2021 10:22,17/05/2021 11:19,3415,Most weeks,Rarely,26,Female,-99,"Postgraduate degree (MSc, MA, MPhil)",16,1,Against,For
59,1658858573979,26/07/2022 18:02:53,1658858573950,1,26/07/2022 19:02:53,93981,5,task-lkrz,NA,23317478,6842719,NA,complete,NA,62e02b6afe3501bdfe5beca1,computer,Desktop or Laptop,Mac OS 10.14.6,Safari 14.1.2,1280x800,1280x737,NA,ITT Ratings,3,against,2,ACCEPT,NA,NA,NA,NA,NA,NA,NA,NA,NA,batch2hes,batch2hes,18,57,1,Screen 1,continueButton,response_rating_scale_likert_active,1908,NA,NA,Somewhat Agree,1,0,1,0,NA,NA,NA,NA,1,statements,That I am not confident in the immunisation,1,17/05/2021 11:08,17/05/2021 11:16,512,Rarely,A few times a year,39,Female,-99,A levels,13,3,Against,Against
60,1658858575759,26/07/2022 18:02:55,1658858575718,1,26/07/2022 19:02:55,93981,5,task-lkrz,NA,23317478,6842719,NA,complete,NA,62e02b6afe3501bdfe5beca1,computer,Desktop or Laptop,Mac OS 10.14.6,Safari 14.1.2,1280x800,1280x737,NA,ITT Ratings,3,against,2,ACCEPT,NA,NA,NA,NA,NA,NA,NA,NA,NA,batch2hes,batch2hes,15,58,1,Screen 1,continueButton,response_rating_scale_likert_active,1757,NA,NA,Somewhat Disagree,1,0,1,0,NA,NA,NA,NA,1,statements,i need to protect other people,1,17/05/2021 11:01,17/05/2021 11:15,865,Rarely,Rarely,28,Female,-99,"No formal qualifications,Undergraduate degree (BSc, BA)",12,3,Against,For
61,1658858577340,26/07/2022 18:02:57,1658858577299,1,26/07/2022 19:02:57,93981,5,task-lkrz,NA,23317478,6842719,NA,complete,NA,62e02b6afe3501bdfe5beca1,computer,Desktop or Laptop,Mac OS 10.14.6,Safari 14.1.2,1280x800,1280x737,NA,ITT Ratings,3,against,2,ACCEPT,NA,NA,NA,NA,NA,NA,NA,NA,NA,batch2hes,batch2hes,14,59,1,Screen 1,continueButton,response_rating_scale_likert_active,1569,NA,NA,Neither Agree nor Disagree,1,0,1,0,NA,NA,NA,NA,1,statements,I'm taking the vaccine so i can go out,1,17/05/2021 11:01,17/05/2021 11:15,865,Rarely,Rarely,28,Female,-99,"No formal qualifications,Undergraduate degree (BSc, BA)",12,2,Against,For
62,1658858579614,26/07/2022 18:02:59,1658858579570,1,26/07/2022 19:02:59,93981,5,task-lkrz,NA,23317478,6842719,NA,complete,NA,62e02b6afe3501bdfe5beca1,computer,Desktop or Laptop,Mac OS 10.14.6,Safari 14.1.2,1280x800,1280x737,NA,ITT Ratings,3,against,2,ACCEPT,NA,NA,NA,NA,NA,NA,NA,NA,NA,batch2hes,batch2hes,55,60,1,Screen 1,continueButton,response_rating_scale_likert_active,2259,NA,NA,Somewhat Disagree,1,0,1,0,NA,NA,NA,NA,1,statements,"I'm a sheep, baaa, I follow the herd",1,17/05/2021 11:04,17/05/2021 11:22,1027,A few times a year,A few times a year,38,Male,-99,GCSEs,19,1,Against,For
63,1658858581740,26/07/2022 18:03:01,1658858581704,1,26/07/2022 19:03:01,93981,5,task-lkrz,NA,23317478,6842719,NA,complete,NA,62e02b6afe3501bdfe5beca1,computer,Desktop or Laptop,Mac OS 10.14.6,Safari 14.1.2,1280x800,1280x737,NA,ITT Ratings,3,against,2,ACCEPT,NA,NA,NA,NA,NA,NA,NA,NA,NA,batch2hes,batch2hes,52,61,1,Screen 1,continueButton,response_rating_scale_likert_active,2125,NA,NA,Somewhat Agree,1,0,1,0,NA,NA,NA,NA,1,statements,It is unsafe as it has been produced too quickly,1,17/05/2021 11:04,17/05/2021 11:22,1027,A few times a year,A few times a year,38,Male,-99,GCSEs,19,1,Against,Against
64,1658858583651,26/07/2022 18:03:03,1658858583617,1,26/07/2022 19:03:03,93981,5,task-lkrz,NA,23317478,6842719,NA,complete,NA,62e02b6afe3501bdfe5beca1,computer,Desktop or Laptop,Mac OS 10.14.6,Safari 14.1.2,1280x800,1280x737,NA,ITT Ratings,3,against,2,ACCEPT,NA,NA,NA,NA,NA,NA,NA,NA,NA,batch2hes,batch2hes,12,62,1,Screen 1,continueButton,response_rating_scale_likert_active,1903,NA,NA,Neither Agree nor Disagree,1,0,1,0,NA,NA,NA,NA,1,statements,i take enough supplements each day,1,17/05/2021 11:01,17/05/2021 11:15,865,Rarely,Rarely,28,Female,-99,"No formal qualifications,Undergraduate degree (BSc, BA)",12,3,Against,Against
65,1658858583713,26/07/2022 18:03:03,1658858583619,1,26/07/2022 19:03:03,93981,5,task-lkrz,NA,23317478,6842719,NA,complete,NA,62e02b6afe3501bdfe5beca1,computer,Desktop or Laptop,Mac OS 10.14.6,Safari 14.1.2,1280x800,1280x737,NA,ITT Ratings,3,against,2,ACCEPT,NA,NA,NA,NA,NA,NA,NA,NA,NA,batch2hes,NA,NA,END TASK,NA,NA,NA,NA,196861,NA,NA,NA,NA,0,1,0,NA,NA,NA,NA,NA,NA,NA,NA,NA,NA,NA,NA,NA,NA,NA,NA,NA,NA,NA,NA,NA
1,1658859240584,26/07/2022 18:14:00,1658859236370,1,26/07/2022 19:13:56,93981,5,task-lkrz,NA,23317880,6842836,NA,complete,NA,62e02ecedfa5c3df8d23e17b,computer,Desktop or Laptop,Windows 10,Firefox 102.0,1408x792,1408x652,NA,ITT Ratings,3,against,2,ACCEPT,NA,NA,NA,NA,NA,NA,NA,NA,NA,batch2hes,NA,NA,BEGIN TASK,NA,NA,NA,NA,NA,NA,NA,NA,NA,0,1,0,NA,NA,NA,NA,NA,NA,NA,NA,NA,NA,NA,NA,NA,NA,NA,NA,NA,NA,NA,NA,NA
2,1658859250461,26/07/2022 18:14:10,1658859246291,1,26/07/2022 19:14:06,93981,5,task-lkrz,NA,23317880,6842836,NA,complete,NA,62e02ecedfa5c3df8d23e17b,computer,Desktop or Laptop,Windows 10,Firefox 102.0,1408x792,1408x652,NA,ITT Ratings,3,against,2,ACCEPT,NA,NA,NA,NA,NA,NA,NA,NA,NA,batch2hes,batch2hes,1,1,1,Screen 1,advancementZone,continue_button,9711,NA,NA,NA,NA,0,1,0,NA,NA,NA,NA,NA,instructions,NA,NA,NA,NA,NA,NA,NA,NA,NA,NA,NA,NA,NA,NA,NA
3,1658859263162,26/07/2022 18:14:23,1658859258986,1,26/07/2022 19:14:18,93981,5,task-lkrz,NA,23317880,6842836,NA,complete,NA,62e02ecedfa5c3df8d23e17b,computer,Desktop or Laptop,Windows 10,Firefox 102.0,1408x792,1408x652,NA,ITT Ratings,3,against,2,ACCEPT,NA,NA,NA,NA,NA,NA,NA,NA,NA,batch2hes,batch2hes,5,1,1,Screen 1,continueButton,response_rating_scale_likert_active,12610,NA,NA,Somewhat Agree,1,0,1,0,NA,NA,NA,NA,1,statements,Many people have reported unusual side effects/longer lasting side effects.,1,17/05/2021 10:37,17/05/2021 11:15,2299,Once or twice a year,A few times a year,24,Female,-99,A levels,11,2,Against,Against
4,1658859271356,26/07/2022 18:14:31,1658859267193,1,26/07/2022 19:14:27,93981,5,task-lkrz,NA,23317880,6842836,NA,complete,NA,62e02ecedfa5c3df8d23e17b,computer,Desktop or Laptop,Windows 10,Firefox 102.0,1408x792,1408x652,NA,ITT Ratings,3,against,2,ACCEPT,NA,NA,NA,NA,NA,NA,NA,NA,NA,batch2hes,batch2hes,27,2,1,Screen 1,continueButton,response_rating_scale_likert_active,8161,NA,NA,Strongly Disagree,1,0,1,0,NA,NA,NA,NA,1,statements,My family wanted me to.,1,17/05/2021 11:11,17/05/2021 11:18,471,Most weeks,Most weeks,24,Female,-99,"Undergraduate degree (BSc, BA)",14,3,Against,For
5,1658859275080,26/07/2022 18:14:35,1658859270914,1,26/07/2022 19:14:30,93981,5,task-lkrz,NA,23317880,6842836,NA,complete,NA,62e02ecedfa5c3df8d23e17b,computer,Desktop or Laptop,Windows 10,Firefox 102.0,1408x792,1408x652,NA,ITT Ratings,3,against,2,ACCEPT,NA,NA,NA,NA,NA,NA,NA,NA,NA,batch2hes,batch2hes,33,3,1,Screen 1,continueButton,response_rating_scale_likert_active,3673,NA,NA,Strongly Disagree,1,0,1,0,NA,NA,NA,NA,1,statements,I just want to get back to normal,1,17/05/2021 11:06,17/05/2021 11:19,791,Most months,Most months,27,Female,-99,GCSEs,15,3,Against,For
6,1658859279744,26/07/2022 18:14:39,1658859275554,1,26/07/2022 19:14:35,93981,5,task-lkrz,NA,23317880,6842836,NA,complete,NA,62e02ecedfa5c3df8d23e17b,computer,Desktop or Laptop,Windows 10,Firefox 102.0,1408x792,1408x652,NA,ITT Ratings,3,against,2,ACCEPT,NA,NA,NA,NA,NA,NA,NA,NA,NA,batch2hes,batch2hes,59,4,1,Screen 1,continueButton,response_rating_scale_likert_active,4600,NA,NA,Strongly Agree,1,0,1,0,NA,NA,NA,NA,1,statements,"the government keeps lying , Which gives me no reason whats so every to think they are telling the truth about the vaccine.",1,17/05/2021 10:52,17/05/2021 11:22,1779,Most weeks,Most days,55,Female,-99,GCSEs,20,2,Against,Against
7,1658859292780,26/07/2022 18:14:52,1658859288619,1,26/07/2022 19:14:48,93981,5,task-lkrz,NA,23317880,6842836,NA,complete,NA,62e02ecedfa5c3df8d23e17b,computer,Desktop or Laptop,Windows 10,Firefox 102.0,1408x792,1408x652,NA,ITT Ratings,3,against,2,ACCEPT,NA,NA,NA,NA,NA,NA,NA,NA,NA,batch2hes,batch2hes,29,5,1,Screen 1,continueButton,response_rating_scale_likert_active,13028,NA,NA,Strongly Agree,1,0,1,0,NA,NA,NA,NA,1,statements,"Vaccine is in it's infancy. Like you said, ""The long-term effects of Covid-19 are not yet known because this disease has only existed since early 2020."" That same statement can be applied to the vacci",1,17/05/2021 11:06,17/05/2021 11:19,791,Most months,Most months,27,Female,-99,GCSEs,15,2,Against,Against
8,1658859295684,26/07/2022 18:14:55,1658859291523,1,26/07/2022 19:14:51,93981,5,task-lkrz,NA,23317880,6842836,NA,complete,NA,62e02ecedfa5c3df8d23e17b,computer,Desktop or Laptop,Windows 10,Firefox 102.0,1408x792,1408x652,NA,ITT Ratings,3,against,2,ACCEPT,NA,NA,NA,NA,NA,NA,NA,NA,NA,batch2hes,batch2hes,31,6,1,Screen 1,continueButton,response_rating_scale_likert_active,2864,NA,NA,Strongly Disagree,1,0,1,0,NA,NA,NA,NA,1,statements,I want to be able to work,1,17/05/2021 11:06,17/05/2021 11:19,791,Most months,Most months,27,Female,-99,GCSEs,15,1,Against,For
9,1658859299944,26/07/2022 18:14:59,1658859295769,1,26/07/2022 19:14:55,93981,5,task-lkrz,NA,23317880,6842836,NA,complete,NA,62e02ecedfa5c3df8d23e17b,computer,Desktop or Laptop,Windows 10,Firefox 102.0,1408x792,1408x652,NA,ITT Ratings,3,against,2,ACCEPT,NA,NA,NA,NA,NA,NA,NA,NA,NA,batch2hes,batch2hes,43,7,1,Screen 1,continueButton,response_rating_scale_likert_active,4165,NA,NA,Strongly Disagree,1,0,1,0,NA,NA,NA,NA,1,statements,I haven't bothered to do my research and I blindly trust everything I'm told by authorities.,1,17/05/2021 11:07,17/05/2021 11:21,851,Most days,Most days,59,Female,-99,A levels,17,1,Against,For
10,1658859306213,26/07/2022 18:15:06,1658859302057,1,26/07/2022 19:15:02,93981,5,task-lkrz,NA,23317880,6842836,NA,complete,NA,62e02ecedfa5c3df8d23e17b,computer,Desktop or Laptop,Windows 10,Firefox 102.0,1408x792,1408x652,NA,ITT Ratings,3,against,2,ACCEPT,NA,NA,NA,NA,NA,NA,NA,NA,NA,batch2hes,batch2hes,46,8,1,Screen 1,continueButton,response_rating_scale_likert_active,6230,NA,NA,Somewhat Disagree,1,0,1,0,NA,NA,NA,NA,1,statements,I'm sensitive to vaccines and am nervous of the side effects,1,17/05/2021 11:07,17/05/2021 11:21,844,Once or twice a year,A few times a year,61,Female,-99,"Undergraduate degree (BSc, BA)",18,1,Against,Against
11,1658859311201,26/07/2022 18:15:11,1658859307040,1,26/07/2022 19:15:07,93981,5,task-lkrz,NA,23317880,6842836,NA,complete,NA,62e02ecedfa5c3df8d23e17b,computer,Desktop or Laptop,Windows 10,Firefox 102.0,1408x792,1408x652,NA,ITT Ratings,3,against,2,ACCEPT,NA,NA,NA,NA,NA,NA,NA,NA,NA,batch2hes,batch2hes,30,9,1,Screen 1,continueButton,response_rating_scale_likert_active,4937,NA,NA,Strongly Agree,1,0,1,0,NA,NA,NA,NA,1,statements,"The constant changing of what works, what doesn't, who it affects, who it doesn't. They don't really know for sure, do they?",1,17/05/2021 11:06,17/05/2021 11:19,791,Most months,Most months,27,Female,-99,GCSEs,15,3,Against,Against
12,1658859315240,26/07/2022 18:15:15,1658859311074,1,26/07/2022 19:15:11,93981,5,task-lkrz,NA,23317880,6842836,NA,complete,NA,62e02ecedfa5c3df8d23e17b,computer,Desktop or Laptop,Windows 10,Firefox 102.0,1408x792,1408x652,NA,ITT Ratings,3,against,2,ACCEPT,NA,NA,NA,NA,NA,NA,NA,NA,NA,batch2hes,batch2hes,57,10,1,Screen 1,continueButton,response_rating_scale_likert_active,3993,NA,NA,Strongly Disagree,1,0,1,0,NA,NA,NA,NA,1,statements,I can't have my own opinion,1,17/05/2021 11:04,17/05/2021 11:22,1027,A few times a year,A few times a year,38,Male,-99,GCSEs,19,3,Against,For
13,1658859319256,26/07/2022 18:15:19,1658859315090,1,26/07/2022 19:15:15,93981,5,task-lkrz,NA,23317880,6842836,NA,complete,NA,62e02ecedfa5c3df8d23e17b,computer,Desktop or Laptop,Windows 10,Firefox 102.0,1408x792,1408x652,NA,ITT Ratings,3,against,2,ACCEPT,NA,NA,NA,NA,NA,NA,NA,NA,NA,batch2hes,batch2hes,61,11,1,Screen 1,continueButton,response_rating_scale_likert_active,3978,NA,NA,Strongly Disagree,1,0,1,0,NA,NA,NA,NA,1,statements,I am so scared I will not feel save until I have this vaccine.,1,17/05/2021 10:52,17/05/2021 11:22,1779,Most weeks,Most days,55,Female,-99,GCSEs,20,1,Against,For
14,1658859323667,26/07/2022 18:15:23,1658859319498,1,26/07/2022 19:15:19,93981,5,task-lkrz,NA,23317880,6842836,NA,complete,NA,62e02ecedfa5c3df8d23e17b,computer,Desktop or Laptop,Windows 10,Firefox 102.0,1408x792,1408x652,NA,ITT Ratings,3,against,2,ACCEPT,NA,NA,NA,NA,NA,NA,NA,NA,NA,batch2hes,batch2hes,63,12,1,Screen 1,continueButton,response_rating_scale_likert_active,4369,NA,NA,Strongly Disagree,1,0,1,0,NA,NA,NA,NA,1,statements,I am feeling so much pressure by the government I just go for it because I am told to,1,17/05/2021 10:52,17/05/2021 11:22,1779,Most weeks,Most days,55,Female,-99,GCSEs,20,3,Against,For
15,1658859333060,26/07/2022 18:15:33,1658859328897,1,26/07/2022 19:15:28,93981,5,task-lkrz,NA,23317880,6842836,NA,complete,NA,62e02ecedfa5c3df8d23e17b,computer,Desktop or Laptop,Windows 10,Firefox 102.0,1408x792,1408x652,NA,ITT Ratings,3,against,2,ACCEPT,NA,NA,NA,NA,NA,NA,NA,NA,NA,batch2hes,batch2hes,9,13,1,Screen 1,continueButton,response_rating_scale_likert_active,9361,NA,NA,Neither Agree nor Disagree,1,0,1,0,NA,NA,NA,NA,1,statements,Previous vaccines have been successful so I trust in the vaccine.,1,17/05/2021 10:37,17/05/2021 11:15,2299,Once or twice a year,A few times a year,24,Female,-99,A levels,11,3,Against,For
16,1658859339902,26/07/2022 18:15:39,1658859335737,1,26/07/2022 19:15:35,93981,5,task-lkrz,NA,23317880,6842836,NA,complete,NA,62e02ecedfa5c3df8d23e17b,computer,Desktop or Laptop,Windows 10,Firefox 102.0,1408x792,1408x652,NA,ITT Ratings,3,against,2,ACCEPT,NA,NA,NA,NA,NA,NA,NA,NA,NA,batch2hes,batch2hes,36,14,1,Screen 1,continueButton,response_rating_scale_likert_active,6805,NA,NA,Somewhat Agree,1,0,1,0,NA,NA,NA,NA,1,statements,We haven't trusted the government for years why should be trust them now after they've made so many bad descisions in the pandemic.,1,17/05/2021 10:22,17/05/2021 11:19,3415,Most weeks,Rarely,26,Female,-99,"Postgraduate degree (MSc, MA, MPhil)",16,3,Against,Against
17,1658859345015,26/07/2022 18:15:45,1658859340857,1,26/07/2022 19:15:40,93981,5,task-lkrz,NA,23317880,6842836,NA,complete,NA,62e02ecedfa5c3df8d23e17b,computer,Desktop or Laptop,Windows 10,Firefox 102.0,1408x792,1408x652,NA,ITT Ratings,3,against,2,ACCEPT,NA,NA,NA,NA,NA,NA,NA,NA,NA,batch2hes,batch2hes,58,15,1,Screen 1,continueButton,response_rating_scale_likert_active,5087,NA,NA,Disagree,1,0,1,0,NA,NA,NA,NA,1,statements,"I do not trust the vaccine, all the people around me are suffering reactions , which you never see with other vaccine giving out",1,17/05/2021 10:52,17/05/2021 11:22,1779,Most weeks,Most days,55,Female,-99,GCSEs,20,1,Against,Against
18,1658859352805,26/07/2022 18:15:52,1658859348641,1,26/07/2022 19:15:48,93981,5,task-lkrz,NA,23317880,6842836,NA,complete,NA,62e02ecedfa5c3df8d23e17b,computer,Desktop or Laptop,Windows 10,Firefox 102.0,1408x792,1408x652,NA,ITT Ratings,3,against,2,ACCEPT,NA,NA,NA,NA,NA,NA,NA,NA,NA,batch2hes,batch2hes,17,16,1,Screen 1,continueButton,response_rating_scale_likert_active,7751,NA,NA,Agree,1,0,1,0,NA,NA,NA,NA,1,statements,That I am concerned about unknown long term affects,1,17/05/2021 11:08,17/05/2021 11:16,512,Rarely,A few times a year,39,Female,-99,A levels,13,2,Against,Against
19,1658859360668,26/07/2022 18:16:00,1658859356492,1,26/07/2022 19:15:56,93981,5,task-lkrz,NA,23317880,6842836,NA,complete,NA,62e02ecedfa5c3df8d23e17b,computer,Desktop or Laptop,Windows 10,Firefox 102.0,1408x792,1408x652,NA,ITT Ratings,3,against,2,ACCEPT,NA,NA,NA,NA,NA,NA,NA,NA,NA,batch2hes,batch2hes,3,17,1,Screen 1,continueButton,response_rating_scale_likert_active,7819,NA,NA,Somewhat Disagree,1,0,1,0,NA,NA,NA,NA,1,statements,We would like to check you are reading each argument carefully. Please select 'Somewhat Disagree' for this answer,1,NA,NA,NA,NA,NA,NA,NA,NA,NA,NA,check2,NA,NA
20,1658859369421,26/07/2022 18:16:09,1658859365265,1,26/07/2022 19:16:05,93981,5,task-lkrz,NA,23317880,6842836,NA,complete,NA,62e02ecedfa5c3df8d23e17b,computer,Desktop or Laptop,Windows 10,Firefox 102.0,1408x792,1408x652,NA,ITT Ratings,3,against,2,ACCEPT,NA,NA,NA,NA,NA,NA,NA,NA,NA,batch2hes,batch2hes,40,18,1,Screen 1,continueButton,response_rating_scale_likert_active,8694,NA,NA,Neither Agree nor Disagree,1,0,1,0,NA,NA,NA,NA,1,statements,It's completely unnecessary for a seasonal flu virus with a better-than 99% survival rate.,1,17/05/2021 11:07,17/05/2021 11:21,851,Most days,Most days,59,Female,-99,A levels,17,1,Against,Against
21,1658859374487,26/07/2022 18:16:14,1658859370322,1,26/07/2022 19:16:10,93981,5,task-lkrz,NA,23317880,6842836,NA,complete,NA,62e02ecedfa5c3df8d23e17b,computer,Desktop or Laptop,Windows 10,Firefox 102.0,1408x792,1408x652,NA,ITT Ratings,3,against,2,ACCEPT,NA,NA,NA,NA,NA,NA,NA,NA,NA,batch2hes,batch2hes,6,19,1,Screen 1,continueButton,response_rating_scale_likert_active,4995,NA,NA,Somewhat Agree,1,0,1,0,NA,NA,NA,NA,1,statements,I don't trust the government and what they are trying to put into our body/why they are being so forceful.,1,17/05/2021 10:37,17/05/2021 11:15,2299,Once or twice a year,A few times a year,24,Female,-99,A levels,11,3,Against,Against
22,1658859377274,26/07/2022 18:16:17,1658859373122,1,26/07/2022 19:16:13,93981,5,task-lkrz,NA,23317880,6842836,NA,complete,NA,62e02ecedfa5c3df8d23e17b,computer,Desktop or Laptop,Windows 10,Firefox 102.0,1408x792,1408x652,NA,ITT Ratings,3,against,2,ACCEPT,NA,NA,NA,NA,NA,NA,NA,NA,NA,batch2hes,batch2hes,16,20,1,Screen 1,continueButton,response_rating_scale_likert_active,2752,NA,NA,Agree,1,0,1,0,NA,NA,NA,NA,1,statements,The vaccine has not been tested enough,1,17/05/2021 11:08,17/05/2021 11:16,512,Rarely,A few times a year,39,Female,-99,A levels,13,1,Against,Against
23,1658859380477,26/07/2022 18:16:20,1658859376321,1,26/07/2022 19:16:16,93981,5,task-lkrz,NA,23317880,6842836,NA,complete,NA,62e02ecedfa5c3df8d23e17b,computer,Desktop or Laptop,Windows 10,Firefox 102.0,1408x792,1408x652,NA,ITT Ratings,3,against,2,ACCEPT,NA,NA,NA,NA,NA,NA,NA,NA,NA,batch2hes,batch2hes,14,21,1,Screen 1,continueButton,response_rating_scale_likert_active,3162,NA,NA,Disagree,1,0,1,0,NA,NA,NA,NA,1,statements,I'm taking the vaccine so i can go out,1,17/05/2021 11:01,17/05/2021 11:15,865,Rarely,Rarely,28,Female,-99,"No formal qualifications,Undergraduate degree (BSc, BA)",12,2,Against,For
24,1658859386028,26/07/2022 18:16:26,1658859381873,1,26/07/2022 19:16:21,93981,5,task-lkrz,NA,23317880,6842836,NA,complete,NA,62e02ecedfa5c3df8d23e17b,computer,Desktop or Laptop,Windows 10,Firefox 102.0,1408x792,1408x652,NA,ITT Ratings,3,against,2,ACCEPT,NA,NA,NA,NA,NA,NA,NA,NA,NA,batch2hes,batch2hes,39,22,1,Screen 1,continueButton,response_rating_scale_likert_active,5511,NA,NA,Disagree,1,0,1,0,NA,NA,NA,NA,1,statements,I don't want to be scared of catching covid-19 anymore,1,17/05/2021 10:22,17/05/2021 11:19,3415,Most weeks,Rarely,26,Female,-99,"Postgraduate degree (MSc, MA, MPhil)",16,3,Against,For
25,1658859388708,26/07/2022 18:16:28,1658859384540,1,26/07/2022 19:16:24,93981,5,task-lkrz,NA,23317880,6842836,NA,complete,NA,62e02ecedfa5c3df8d23e17b,computer,Desktop or Laptop,Windows 10,Firefox 102.0,1408x792,1408x652,NA,ITT Ratings,3,against,2,ACCEPT,NA,NA,NA,NA,NA,NA,NA,NA,NA,batch2hes,batch2hes,32,23,1,Screen 1,continueButton,response_rating_scale_likert_active,2627,NA,NA,Neither Agree nor Disagree,1,0,1,0,NA,NA,NA,NA,1,statements,I want to be able to go abroad,1,17/05/2021 11:06,17/05/2021 11:19,791,Most months,Most months,27,Female,-99,GCSEs,15,2,Against,For
26,1658859392479,26/07/2022 18:16:32,1658859388321,1,26/07/2022 19:16:28,93981,5,task-lkrz,NA,23317880,6842836,NA,complete,NA,62e02ecedfa5c3df8d23e17b,computer,Desktop or Laptop,Windows 10,Firefox 102.0,1408x792,1408x652,NA,ITT Ratings,3,against,2,ACCEPT,NA,NA,NA,NA,NA,NA,NA,NA,NA,batch2hes,batch2hes,21,24,1,Screen 1,continueButton,response_rating_scale_likert_active,3730,NA,NA,Agree,1,0,1,0,NA,NA,NA,NA,1,statements,To help relieve the pressure on the NHS,1,17/05/2021 11:08,17/05/2021 11:16,512,Rarely,A few times a year,39,Female,-99,A levels,13,3,Against,For
27,1658859398780,26/07/2022 18:16:38,1658859394618,1,26/07/2022 19:16:34,93981,5,task-lkrz,NA,23317880,6842836,NA,complete,NA,62e02ecedfa5c3df8d23e17b,computer,Desktop or Laptop,Windows 10,Firefox 102.0,1408x792,1408x652,NA,ITT Ratings,3,against,2,ACCEPT,NA,NA,NA,NA,NA,NA,NA,NA,NA,batch2hes,batch2hes,52,25,1,Screen 1,continueButton,response_rating_scale_likert_active,6247,NA,NA,Somewhat Agree,1,0,1,0,NA,NA,NA,NA,1,statements,It is unsafe as it has been produced too quickly,1,17/05/2021 11:04,17/05/2021 11:22,1027,A few times a year,A few times a year,38,Male,-99,GCSEs,19,1,Against,Against
28,1658859404433,26/07/2022 18:16:44,1658859400273,1,26/07/2022 19:16:40,93981,5,task-lkrz,NA,23317880,6842836,NA,complete,NA,62e02ecedfa5c3df8d23e17b,computer,Desktop or Laptop,Windows 10,Firefox 102.0,1408x792,1408x652,NA,ITT Ratings,3,against,2,ACCEPT,NA,NA,NA,NA,NA,NA,NA,NA,NA,batch2hes,batch2hes,62,26,1,Screen 1,continueButton,response_rating_scale_likert_active,5613,NA,NA,Somewhat Agree,1,0,1,0,NA,NA,NA,NA,1,statements,"most people seem to think if they have the vaccine they can not on holiday , yer right",1,17/05/2021 10:52,17/05/2021 11:22,1779,Most weeks,Most days,55,Female,-99,GCSEs,20,2,Against,For
