Event.Index,UTC.Timestamp,UTC.Date,Local.Timestamp,Local.Timezone,Local.Date,Experiment.ID,Experiment.Version,Tree.Node.Key,Repeat.Key,Schedule.ID,Participant.Private.ID,Participant.Starting.Group,Participant.Status,Participant.Completion.Code,Participant.External.Session.ID,Participant.Device.Type,Participant.Device,Participant.OS,Participant.Browser,Participant.Monitor.Size,Participant.Viewport.Size,Checkpoint,Task.Name,Task.Version,branch.69an,randomiser.8vg2,quota.bqtt,quota.rycs,quota.wtfi,quota.usve,quota.zgic,quota.f3yz,quota.r9vy,quota.tfqq,quota.3dga,quota.dtj6,Spreadsheet,Spreadsheet.Name,Spreadsheet.Row,Trial.Number,Screen.Number,Screen.Name,Zone.Name,Zone.Type,Reaction.Time,Reaction.Onset,Response.Type,Response,Attempt,Correct,Incorrect,Dishonest,X.Coordinate,Y.Coordinate,Timed.Out,randomise_blocks,randomise_trials,display,Arguments,ShowProgressBar,StartDate,EndDate,Duration,discuss_1,read_1,age,gender,gender_4_TEXT,edu,ID,arg_ID,Position,Arg_Position
1,1658860000000,26/07/2022 18:00,1658860000000,1,26/07/2022 19:00,93981,5,task-j4ag,NA,23317507,6842724,NA,complete,NA,62e02ba08c6ea3590bd8e7c2,computer,Desktop or Laptop,Chromium OS 14816.131.0,Chrome 103.0.0.0,1366x768,1366x613,NA,ITT Ratings,3,against,5,NA,NA,NA,ACCEPT,NA,NA,NA,NA,NA,NA,batch5hes,NA,NA,BEGIN TASK,NA,NA,NA,NA,NA,NA,NA,NA,NA,0,1,0,NA,NA,NA,NA,NA,NA,NA,NA,NA,NA,NA,NA,NA,NA,NA,NA,NA,NA,NA,NA,NA
2,1658860000000,26/07/2022 18:00,1658860000000,1,26/07/2022 19:00,93981,5,task-j4ag,NA,23317507,6842724,NA,complete,NA,62e02ba08c6ea3590bd8e7c2,computer,Desktop or Laptop,Chromium OS 14816.131.0,Chrome 103.0.0.0,1366x768,1366x613,NA,ITT Ratings,3,against,5,NA,NA,NA,ACCEPT,NA,NA,NA,NA,NA,NA,batch5hes,batch5hes,1,1,1,Screen 1,advancementZone,continue_button,11140,NA,NA,NA,NA,0,1,0,NA,NA,NA,NA,NA,instructions,NA,NA,NA,NA,NA,NA,NA,NA,NA,NA,NA,NA,NA,NA,NA
3,1658860000000,26/07/2022 18:00,1658860000000,1,26/07/2022 19:00,93981,5,task-j4ag,NA,23317507,6842724,NA,complete,NA,62e02ba08c6ea3590bd8e7c2,computer,Desktop or Laptop,Chromium OS 14816.131.0,Chrome 103.0.0.0,1366x768,1366x613,NA,ITT Ratings,3,against,5,NA,NA,NA,ACCEPT,NA,NA,NA,NA,NA,NA,batch5hes,batch5hes,63,1,1,Screen 1,continueButton,response_rating_scale_likert_active,9573.9,NA,NA,Strongly Disagree,1,0,1,0,NA,NA,NA,NA,1,statements,It will mean I can meet family members,1,17/05/2021 11:50,17/05/2021 11:57,423,Most weeks,Most weeks,48,Male,-99,"Undergraduate degree (BSc, BA)",50,3,Against,For
4,1658860000000,26/07/2022 18:01,1658860000000,1,26/07/2022 19:01,93981,5,task-j4ag,NA,23317507,6842724,NA,complete,NA,62e02ba08c6ea3590bd8e7c2,computer,Desktop or Laptop,Chromium OS 14816.131.0,Chrome 103.0.0.0,1366x768,1366x613,NA,ITT Ratings,3,against,5,NA,NA,NA,ACCEPT,NA,NA,NA,NA,NA,NA,batch5hes,batch5hes,47,2,1,Screen 1,continueButton,response_rating_scale_likert_active,6605.8,NA,NA,Strongly Agree,1,0,1,0,NA,NA,NA,NA,1,statements,The side effects are being under reported.,1,17/05/2021 11:10,17/05/2021 11:56,2717,Rarely,Rarely,38,Male,-99,A levels,48,2,Against,Against
5,1658860000000,26/07/2022 18:01,1658860000000,1,26/07/2022 19:01,93981,5,task-j4ag,NA,23317507,6842724,NA,complete,NA,62e02ba08c6ea3590bd8e7c2,computer,Desktop or Laptop,Chromium OS 14816.131.0,Chrome 103.0.0.0,1366x768,1366x613,NA,ITT Ratings,3,against,5,NA,NA,NA,ACCEPT,NA,NA,NA,NA,NA,NA,batch5hes,batch5hes,30,3,1,Screen 1,continueButton,response_rating_scale_likert_active,3214.9,NA,NA,Strongly Agree,1,0,1,0,NA,NA,NA,NA,1,statements,dont know enough about it,1,17/05/2021 11:33,17/05/2021 11:51,1071,Most weeks,A few times a year,34,Male,-99,"Undergraduate degree (BSc, BA)",45,3,Against,Against
6,1658860000000,26/07/2022 18:01,1658860000000,1,26/07/2022 19:01,93981,5,task-j4ag,NA,23317507,6842724,NA,complete,NA,62e02ba08c6ea3590bd8e7c2,computer,Desktop or Laptop,Chromium OS 14816.131.0,Chrome 103.0.0.0,1366x768,1366x613,NA,ITT Ratings,3,against,5,NA,NA,NA,ACCEPT,NA,NA,NA,NA,NA,NA,batch5hes,batch5hes,39,4,1,Screen 1,continueButton,response_rating_scale_likert_active,6597,NA,NA,Agree,1,0,1,0,NA,NA,NA,NA,1,statements,i dont want to put strain on the health services,1,17/05/2021 11:43,17/05/2021 11:53,620,Most weeks,Most days,51,Female,-99,GCSEs,46,3,Against,For
7,1658860000000,26/07/2022 18:01,1658860000000,1,26/07/2022 19:01,93981,5,task-j4ag,NA,23317507,6842724,NA,complete,NA,62e02ba08c6ea3590bd8e7c2,computer,Desktop or Laptop,Chromium OS 14816.131.0,Chrome 103.0.0.0,1366x768,1366x613,NA,ITT Ratings,3,against,5,NA,NA,NA,ACCEPT,NA,NA,NA,NA,NA,NA,batch5hes,batch5hes,9,5,1,Screen 1,continueButton,response_rating_scale_likert_active,9345.9,NA,NA,Disagree,1,0,1,0,NA,NA,NA,NA,1,statements,I want to be able to visit vulnerable friends and loved ones without being a risk factor to them,1,17/05/2021 11:29,17/05/2021 11:43,849,Rarely,Most months,29,Female,-99,"Postgraduate degree (MSc, MA, MPhil)",41,3,Against,For
8,1658860000000,26/07/2022 18:01,1658860000000,1,26/07/2022 19:01,93981,5,task-j4ag,NA,23317507,6842724,NA,complete,NA,62e02ba08c6ea3590bd8e7c2,computer,Desktop or Laptop,Chromium OS 14816.131.0,Chrome 103.0.0.0,1366x768,1366x613,NA,ITT Ratings,3,against,5,NA,NA,NA,ACCEPT,NA,NA,NA,NA,NA,NA,batch5hes,batch5hes,60,6,1,Screen 1,continueButton,response_rating_scale_likert_active,2888.1,NA,NA,Strongly Agree,1,0,1,0,NA,NA,NA,NA,1,statements,There could be side effects,1,17/05/2021 11:50,17/05/2021 11:57,423,Most weeks,Most weeks,48,Male,-99,"Undergraduate degree (BSc, BA)",50,3,Against,Against
9,1658860000000,26/07/2022 18:01,1658860000000,1,26/07/2022 19:01,93981,5,task-j4ag,NA,23317507,6842724,NA,complete,NA,62e02ba08c6ea3590bd8e7c2,computer,Desktop or Laptop,Chromium OS 14816.131.0,Chrome 103.0.0.0,1366x768,1366x613,NA,ITT Ratings,3,against,5,NA,NA,NA,ACCEPT,NA,NA,NA,NA,NA,NA,batch5hes,batch5hes,56,7,1,Screen 1,continueButton,response_rating_scale_likert_active,2505,NA,NA,Strongly Agree,1,0,1,0,NA,NA,NA,NA,1,statements,I want to return to 'normal life',1,17/05/2021 11:30,17/05/2021 11:56,1558,Rarely,Most months,35,Male,-99,"GCSEs,A levels,Undergraduate degree (BSc, BA)",49,2,Against,For
10,1658860000000,26/07/2022 18:01,1658860000000,1,26/07/2022 19:01,93981,5,task-j4ag,NA,23317507,6842724,NA,complete,NA,62e02ba08c6ea3590bd8e7c2,computer,Desktop or Laptop,Chromium OS 14816.131.0,Chrome 103.0.0.0,1366x768,1366x613,NA,ITT Ratings,3,against,5,NA,NA,NA,ACCEPT,NA,NA,NA,NA,NA,NA,batch5hes,batch5hes,41,8,1,Screen 1,continueButton,response_rating_scale_likert_active,6928.1,NA,NA,Agree,1,0,1,0,NA,NA,NA,NA,1,statements,I am healthy and young so no benefit to me,1,17/05/2021 11:49,17/05/2021 11:54,314,Rarely,Most days,27,Female,-99,"Undergraduate degree (BSc, BA)",47,2,Against,Against
11,1658860000000,26/07/2022 18:01,1658860000000,1,26/07/2022 19:01,93981,5,task-j4ag,NA,23317507,6842724,NA,complete,NA,62e02ba08c6ea3590bd8e7c2,computer,Desktop or Laptop,Chromium OS 14816.131.0,Chrome 103.0.0.0,1366x768,1366x613,NA,ITT Ratings,3,against,5,NA,NA,NA,ACCEPT,NA,NA,NA,NA,NA,NA,batch5hes,batch5hes,23,9,1,Screen 1,continueButton,response_rating_scale_likert_active,7880.1,NA,NA,Strongly Agree,1,0,1,0,NA,NA,NA,NA,1,statements,Breastfeeding and not enough trials/evidence to support the effects of potential transmission to my baby through milk,1,17/05/2021 11:36,17/05/2021 11:45,556,Rarely,Most weeks,26,Female,-99,"Undergraduate degree (BSc, BA)",44,2,Against,Against
12,1658860000000,26/07/2022 18:01,1658860000000,1,26/07/2022 19:01,93981,5,task-j4ag,NA,23317507,6842724,NA,complete,NA,62e02ba08c6ea3590bd8e7c2,computer,Desktop or Laptop,Chromium OS 14816.131.0,Chrome 103.0.0.0,1366x768,1366x613,NA,ITT Ratings,3,against,5,NA,NA,NA,ACCEPT,NA,NA,NA,NA,NA,NA,batch5hes,batch5hes,13,10,1,Screen 1,continueButton,response_rating_scale_likert_active,3853.1,NA,NA,Strongly Agree,1,0,1,0,NA,NA,NA,NA,1,statements,I want to be immune from the disease,1,17/05/2021 11:39,17/05/2021 11:43,295,Never,Rarely,24,Male,-99,"Undergraduate degree (BSc, BA)",42,1,Against,For
13,1658860000000,26/07/2022 18:01,1658860000000,1,26/07/2022 19:01,93981,5,task-j4ag,NA,23317507,6842724,NA,complete,NA,62e02ba08c6ea3590bd8e7c2,computer,Desktop or Laptop,Chromium OS 14816.131.0,Chrome 103.0.0.0,1366x768,1366x613,NA,ITT Ratings,3,against,5,NA,NA,NA,ACCEPT,NA,NA,NA,NA,NA,NA,batch5hes,batch5hes,58,11,1,Screen 1,continueButton,response_rating_scale_likert_active,4979.5,NA,NA,Strongly Agree,1,0,1,0,NA,NA,NA,NA,1,statements,It is not safe and has not been tested properly,1,17/05/2021 11:50,17/05/2021 11:57,423,Most weeks,Most weeks,48,Male,-99,"Undergraduate degree (BSc, BA)",50,1,Against,Against
14,1658860000000,26/07/2022 18:01,1658860000000,1,26/07/2022 19:01,93981,5,task-j4ag,NA,23317507,6842724,NA,complete,NA,62e02ba08c6ea3590bd8e7c2,computer,Desktop or Laptop,Chromium OS 14816.131.0,Chrome 103.0.0.0,1366x768,1366x613,NA,ITT Ratings,3,against,5,NA,NA,NA,ACCEPT,NA,NA,NA,NA,NA,NA,batch5hes,batch5hes,40,12,1,Screen 1,continueButton,response_rating_scale_likert_active,3197.3,NA,NA,Strongly Agree,1,0,1,0,NA,NA,NA,NA,1,statements,It's been rushed so I am not ready to take it,1,17/05/2021 11:49,17/05/2021 11:54,314,Rarely,Most days,27,Female,-99,"Undergraduate degree (BSc, BA)",47,1,Against,Against
15,1658860000000,26/07/2022 18:01,1658860000000,1,26/07/2022 19:01,93981,5,task-j4ag,NA,23317507,6842724,NA,complete,NA,62e02ba08c6ea3590bd8e7c2,computer,Desktop or Laptop,Chromium OS 14816.131.0,Chrome 103.0.0.0,1366x768,1366x613,NA,ITT Ratings,3,against,5,NA,NA,NA,ACCEPT,NA,NA,NA,NA,NA,NA,batch5hes,batch5hes,11,13,1,Screen 1,continueButton,response_rating_scale_likert_active,6354.2,NA,NA,Strongly Agree,1,0,1,0,NA,NA,NA,NA,1,statements,"I am not overweight or obese, nor have any underlying health conditions",1,17/05/2021 11:39,17/05/2021 11:43,295,Never,Rarely,24,Male,-99,"Undergraduate degree (BSc, BA)",42,2,Against,Against
16,1658860000000,26/07/2022 18:02,1658860000000,1,26/07/2022 19:02,93981,5,task-j4ag,NA,23317507,6842724,NA,complete,NA,62e02ba08c6ea3590bd8e7c2,computer,Desktop or Laptop,Chromium OS 14816.131.0,Chrome 103.0.0.0,1366x768,1366x613,NA,ITT Ratings,3,against,5,NA,NA,NA,ACCEPT,NA,NA,NA,NA,NA,NA,batch5hes,batch5hes,21,14,1,Screen 1,continueButton,response_rating_scale_likert_active,3248.8,NA,NA,Strongly Agree,1,0,1,0,NA,NA,NA,NA,1,statements,thinks it necessary,1,17/05/2021 11:33,17/05/2021 11:44,686,Most weeks,Most months,25,Male,-99,A levels,43,3,Against,For
17,1658860000000,26/07/2022 18:02,1658860000000,1,26/07/2022 19:02,93981,5,task-j4ag,NA,23317507,6842724,NA,complete,NA,62e02ba08c6ea3590bd8e7c2,computer,Desktop or Laptop,Chromium OS 14816.131.0,Chrome 103.0.0.0,1366x768,1366x613,NA,ITT Ratings,3,against,5,NA,NA,NA,ACCEPT,NA,NA,NA,NA,NA,NA,batch5hes,batch5hes,45,15,1,Screen 1,continueButton,response_rating_scale_likert_active,7268.1,NA,NA,Strongly Disagree,1,0,1,0,NA,NA,NA,NA,1,statements,The more people that are vaccinated the quicker things will return to normal,1,17/05/2021 11:49,17/05/2021 11:54,314,Rarely,Most days,27,Female,-99,"Undergraduate degree (BSc, BA)",47,3,Against,For
18,1658860000000,26/07/2022 18:02,1658860000000,1,26/07/2022 19:02,93981,5,task-j4ag,NA,23317507,6842724,NA,complete,NA,62e02ba08c6ea3590bd8e7c2,computer,Desktop or Laptop,Chromium OS 14816.131.0,Chrome 103.0.0.0,1366x768,1366x613,NA,ITT Ratings,3,against,5,NA,NA,NA,ACCEPT,NA,NA,NA,NA,NA,NA,batch5hes,batch5hes,49,16,1,Screen 1,continueButton,response_rating_scale_likert_active,6425.8,NA,NA,Strongly Disagree,1,0,1,0,NA,NA,NA,NA,1,statements,Being vaccinated enables lockdown to be rescinded.,1,17/05/2021 11:10,17/05/2021 11:56,2717,Rarely,Rarely,38,Male,-99,A levels,48,1,Against,For
19,1658860000000,26/07/2022 18:02,1658860000000,1,26/07/2022 19:02,93981,5,task-j4ag,NA,23317507,6842724,NA,complete,NA,62e02ba08c6ea3590bd8e7c2,computer,Desktop or Laptop,Chromium OS 14816.131.0,Chrome 103.0.0.0,1366x768,1366x613,NA,ITT Ratings,3,against,5,NA,NA,NA,ACCEPT,NA,NA,NA,NA,NA,NA,batch5hes,batch5hes,61,17,1,Screen 1,continueButton,response_rating_scale_likert_active,2410.3,NA,NA,Strongly Disagree,1,0,1,0,NA,NA,NA,NA,1,statements,It will protect me,1,17/05/2021 11:50,17/05/2021 11:57,423,Most weeks,Most weeks,48,Male,-99,"Undergraduate degree (BSc, BA)",50,1,Against,For
20,1658860000000,26/07/2022 18:02,1658860000000,1,26/07/2022 19:02,93981,5,task-j4ag,NA,23317507,6842724,NA,complete,NA,62e02ba08c6ea3590bd8e7c2,computer,Desktop or Laptop,Chromium OS 14816.131.0,Chrome 103.0.0.0,1366x768,1366x613,NA,ITT Ratings,3,against,5,NA,NA,NA,ACCEPT,NA,NA,NA,NA,NA,NA,batch5hes,batch5hes,55,18,1,Screen 1,continueButton,response_rating_scale_likert_active,3596.5,NA,NA,Strongly Agree,1,0,1,0,NA,NA,NA,NA,1,statements,I want to protect my family and friends,1,17/05/2021 11:30,17/05/2021 11:56,1558,Rarely,Most months,35,Male,-99,"GCSEs,A levels,Undergraduate degree (BSc, BA)",49,1,Against,For
21,1658860000000,26/07/2022 18:02,1658860000000,1,26/07/2022 19:02,93981,5,task-j4ag,NA,23317507,6842724,NA,complete,NA,62e02ba08c6ea3590bd8e7c2,computer,Desktop or Laptop,Chromium OS 14816.131.0,Chrome 103.0.0.0,1366x768,1366x613,NA,ITT Ratings,3,against,5,NA,NA,NA,ACCEPT,NA,NA,NA,NA,NA,NA,batch5hes,batch5hes,33,19,1,Screen 1,continueButton,response_rating_scale_likert_active,2562.1,NA,NA,Strongly Disagree,1,0,1,0,NA,NA,NA,NA,1,statements,I believe it is safe,1,17/05/2021 11:33,17/05/2021 11:51,1071,Most weeks,A few times a year,34,Male,-99,"Undergraduate degree (BSc, BA)",45,3,Against,For
22,1658860000000,26/07/2022 18:02,1658860000000,1,26/07/2022 19:02,93981,5,task-j4ag,NA,23317507,6842724,NA,complete,NA,62e02ba08c6ea3590bd8e7c2,computer,Desktop or Laptop,Chromium OS 14816.131.0,Chrome 103.0.0.0,1366x768,1366x613,NA,ITT Ratings,3,against,5,NA,NA,NA,ACCEPT,NA,NA,NA,NA,NA,NA,batch5hes,batch5hes,36,20,1,Screen 1,continueButton,response_rating_scale_likert_active,3256.3,NA,NA,Strongly Disagree,1,0,1,0,NA,NA,NA,NA,1,statements,i have had covid already,1,17/05/2021 11:43,17/05/2021 11:53,620,Most weeks,Most days,51,Female,-99,GCSEs,46,3,Against,Against
23,1658860000000,26/07/2022 18:02,1658860000000,1,26/07/2022 19:02,93981,5,task-j4ag,NA,23317507,6842724,NA,complete,NA,62e02ba08c6ea3590bd8e7c2,computer,Desktop or Laptop,Chromium OS 14816.131.0,Chrome 103.0.0.0,1366x768,1366x613,NA,ITT Ratings,3,against,5,NA,NA,NA,ACCEPT,NA,NA,NA,NA,NA,NA,batch5hes,batch5hes,3,21,1,Screen 1,continueButton,response_rating_scale_likert_active,5961,NA,NA,Somewhat Disagree,1,0,1,0,NA,NA,NA,NA,1,statements,We would like to check you are reading each argument carefully. Please select 'Somewhat Disagree' for this answer,1,NA,NA,NA,NA,NA,NA,NA,NA,NA,NA,check2,NA,NA
24,1658860000000,26/07/2022 18:02,1658860000000,1,26/07/2022 19:02,93981,5,task-j4ag,NA,23317507,6842724,NA,complete,NA,62e02ba08c6ea3590bd8e7c2,computer,Desktop or Laptop,Chromium OS 14816.131.0,Chrome 103.0.0.0,1366x768,1366x613,NA,ITT Ratings,3,against,5,NA,NA,NA,ACCEPT,NA,NA,NA,NA,NA,NA,batch5hes,batch5hes,51,22,1,Screen 1,continueButton,response_rating_scale_likert_active,14784.9,NA,NA,Strongly Disagree,1,0,1,0,NA,NA,NA,NA,1,statements,I can interact with elderly members of my family.,1,17/05/2021 11:10,17/05/2021 11:56,2717,Rarely,Rarely,38,Male,-99,A levels,48,3,Against,For
25,1658860000000,26/07/2022 18:02,1658860000000,1,26/07/2022 19:02,93981,5,task-j4ag,NA,23317507,6842724,NA,complete,NA,62e02ba08c6ea3590bd8e7c2,computer,Desktop or Laptop,Chromium OS 14816.131.0,Chrome 103.0.0.0,1366x768,1366x613,NA,ITT Ratings,3,against,5,NA,NA,NA,ACCEPT,NA,NA,NA,NA,NA,NA,batch5hes,batch5hes,42,23,1,Screen 1,continueButton,response_rating_scale_likert_active,7501.8,NA,NA,Strongly Agree,1,0,1,0,NA,NA,NA,NA,1,statements,You can't trust vaccines as the pharmaceutical industry just wants to make money,1,17/05/2021 11:49,17/05/2021 11:54,314,Rarely,Most days,27,Female,-99,"Undergraduate degree (BSc, BA)",47,3,Against,Against
26,1658860000000,26/07/2022 18:03,1658860000000,1,26/07/2022 19:02,93981,5,task-j4ag,NA,23317507,6842724,NA,complete,NA,62e02ba08c6ea3590bd8e7c2,computer,Desktop or Laptop,Chromium OS 14816.131.0,Chrome 103.0.0.0,1366x768,1366x613,NA,ITT Ratings,3,against,5,NA,NA,NA,ACCEPT,NA,NA,NA,NA,NA,NA,batch5hes,batch5hes,27,24,1,Screen 1,continueButton,response_rating_scale_likert_active,2987.7,NA,NA,Strongly Disagree,1,0,1,0,NA,NA,NA,NA,1,statements,To protect family and friends,1,17/05/2021 11:36,17/05/2021 11:45,556,Rarely,Most weeks,26,Female,-99,"Undergraduate degree (BSc, BA)",44,3,Against,For
27,1658860000000,26/07/2022 18:03,1658860000000,1,26/07/2022 19:03,93981,5,task-j4ag,NA,23317507,6842724,NA,complete,NA,62e02ba08c6ea3590bd8e7c2,computer,Desktop or Laptop,Chromium OS 14816.131.0,Chrome 103.0.0.0,1366x768,1366x613,NA,ITT Ratings,3,against,5,NA,NA,NA,ACCEPT,NA,NA,NA,NA,NA,NA,batch5hes,batch5hes,17,25,1,Screen 1,continueButton,response_rating_scale_likert_active,3375.1,NA,NA,Strongly Agree,1,0,1,0,NA,NA,NA,NA,1,statements,not knowing exactly whats in it,1,17/05/2021 11:33,17/05/2021 11:44,686,Most weeks,Most months,25,Male,-99,A levels,43,2,Against,Against
28,1658860000000,26/07/2022 18:03,1658860000000,1,26/07/2022 19:03,93981,5,task-j4ag,NA,23317507,6842724,NA,complete,NA,62e02ba08c6ea3590bd8e7c2,computer,Desktop or Laptop,Chromium OS 14816.131.0,Chrome 103.0.0.0,1366x768,1366x613,NA,ITT Ratings,3,against,5,NA,NA,NA,ACCEPT,NA,NA,NA,NA,NA,NA,batch5hes,batch5hes,20,26,1,Screen 1,continueButton,response_rating_scale_likert_active,6529.1,NA,NA,Strongly Disagree,1,0,1,0,NA,NA,NA,NA,1,statements,I am scared of getting covid and will try anything to lower risk,1,17/05/2021 11:33,17/05/2021 11:44,686,Most weeks,Most months,25,Male,-99,A levels,43,2,Against,For
29,1658860000000,26/07/2022 18:03,1658860000000,1,26/07/2022 19:03,93981,5,task-j4ag,NA,23317507,6842724,NA,complete,NA,62e02ba08c6ea3590bd8e7c2,computer,Desktop or Laptop,Chromium OS 14816.131.0,Chrome 103.0.0.0,1366x768,1366x613,NA,ITT Ratings,3,against,5,NA,NA,NA,ACCEPT,NA,NA,NA,NA,NA,NA,batch5hes,batch5hes,7,27,1,Screen 1,continueButton,response_rating_scale_likert_active,3254.3,NA,NA,Strongly Disagree,1,0,1,0,NA,NA,NA,NA,1,statements,I can receive the vaccination passport and travel,1,17/05/2021 11:29,17/05/2021 11:43,849,Rarely,Most months,29,Female,-99,"Postgraduate degree (MSc, MA, MPhil)",41,1,Against,For
30,1658860000000,26/07/2022 18:03,1658860000000,1,26/07/2022 19:03,93981,5,task-j4ag,NA,23317507,6842724,NA,complete,NA,62e02ba08c6ea3590bd8e7c2,computer,Desktop or Laptop,Chromium OS 14816.131.0,Chrome 103.0.0.0,1366x768,1366x613,NA,ITT Ratings,3,against,5,NA,NA,NA,ACCEPT,NA,NA,NA,NA,NA,NA,batch5hes,batch5hes,48,28,1,Screen 1,continueButton,response_rating_scale_likert_active,9212.7,NA,NA,Strongly Disagree,1,0,1,0,NA,NA,NA,NA,1,statements,I'm not in an at risk group and the probability of becoming seriously ill is low.,1,17/05/2021 11:10,17/05/2021 11:56,2717,Rarely,Rarely,38,Male,-99,A levels,48,3,Against,Against
31,1658860000000,26/07/2022 18:03,1658860000000,1,26/07/2022 19:03,93981,5,task-j4ag,NA,23317507,6842724,NA,complete,NA,62e02ba08c6ea3590bd8e7c2,computer,Desktop or Laptop,Chromium OS 14816.131.0,Chrome 103.0.0.0,1366x768,1366x613,NA,ITT Ratings,3,against,5,NA,NA,NA,ACCEPT,NA,NA,NA,NA,NA,NA,batch5hes,batch5hes,4,29,1,Screen 1,continueButton,response_rating_scale_likert_active,7493.7,NA,NA,Strongly Agree,1,0,1,0,NA,NA,NA,NA,1,statements,It has not been tested extensively on every demographic and race,1,17/05/2021 11:29,17/05/2021 11:43,849,Rarely,Most months,29,Female,-99,"Postgraduate degree (MSc, MA, MPhil)",41,1,Against,Against
32,1658860000000,26/07/2022 18:03,1658860000000,1,26/07/2022 19:03,93981,5,task-j4ag,NA,23317507,6842724,NA,complete,NA,62e02ba08c6ea3590bd8e7c2,computer,Desktop or Laptop,Chromium OS 14816.131.0,Chrome 103.0.0.0,1366x768,1366x613,NA,ITT Ratings,3,against,5,NA,NA,NA,ACCEPT,NA,NA,NA,NA,NA,NA,batch5hes,batch5hes,38,30,1,Screen 1,continueButton,response_rating_scale_likert_active,2960.5,NA,NA,Strongly Disagree,1,0,1,0,NA,NA,NA,NA,1,statements,i want to protect others,1,17/05/2021 11:43,17/05/2021 11:53,620,Most weeks,Most days,51,Female,-99,GCSEs,46,2,Against,For
33,1658860000000,26/07/2022 18:03,1658860000000,1,26/07/2022 19:03,93981,5,task-j4ag,NA,23317507,6842724,NA,complete,NA,62e02ba08c6ea3590bd8e7c2,computer,Desktop or Laptop,Chromium OS 14816.131.0,Chrome 103.0.0.0,1366x768,1366x613,NA,ITT Ratings,3,against,5,NA,NA,NA,ACCEPT,NA,NA,NA,NA,NA,NA,batch5hes,batch5hes,62,31,1,Screen 1,continueButton,response_rating_scale_likert_active,3874.6,NA,NA,Strongly Disagree,1,0,1,0,NA,NA,NA,NA,1,statements,It will enable me to carry on as normal,1,17/05/2021 11:50,17/05/2021 11:57,423,Most weeks,Most weeks,48,Male,-99,"Undergraduate degree (BSc, BA)",50,2,Against,For
34,1658860000000,26/07/2022 18:03,1658860000000,1,26/07/2022 19:03,93981,5,task-j4ag,NA,23317507,6842724,NA,complete,NA,62e02ba08c6ea3590bd8e7c2,computer,Desktop or Laptop,Chromium OS 14816.131.0,Chrome 103.0.0.0,1366x768,1366x613,NA,ITT Ratings,3,against,5,NA,NA,NA,ACCEPT,NA,NA,NA,NA,NA,NA,batch5hes,batch5hes,6,32,1,Screen 1,continueButton,response_rating_scale_likert_active,12258.1,NA,NA,Strongly Disagree,1,0,1,0,NA,NA,NA,NA,1,statements,New variants may arise and that would invalidate old vaccines already taken,1,17/05/2021 11:29,17/05/2021 11:43,849,Rarely,Most months,29,Female,-99,"Postgraduate degree (MSc, MA, MPhil)",41,3,Against,Against
35,1658860000000,26/07/2022 18:03,1658860000000,1,26/07/2022 19:03,93981,5,task-j4ag,NA,23317507,6842724,NA,complete,NA,62e02ba08c6ea3590bd8e7c2,computer,Desktop or Laptop,Chromium OS 14816.131.0,Chrome 103.0.0.0,1366x768,1366x613,NA,ITT Ratings,3,against,5,NA,NA,NA,ACCEPT,NA,NA,NA,NA,NA,NA,batch5hes,batch5hes,29,33,1,Screen 1,continueButton,response_rating_scale_likert_active,2914.7,NA,NA,Strongly Agree,1,0,1,0,NA,NA,NA,NA,1,statements,it was developed too fast,1,17/05/2021 11:33,17/05/2021 11:51,1071,Most weeks,A few times a year,34,Male,-99,"Undergraduate degree (BSc, BA)",45,2,Against,Against
36,1658860000000,26/07/2022 18:03,1658860000000,1,26/07/2022 19:03,93981,5,task-j4ag,NA,23317507,6842724,NA,complete,NA,62e02ba08c6ea3590bd8e7c2,computer,Desktop or Laptop,Chromium OS 14816.131.0,Chrome 103.0.0.0,1366x768,1366x613,NA,ITT Ratings,3,against,5,NA,NA,NA,ACCEPT,NA,NA,NA,NA,NA,NA,batch5hes,batch5hes,59,34,1,Screen 1,continueButton,response_rating_scale_likert_active,5563.6,NA,NA,Strongly Agree,1,0,1,0,NA,NA,NA,NA,1,statements,It is not needed as there is no threat,1,17/05/2021 11:50,17/05/2021 11:57,423,Most weeks,Most weeks,48,Male,-99,"Undergraduate degree (BSc, BA)",50,2,Against,Against
37,1658860000000,26/07/2022 18:04,1658860000000,1,26/07/2022 19:04,93981,5,task-j4ag,NA,23317507,6842724,NA,complete,NA,62e02ba08c6ea3590bd8e7c2,computer,Desktop or Laptop,Chromium OS 14816.131.0,Chrome 103.0.0.0,1366x768,1366x613,NA,ITT Ratings,3,against,5,NA,NA,NA,ACCEPT,NA,NA,NA,NA,NA,NA,batch5hes,batch5hes,53,35,1,Screen 1,continueButton,response_rating_scale_likert_active,11414.9,NA,NA,Agree,1,0,1,0,NA,NA,NA,NA,1,statements,"Nanoparticles within the vaccine, MRNA changing DNA within the human body. Multiple videos on the internet showing adverse reactions to the vaccine",1,17/05/2021 11:30,17/05/2021 11:56,1558,Rarely,Most months,35,Male,-99,"GCSEs,A levels,Undergraduate degree (BSc, BA)",49,2,Against,Against
38,1658860000000,26/07/2022 18:04,1658860000000,1,26/07/2022 19:04,93981,5,task-j4ag,NA,23317507,6842724,NA,complete,NA,62e02ba08c6ea3590bd8e7c2,computer,Desktop or Laptop,Chromium OS 14816.131.0,Chrome 103.0.0.0,1366x768,1366x613,NA,ITT Ratings,3,against,5,NA,NA,NA,ACCEPT,NA,NA,NA,NA,NA,NA,batch5hes,batch5hes,35,36,1,Screen 1,continueButton,response_rating_scale_likert_active,3896.9,NA,NA,Strongly Agree,1,0,1,0,NA,NA,NA,NA,1,statements,covid doesn't kill you,1,17/05/2021 11:43,17/05/2021 11:53,620,Most weeks,Most days,51,Female,-99,GCSEs,46,2,Against,Against
39,1658860000000,26/07/2022 18:04,1658860000000,1,26/07/2022 19:04,93981,5,task-j4ag,NA,23317507,6842724,NA,complete,NA,62e02ba08c6ea3590bd8e7c2,computer,Desktop or Laptop,Chromium OS 14816.131.0,Chrome 103.0.0.0,1366x768,1366x613,NA,ITT Ratings,3,against,5,NA,NA,NA,ACCEPT,NA,NA,NA,NA,NA,NA,batch5hes,batch5hes,44,37,1,Screen 1,continueButton,response_rating_scale_likert_active,3547.1,NA,NA,Strongly Disagree,1,0,1,0,NA,NA,NA,NA,1,statements,It has been approved so is safe,1,17/05/2021 11:49,17/05/2021 11:54,314,Rarely,Most days,27,Female,-99,"Undergraduate degree (BSc, BA)",47,2,Against,For
40,1658860000000,26/07/2022 18:04,1658860000000,1,26/07/2022 19:04,93981,5,task-j4ag,NA,23317507,6842724,NA,complete,NA,62e02ba08c6ea3590bd8e7c2,computer,Desktop or Laptop,Chromium OS 14816.131.0,Chrome 103.0.0.0,1366x768,1366x613,NA,ITT Ratings,3,against,5,NA,NA,NA,ACCEPT,NA,NA,NA,NA,NA,NA,batch5hes,batch5hes,54,38,1,Screen 1,continueButton,response_rating_scale_likert_active,13629.4,NA,NA,Strongly Agree,1,0,1,0,NA,NA,NA,NA,1,statements,Companies offering incentives to get the vaccine. Videos showing metal sticking to the arms of people in the position where the jab was taken- feels very suspect and untrustworthy promotion.,1,17/05/2021 11:30,17/05/2021 11:56,1558,Rarely,Most months,35,Male,-99,"GCSEs,A levels,Undergraduate degree (BSc, BA)",49,3,Against,Against
41,1658860000000,26/07/2022 18:04,1658860000000,1,26/07/2022 19:04,93981,5,task-j4ag,NA,23317507,6842724,NA,complete,NA,62e02ba08c6ea3590bd8e7c2,computer,Desktop or Laptop,Chromium OS 14816.131.0,Chrome 103.0.0.0,1366x768,1366x613,NA,ITT Ratings,3,against,5,NA,NA,NA,ACCEPT,NA,NA,NA,NA,NA,NA,batch5hes,batch5hes,12,39,1,Screen 1,continueButton,response_rating_scale_likert_active,6850.7,NA,NA,Strongly Agree,1,0,1,0,NA,NA,NA,NA,1,statements,I am not sure about the testing and long term effects (both positive and negative) of the vaccine.,1,17/05/2021 11:39,17/05/2021 11:43,295,Never,Rarely,24,Male,-99,"Undergraduate degree (BSc, BA)",42,3,Against,Against
42,1658860000000,26/07/2022 18:04,1658860000000,1,26/07/2022 19:04,93981,5,task-j4ag,NA,23317507,6842724,NA,complete,NA,62e02ba08c6ea3590bd8e7c2,computer,Desktop or Laptop,Chromium OS 14816.131.0,Chrome 103.0.0.0,1366x768,1366x613,NA,ITT Ratings,3,against,5,NA,NA,NA,ACCEPT,NA,NA,NA,NA,NA,NA,batch5hes,batch5hes,10,40,1,Screen 1,continueButton,response_rating_scale_likert_active,6683.5,NA,NA,Agree,1,0,1,0,NA,NA,NA,NA,1,statements,"I am young and healthy, therefore I am extremely low risk at developing serious complications from COVID",1,17/05/2021 11:39,17/05/2021 11:43,295,Never,Rarely,24,Male,-99,"Undergraduate degree (BSc, BA)",42,1,Against,Against
43,1658860000000,26/07/2022 18:04,1658860000000,1,26/07/2022 19:04,93981,5,task-j4ag,NA,23317507,6842724,NA,complete,NA,62e02ba08c6ea3590bd8e7c2,computer,Desktop or Laptop,Chromium OS 14816.131.0,Chrome 103.0.0.0,1366x768,1366x613,NA,ITT Ratings,3,against,5,NA,NA,NA,ACCEPT,NA,NA,NA,NA,NA,NA,batch5hes,batch5hes,15,41,1,Screen 1,continueButton,response_rating_scale_likert_active,9709.5,NA,NA,Strongly Agree,1,0,1,0,NA,NA,NA,NA,1,statements,The government has told me to do so.,1,17/05/2021 11:39,17/05/2021 11:43,295,Never,Rarely,24,Male,-99,"Undergraduate degree (BSc, BA)",42,3,Against,For
44,1658860000000,26/07/2022 18:04,1658860000000,1,26/07/2022 19:04,93981,5,task-j4ag,NA,23317507,6842724,NA,complete,NA,62e02ba08c6ea3590bd8e7c2,computer,Desktop or Laptop,Chromium OS 14816.131.0,Chrome 103.0.0.0,1366x768,1366x613,NA,ITT Ratings,3,against,5,NA,NA,NA,ACCEPT,NA,NA,NA,NA,NA,NA,batch5hes,batch5hes,8,42,1,Screen 1,continueButton,response_rating_scale_likert_active,3241.6,NA,NA,Strongly Agree,1,0,1,0,NA,NA,NA,NA,1,statements,I am tired of lockdown,1,17/05/2021 11:29,17/05/2021 11:43,849,Rarely,Most months,29,Female,-99,"Postgraduate degree (MSc, MA, MPhil)",41,2,Against,For
45,1658860000000,26/07/2022 18:05,1658860000000,1,26/07/2022 19:04,93981,5,task-j4ag,NA,23317507,6842724,NA,complete,NA,62e02ba08c6ea3590bd8e7c2,computer,Desktop or Laptop,Chromium OS 14816.131.0,Chrome 103.0.0.0,1366x768,1366x613,NA,ITT Ratings,3,against,5,NA,NA,NA,ACCEPT,NA,NA,NA,NA,NA,NA,batch5hes,batch5hes,24,43,1,Screen 1,continueButton,response_rating_scale_likert_active,2718,NA,NA,Strongly Agree,1,0,1,0,NA,NA,NA,NA,1,statements,Don't feel I need it,1,17/05/2021 11:36,17/05/2021 11:45,556,Rarely,Most weeks,26,Female,-99,"Undergraduate degree (BSc, BA)",44,3,Against,Against
46,1658860000000,26/07/2022 18:05,1658860000000,1,26/07/2022 19:05,93981,5,task-j4ag,NA,23317507,6842724,NA,complete,NA,62e02ba08c6ea3590bd8e7c2,computer,Desktop or Laptop,Chromium OS 14816.131.0,Chrome 103.0.0.0,1366x768,1366x613,NA,ITT Ratings,3,against,5,NA,NA,NA,ACCEPT,NA,NA,NA,NA,NA,NA,batch5hes,batch5hes,2,44,1,Screen 1,continueButton,response_rating_scale_likert_active,4998.8,NA,NA,Somewhat Agree,1,0,1,0,NA,NA,NA,NA,1,statements,We would like to check you are reading each argument carefully. Please select 'Somewhat Agree' for this answer,1,NA,NA,NA,NA,NA,NA,NA,NA,NA,NA,check1,NA,NA
47,1658860000000,26/07/2022 18:05,1658860000000,1,26/07/2022 19:05,93981,5,task-j4ag,NA,23317507,6842724,NA,complete,NA,62e02ba08c6ea3590bd8e7c2,computer,Desktop or Laptop,Chromium OS 14816.131.0,Chrome 103.0.0.0,1366x768,1366x613,NA,ITT Ratings,3,against,5,NA,NA,NA,ACCEPT,NA,NA,NA,NA,NA,NA,batch5hes,batch5hes,26,45,1,Screen 1,continueButton,response_rating_scale_likert_active,4591.9,NA,NA,Strongly Agree,1,0,1,0,NA,NA,NA,NA,1,statements,"Feel I have to to be able to get back to ""normal""",1,17/05/2021 11:36,17/05/2021 11:45,556,Rarely,Most weeks,26,Female,-99,"Undergraduate degree (BSc, BA)",44,2,Against,For
48,1658860000000,26/07/2022 18:05,1658860000000,1,26/07/2022 19:05,93981,5,task-j4ag,NA,23317507,6842724,NA,complete,NA,62e02ba08c6ea3590bd8e7c2,computer,Desktop or Laptop,Chromium OS 14816.131.0,Chrome 103.0.0.0,1366x768,1366x613,NA,ITT Ratings,3,against,5,NA,NA,NA,ACCEPT,NA,NA,NA,NA,NA,NA,batch5hes,batch5hes,34,46,1,Screen 1,continueButton,response_rating_scale_likert_active,3226.1,NA,NA,Strongly Agree,1,0,1,0,NA,NA,NA,NA,1,statements,i don't trust the pharmaceutical companies,1,17/05/2021 11:43,17/05/2021 11:53,620,Most weeks,Most days,51,Female,-99,GCSEs,46,1,Against,Against
49,1658860000000,26/07/2022 18:05,1658860000000,1,26/07/2022 19:05,93981,5,task-j4ag,NA,23317507,6842724,NA,complete,NA,62e02ba08c6ea3590bd8e7c2,computer,Desktop or Laptop,Chromium OS 14816.131.0,Chrome 103.0.0.0,1366x768,1366x613,NA,ITT Ratings,3,against,5,NA,NA,NA,ACCEPT,NA,NA,NA,NA,NA,NA,batch5hes,batch5hes,5,47,1,Screen 1,continueButton,response_rating_scale_likert_active,5672.9,NA,NA,Strongly Agree,1,0,1,0,NA,NA,NA,NA,1,statements,It was made too quickly and compromises to its integrity may have been made,1,17/05/2021 11:29,17/05/2021 11:43,849,Rarely,Most months,29,Female,-99,"Postgraduate degree (MSc, MA, MPhil)",41,2,Against,Against
50,1658860000000,26/07/2022 18:05,1658860000000,1,26/07/2022 19:05,93981,5,task-j4ag,NA,23317507,6842724,NA,complete,NA,62e02ba08c6ea3590bd8e7c2,computer,Desktop or Laptop,Chromium OS 14816.131.0,Chrome 103.0.0.0,1366x768,1366x613,NA,ITT Ratings,3,against,5,NA,NA,NA,ACCEPT,NA,NA,NA,NA,NA,NA,batch5hes,batch5hes,52,48,1,Screen 1,continueButton,response_rating_scale_likert_active,7533.8,NA,NA,Strongly Agree,1,0,1,0,NA,NA,NA,NA,1,statements,"I don't want it because it has been massed produced under a year, when it takes on average 10 years to produce a vaccine for public release.",1,17/05/2021 11:30,17/05/2021 11:56,1558,Rarely,Most months,35,Male,-99,"GCSEs,A levels,Undergraduate degree (BSc, BA)",49,1,Against,Against
51,1658860000000,26/07/2022 18:05,1658860000000,1,26/07/2022 19:05,93981,5,task-j4ag,NA,23317507,6842724,NA,complete,NA,62e02ba08c6ea3590bd8e7c2,computer,Desktop or Laptop,Chromium OS 14816.131.0,Chrome 103.0.0.0,1366x768,1366x613,NA,ITT Ratings,3,against,5,NA,NA,NA,ACCEPT,NA,NA,NA,NA,NA,NA,batch5hes,batch5hes,32,49,1,Screen 1,continueButton,response_rating_scale_likert_active,3043.1,NA,NA,Strongly Disagree,1,0,1,0,NA,NA,NA,NA,1,statements,I want to be protected,1,17/05/2021 11:33,17/05/2021 11:51,1071,Most weeks,A few times a year,34,Male,-99,"Undergraduate degree (BSc, BA)",45,2,Against,For
52,1658860000000,26/07/2022 18:05,1658860000000,1,26/07/2022 19:05,93981,5,task-j4ag,NA,23317507,6842724,NA,complete,NA,62e02ba08c6ea3590bd8e7c2,computer,Desktop or Laptop,Chromium OS 14816.131.0,Chrome 103.0.0.0,1366x768,1366x613,NA,ITT Ratings,3,against,5,NA,NA,NA,ACCEPT,NA,NA,NA,NA,NA,NA,batch5hes,batch5hes,37,50,1,Screen 1,continueButton,response_rating_scale_likert_active,2594.4,NA,NA,Strongly Disagree,1,0,1,0,NA,NA,NA,NA,1,statements,i want to protect myself,1,17/05/2021 11:43,17/05/2021 11:53,620,Most weeks,Most days,51,Female,-99,GCSEs,46,1,Against,For
53,1658860000000,26/07/2022 18:05,1658860000000,1,26/07/2022 19:05,93981,5,task-j4ag,NA,23317507,6842724,NA,complete,NA,62e02ba08c6ea3590bd8e7c2,computer,Desktop or Laptop,Chromium OS 14816.131.0,Chrome 103.0.0.0,1366x768,1366x613,NA,ITT Ratings,3,against,5,NA,NA,NA,ACCEPT,NA,NA,NA,NA,NA,NA,batch5hes,batch5hes,14,51,1,Screen 1,continueButton,response_rating_scale_likert_active,3857.1,NA,NA,Strongly Disagree,1,0,1,0,NA,NA,NA,NA,1,statements,I want to prevent my ability to infect others,1,17/05/2021 11:39,17/05/2021 11:43,295,Never,Rarely,24,Male,-99,"Undergraduate degree (BSc, BA)",42,2,Against,For
54,1658860000000,26/07/2022 18:05,1658860000000,1,26/07/2022 19:05,93981,5,task-j4ag,NA,23317507,6842724,NA,complete,NA,62e02ba08c6ea3590bd8e7c2,computer,Desktop or Laptop,Chromium OS 14816.131.0,Chrome 103.0.0.0,1366x768,1366x613,NA,ITT Ratings,3,against,5,NA,NA,NA,ACCEPT,NA,NA,NA,NA,NA,NA,batch5hes,batch5hes,19,52,1,Screen 1,continueButton,response_rating_scale_likert_active,3429,NA,NA,Strongly Disagree,1,0,1,0,NA,NA,NA,NA,1,statements,I want to beable to go on holiday,1,17/05/2021 11:33,17/05/2021 11:44,686,Most weeks,Most months,25,Male,-99,A levels,43,1,Against,For
55,1658860000000,26/07/2022 18:05,1658860000000,1,26/07/2022 19:05,93981,5,task-j4ag,NA,23317507,6842724,NA,complete,NA,62e02ba08c6ea3590bd8e7c2,computer,Desktop or Laptop,Chromium OS 14816.131.0,Chrome 103.0.0.0,1366x768,1366x613,NA,ITT Ratings,3,against,5,NA,NA,NA,ACCEPT,NA,NA,NA,NA,NA,NA,batch5hes,batch5hes,25,53,1,Screen 1,continueButton,response_rating_scale_likert_active,5215,NA,NA,Strongly Disagree,1,0,1,0,NA,NA,NA,NA,1,statements,Vulnerable person likely to become very ill with covid,1,17/05/2021 11:36,17/05/2021 11:45,556,Rarely,Most weeks,26,Female,-99,"Undergraduate degree (BSc, BA)",44,1,Against,For
56,1658860000000,26/07/2022 18:05,1658860000000,1,26/07/2022 19:05,93981,5,task-j4ag,NA,23317507,6842724,NA,complete,NA,62e02ba08c6ea3590bd8e7c2,computer,Desktop or Laptop,Chromium OS 14816.131.0,Chrome 103.0.0.0,1366x768,1366x613,NA,ITT Ratings,3,against,5,NA,NA,NA,ACCEPT,NA,NA,NA,NA,NA,NA,batch5hes,batch5hes,16,54,1,Screen 1,continueButton,response_rating_scale_likert_active,3708.4,NA,NA,Strongly Agree,1,0,1,0,NA,NA,NA,NA,1,statements,possible unsafe side effects,1,17/05/2021 11:33,17/05/2021 11:44,686,Most weeks,Most months,25,Male,-99,A levels,43,1,Against,Against
57,1658860000000,26/07/2022 18:05,1658860000000,1,26/07/2022 19:05,93981,5,task-j4ag,NA,23317507,6842724,NA,complete,NA,62e02ba08c6ea3590bd8e7c2,computer,Desktop or Laptop,Chromium OS 14816.131.0,Chrome 103.0.0.0,1366x768,1366x613,NA,ITT Ratings,3,against,5,NA,NA,NA,ACCEPT,NA,NA,NA,NA,NA,NA,batch5hes,batch5hes,22,55,1,Screen 1,continueButton,response_rating_scale_likert_active,3928.5,NA,NA,Strongly Agree,1,0,1,0,NA,NA,NA,NA,1,statements,Pregnant and dont want to risk my unborn childs life,1,17/05/2021 11:36,17/05/2021 11:45,556,Rarely,Most weeks,26,Female,-99,"Undergraduate degree (BSc, BA)",44,1,Against,Against
58,1658860000000,26/07/2022 18:05,1658860000000,1,26/07/2022 19:05,93981,5,task-j4ag,NA,23317507,6842724,NA,complete,NA,62e02ba08c6ea3590bd8e7c2,computer,Desktop or Laptop,Chromium OS 14816.131.0,Chrome 103.0.0.0,1366x768,1366x613,NA,ITT Ratings,3,against,5,NA,NA,NA,ACCEPT,NA,NA,NA,NA,NA,NA,batch5hes,batch5hes,28,56,1,Screen 1,continueButton,response_rating_scale_likert_active,2367.4,NA,NA,Strongly Agree,1,0,1,0,NA,NA,NA,NA,1,statements,the vaccine is not safe,1,17/05/2021 11:33,17/05/2021 11:51,1071,Most weeks,A few times a year,34,Male,-99,"Undergraduate degree (BSc, BA)",45,1,Against,Against
59,1658860000000,26/07/2022 18:05,1658860000000,1,26/07/2022 19:05,93981,5,task-j4ag,NA,23317507,6842724,NA,complete,NA,62e02ba08c6ea3590bd8e7c2,computer,Desktop or Laptop,Chromium OS 14816.131.0,Chrome 103.0.0.0,1366x768,1366x613,NA,ITT Ratings,3,against,5,NA,NA,NA,ACCEPT,NA,NA,NA,NA,NA,NA,batch5hes,batch5hes,31,57,1,Screen 1,continueButton,response_rating_scale_likert_active,3701.8,NA,NA,Disagree,1,0,1,0,NA,NA,NA,NA,1,statements,I trust the health care officials,1,17/05/2021 11:33,17/05/2021 11:51,1071,Most weeks,A few times a year,34,Male,-99,"Undergraduate degree (BSc, BA)",45,1,Against,For
60,1658860000000,26/07/2022 18:06,1658860000000,1,26/07/2022 19:06,93981,5,task-j4ag,NA,23317507,6842724,NA,complete,NA,62e02ba08c6ea3590bd8e7c2,computer,Desktop or Laptop,Chromium OS 14816.131.0,Chrome 103.0.0.0,1366x768,1366x613,NA,ITT Ratings,3,against,5,NA,NA,NA,ACCEPT,NA,NA,NA,NA,NA,NA,batch5hes,batch5hes,57,58,1,Screen 1,continueButton,response_rating_scale_likert_active,4760.2,NA,NA,Disagree,1,0,1,0,NA,NA,NA,NA,1,statements,I want to protect myself from covid 19,1,17/05/2021 11:30,17/05/2021 11:56,1558,Rarely,Most months,35,Male,-99,"GCSEs,A levels,Undergraduate degree (BSc, BA)",49,3,Against,For
61,1658860000000,26/07/2022 18:06,1658860000000,1,26/07/2022 19:06,93981,5,task-j4ag,NA,23317507,6842724,NA,complete,NA,62e02ba08c6ea3590bd8e7c2,computer,Desktop or Laptop,Chromium OS 14816.131.0,Chrome 103.0.0.0,1366x768,1366x613,NA,ITT Ratings,3,against,5,NA,NA,NA,ACCEPT,NA,NA,NA,NA,NA,NA,batch5hes,batch5hes,50,59,1,Screen 1,continueButton,response_rating_scale_likert_active,3532,NA,NA,Strongly Disagree,1,0,1,0,NA,NA,NA,NA,1,statements,Getting vaccinated helps reduce the spread of the virus.,1,17/05/2021 11:10,17/05/2021 11:56,2717,Rarely,Rarely,38,Male,-99,A levels,48,2,Against,For
62,1658860000000,26/07/2022 18:06,1658860000000,1,26/07/2022 19:06,93981,5,task-j4ag,NA,23317507,6842724,NA,complete,NA,62e02ba08c6ea3590bd8e7c2,computer,Desktop or Laptop,Chromium OS 14816.131.0,Chrome 103.0.0.0,1366x768,1366x613,NA,ITT Ratings,3,against,5,NA,NA,NA,ACCEPT,NA,NA,NA,NA,NA,NA,batch5hes,batch5hes,43,60,1,Screen 1,continueButton,response_rating_scale_likert_active,4712.1,NA,NA,Strongly Disagree,1,0,1,0,NA,NA,NA,NA,1,statements,It will help protect vulnerable people,1,17/05/2021 11:49,17/05/2021 11:54,314,Rarely,Most days,27,Female,-99,"Undergraduate degree (BSc, BA)",47,1,Against,For
63,1658860000000,26/07/2022 18:06,1658860000000,1,26/07/2022 19:06,93981,5,task-j4ag,NA,23317507,6842724,NA,complete,NA,62e02ba08c6ea3590bd8e7c2,computer,Desktop or Laptop,Chromium OS 14816.131.0,Chrome 103.0.0.0,1366x768,1366x613,NA,ITT Ratings,3,against,5,NA,NA,NA,ACCEPT,NA,NA,NA,NA,NA,NA,batch5hes,batch5hes,18,61,1,Screen 1,continueButton,response_rating_scale_likert_active,5527,NA,NA,Strongly Agree,1,0,1,0,NA,NA,NA,NA,1,statements,can cause problems that werent there initially,1,17/05/2021 11:33,17/05/2021 11:44,686,Most weeks,Most months,25,Male,-99,A levels,43,3,Against,Against
64,1658860000000,26/07/2022 18:06,1658860000000,1,26/07/2022 19:06,93981,5,task-j4ag,NA,23317507,6842724,NA,complete,NA,62e02ba08c6ea3590bd8e7c2,computer,Desktop or Laptop,Chromium OS 14816.131.0,Chrome 103.0.0.0,1366x768,1366x613,NA,ITT Ratings,3,against,5,NA,NA,NA,ACCEPT,NA,NA,NA,NA,NA,NA,batch5hes,batch5hes,46,62,1,Screen 1,continueButton,response_rating_scale_likert_active,3759.5,NA,NA,Strongly Agree,1,0,1,0,NA,NA,NA,NA,1,statements,The government cannot be trusted to tell the truth.,1,17/05/2021 11:10,17/05/2021 11:56,2717,Rarely,Rarely,38,Male,-99,A levels,48,1,Against,Against
65,1658860000000,26/07/2022 18:06,1658860000000,1,26/07/2022 19:06,93981,5,task-j4ag,NA,23317507,6842724,NA,complete,NA,62e02ba08c6ea3590bd8e7c2,computer,Desktop or Laptop,Chromium OS 14816.131.0,Chrome 103.0.0.0,1366x768,1366x613,NA,ITT Ratings,3,against,5,NA,NA,NA,ACCEPT,NA,NA,NA,NA,NA,NA,batch5hes,NA,NA,END TASK,NA,NA,NA,NA,347332,NA,NA,NA,NA,0,1,0,NA,NA,NA,NA,NA,NA,NA,NA,NA,NA,NA,NA,NA,NA,NA,NA,NA,NA,NA,NA,NA
1,1658860000000,26/07/2022 18:03,1658860000000,1,26/07/2022 19:03,93981,5,task-j4ag,NA,23317598,6842748,NA,complete,NA,62e02c0c175040e004ceadf9,computer,Desktop or Laptop,Windows 10,Chrome 103.0.0.0,1366x768,1366x695,NA,ITT Ratings,3,against,5,NA,NA,NA,ACCEPT,NA,NA,NA,NA,NA,NA,batch5hes,NA,NA,BEGIN TASK,NA,NA,NA,NA,NA,NA,NA,NA,NA,0,1,0,NA,NA,NA,NA,NA,NA,NA,NA,NA,NA,NA,NA,NA,NA,NA,NA,NA,NA,NA,NA,NA
2,1658860000000,26/07/2022 18:03,1658860000000,1,26/07/2022 19:03,93981,5,task-j4ag,NA,23317598,6842748,NA,complete,NA,62e02c0c175040e004ceadf9,computer,Desktop or Laptop,Windows 10,Chrome 103.0.0.0,1366x768,1366x695,NA,ITT Ratings,3,against,5,NA,NA,NA,ACCEPT,NA,NA,NA,NA,NA,NA,batch5hes,batch5hes,1,1,1,Screen 1,advancementZone,continue_button,7400.1,NA,NA,NA,NA,0,1,0,NA,NA,NA,NA,NA,instructions,NA,NA,NA,NA,NA,NA,NA,NA,NA,NA,NA,NA,NA,NA,NA
3,1658860000000,26/07/2022 18:03,1658860000000,1,26/07/2022 19:03,93981,5,task-j4ag,NA,23317598,6842748,NA,complete,NA,62e02c0c175040e004ceadf9,computer,Desktop or Laptop,Windows 10,Chrome 103.0.0.0,1366x768,1366x695,NA,ITT Ratings,3,against,5,NA,NA,NA,ACCEPT,NA,NA,NA,NA,NA,NA,batch5hes,batch5hes,31,1,1,Screen 1,continueButton,response_rating_scale_likert_active,4116.8,NA,NA,Disagree,1,0,1,0,NA,NA,NA,NA,1,statements,I trust the health care officials,1,17/05/2021 11:33,17/05/2021 11:51,1071,Most weeks,A few times a year,34,Male,-99,"Undergraduate degree (BSc, BA)",45,1,Against,For
4,1658860000000,26/07/2022 18:04,1658860000000,1,26/07/2022 19:04,93981,5,task-j4ag,NA,23317598,6842748,NA,complete,NA,62e02c0c175040e004ceadf9,computer,Desktop or Laptop,Windows 10,Chrome 103.0.0.0,1366x768,1366x695,NA,ITT Ratings,3,against,5,NA,NA,NA,ACCEPT,NA,NA,NA,NA,NA,NA,batch5hes,batch5hes,6,2,1,Screen 1,continueButton,response_rating_scale_likert_active,7658.8,NA,NA,Somewhat Agree,1,0,1,0,NA,NA,NA,NA,1,statements,New variants may arise and that would invalidate old vaccines already taken,1,17/05/2021 11:29,17/05/2021 11:43,849,Rarely,Most months,29,Female,-99,"Postgraduate degree (MSc, MA, MPhil)",41,3,Against,Against
5,1658860000000,26/07/2022 18:04,1658860000000,1,26/07/2022 19:04,93981,5,task-j4ag,NA,23317598,6842748,NA,complete,NA,62e02c0c175040e004ceadf9,computer,Desktop or Laptop,Windows 10,Chrome 103.0.0.0,1366x768,1366x695,NA,ITT Ratings,3,against,5,NA,NA,NA,ACCEPT,NA,NA,NA,NA,NA,NA,batch5hes,batch5hes,23,3,1,Screen 1,continueButton,response_rating_scale_likert_active,13511.2,NA,NA,Strongly Agree,1,0,1,0,NA,NA,NA,NA,1,statements,Breastfeeding and not enough trials/evidence to support the effects of potential transmission to my baby through milk,1,17/05/2021 11:36,17/05/2021 11:45,556,Rarely,Most weeks,26,Female,-99,"Undergraduate degree (BSc, BA)",44,2,Against,Against
6,1658860000000,26/07/2022 18:04,1658860000000,1,26/07/2022 19:04,93981,5,task-j4ag,NA,23317598,6842748,NA,complete,NA,62e02c0c175040e004ceadf9,computer,Desktop or Laptop,Windows 10,Chrome 103.0.0.0,1366x768,1366x695,NA,ITT Ratings,3,against,5,NA,NA,NA,ACCEPT,NA,NA,NA,NA,NA,NA,batch5hes,batch5hes,4,4,1,Screen 1,continueButton,response_rating_scale_likert_active,2595.5,NA,NA,Strongly Agree,1,0,1,0,NA,NA,NA,NA,1,statements,It has not been tested extensively on every demographic and race,1,17/05/2021 11:29,17/05/2021 11:43,849,Rarely,Most months,29,Female,-99,"Postgraduate degree (MSc, MA, MPhil)",41,1,Against,Against
7,1658860000000,26/07/2022 18:04,1658860000000,1,26/07/2022 19:04,93981,5,task-j4ag,NA,23317598,6842748,NA,complete,NA,62e02c0c175040e004ceadf9,computer,Desktop or Laptop,Windows 10,Chrome 103.0.0.0,1366x768,1366x695,NA,ITT Ratings,3,against,5,NA,NA,NA,ACCEPT,NA,NA,NA,NA,NA,NA,batch5hes,batch5hes,33,5,1,Screen 1,continueButton,response_rating_scale_likert_active,2492.4,NA,NA,Strongly Disagree,1,0,1,0,NA,NA,NA,NA,1,statements,I believe it is safe,1,17/05/2021 11:33,17/05/2021 11:51,1071,Most weeks,A few times a year,34,Male,-99,"Undergraduate degree (BSc, BA)",45,3,Against,For
8,1658860000000,26/07/2022 18:04,1658860000000,1,26/07/2022 19:04,93981,5,task-j4ag,NA,23317598,6842748,NA,complete,NA,62e02c0c175040e004ceadf9,computer,Desktop or Laptop,Windows 10,Chrome 103.0.0.0,1366x768,1366x695,NA,ITT Ratings,3,against,5,NA,NA,NA,ACCEPT,NA,NA,NA,NA,NA,NA,batch5hes,batch5hes,63,6,1,Screen 1,continueButton,response_rating_scale_likert_active,3905.5,NA,NA,Neither Agree nor Disagree,1,0,1,0,NA,NA,NA,NA,1,statements,It will mean I can meet family members,1,17/05/2021 11:50,17/05/2021 11:57,423,Most weeks,Most weeks,48,Male,-99,"Undergraduate degree (BSc, BA)",50,3,Against,For
9,1658860000000,26/07/2022 18:04,1658860000000,1,26/07/2022 19:04,93981,5,task-j4ag,NA,23317598,6842748,NA,complete,NA,62e02c0c175040e004ceadf9,computer,Desktop or Laptop,Windows 10,Chrome 103.0.0.0,1366x768,1366x695,NA,ITT Ratings,3,against,5,NA,NA,NA,ACCEPT,NA,NA,NA,NA,NA,NA,batch5hes,batch5hes,5,7,1,Screen 1,continueButton,response_rating_scale_likert_active,4323.3,NA,NA,Agree,1,0,1,0,NA,NA,NA,NA,1,statements,It was made too quickly and compromises to its integrity may have been made,1,17/05/2021 11:29,17/05/2021 11:43,849,Rarely,Most months,29,Female,-99,"Postgraduate degree (MSc, MA, MPhil)",41,2,Against,Against
10,1658860000000,26/07/2022 18:04,1658860000000,1,26/07/2022 19:04,93981,5,task-j4ag,NA,23317598,6842748,NA,complete,NA,62e02c0c175040e004ceadf9,computer,Desktop or Laptop,Windows 10,Chrome 103.0.0.0,1366x768,1366x695,NA,ITT Ratings,3,against,5,NA,NA,NA,ACCEPT,NA,NA,NA,NA,NA,NA,batch5hes,batch5hes,9,8,1,Screen 1,continueButton,response_rating_scale_likert_active,3697.2,NA,NA,Neither Agree nor Disagree,1,0,1,0,NA,NA,NA,NA,1,statements,I want to be able to visit vulnerable friends and loved ones without being a risk factor to them,1,17/05/2021 11:29,17/05/2021 11:43,849,Rarely,Most months,29,Female,-99,"Postgraduate degree (MSc, MA, MPhil)",41,3,Against,For
11,1658860000000,26/07/2022 18:04,1658860000000,1,26/07/2022 19:04,93981,5,task-j4ag,NA,23317598,6842748,NA,complete,NA,62e02c0c175040e004ceadf9,computer,Desktop or Laptop,Windows 10,Chrome 103.0.0.0,1366x768,1366x695,NA,ITT Ratings,3,against,5,NA,NA,NA,ACCEPT,NA,NA,NA,NA,NA,NA,batch5hes,batch5hes,29,9,1,Screen 1,continueButton,response_rating_scale_likert_active,2951.8,NA,NA,Strongly Agree,1,0,1,0,NA,NA,NA,NA,1,statements,it was developed too fast,1,17/05/2021 11:33,17/05/2021 11:51,1071,Most weeks,A few times a year,34,Male,-99,"Undergraduate degree (BSc, BA)",45,2,Against,Against
12,1658860000000,26/07/2022 18:04,1658860000000,1,26/07/2022 19:04,93981,5,task-j4ag,NA,23317598,6842748,NA,complete,NA,62e02c0c175040e004ceadf9,computer,Desktop or Laptop,Windows 10,Chrome 103.0.0.0,1366x768,1366x695,NA,ITT Ratings,3,against,5,NA,NA,NA,ACCEPT,NA,NA,NA,NA,NA,NA,batch5hes,batch5hes,14,10,1,Screen 1,continueButton,response_rating_scale_likert_active,8356.6,NA,NA,Somewhat Agree,1,0,1,0,NA,NA,NA,NA,1,statements,I want to prevent my ability to infect others,1,17/05/2021 11:39,17/05/2021 11:43,295,Never,Rarely,24,Male,-99,"Undergraduate degree (BSc, BA)",42,2,Against,For
13,1658860000000,26/07/2022 18:04,1658860000000,1,26/07/2022 19:04,93981,5,task-j4ag,NA,23317598,6842748,NA,complete,NA,62e02c0c175040e004ceadf9,computer,Desktop or Laptop,Windows 10,Chrome 103.0.0.0,1366x768,1366x695,NA,ITT Ratings,3,against,5,NA,NA,NA,ACCEPT,NA,NA,NA,NA,NA,NA,batch5hes,batch5hes,28,11,1,Screen 1,continueButton,response_rating_scale_likert_active,2058,NA,NA,Strongly Agree,1,0,1,0,NA,NA,NA,NA,1,statements,the vaccine is not safe,1,17/05/2021 11:33,17/05/2021 11:51,1071,Most weeks,A few times a year,34,Male,-99,"Undergraduate degree (BSc, BA)",45,1,Against,Against
14,1658860000000,26/07/2022 18:04,1658860000000,1,26/07/2022 19:04,93981,5,task-j4ag,NA,23317598,6842748,NA,complete,NA,62e02c0c175040e004ceadf9,computer,Desktop or Laptop,Windows 10,Chrome 103.0.0.0,1366x768,1366x695,NA,ITT Ratings,3,against,5,NA,NA,NA,ACCEPT,NA,NA,NA,NA,NA,NA,batch5hes,batch5hes,16,12,1,Screen 1,continueButton,response_rating_scale_likert_active,1617.9,NA,NA,Strongly Agree,1,0,1,0,NA,NA,NA,NA,1,statements,possible unsafe side effects,1,17/05/2021 11:33,17/05/2021 11:44,686,Most weeks,Most months,25,Male,-99,A levels,43,1,Against,Against
15,1658860000000,26/07/2022 18:04,1658860000000,1,26/07/2022 19:04,93981,5,task-j4ag,NA,23317598,6842748,NA,complete,NA,62e02c0c175040e004ceadf9,computer,Desktop or Laptop,Windows 10,Chrome 103.0.0.0,1366x768,1366x695,NA,ITT Ratings,3,against,5,NA,NA,NA,ACCEPT,NA,NA,NA,NA,NA,NA,batch5hes,batch5hes,38,13,1,Screen 1,continueButton,response_rating_scale_likert_active,2519.9,NA,NA,Neither Agree nor Disagree,1,0,1,0,NA,NA,NA,NA,1,statements,i want to protect others,1,17/05/2021 11:43,17/05/2021 11:53,620,Most weeks,Most days,51,Female,-99,GCSEs,46,2,Against,For
16,1658860000000,26/07/2022 18:04,1658860000000,1,26/07/2022 19:04,93981,5,task-j4ag,NA,23317598,6842748,NA,complete,NA,62e02c0c175040e004ceadf9,computer,Desktop or Laptop,Windows 10,Chrome 103.0.0.0,1366x768,1366x695,NA,ITT Ratings,3,against,5,NA,NA,NA,ACCEPT,NA,NA,NA,NA,NA,NA,batch5hes,batch5hes,22,14,1,Screen 1,continueButton,response_rating_scale_likert_active,3412.1,NA,NA,Agree,1,0,1,0,NA,NA,NA,NA,1,statements,Pregnant and dont want to risk my unborn childs life,1,17/05/2021 11:36,17/05/2021 11:45,556,Rarely,Most weeks,26,Female,-99,"Undergraduate degree (BSc, BA)",44,1,Against,Against
17,1658860000000,26/07/2022 18:05,1658860000000,1,26/07/2022 19:05,93981,5,task-j4ag,NA,23317598,6842748,NA,complete,NA,62e02c0c175040e004ceadf9,computer,Desktop or Laptop,Windows 10,Chrome 103.0.0.0,1366x768,1366x695,NA,ITT Ratings,3,against,5,NA,NA,NA,ACCEPT,NA,NA,NA,NA,NA,NA,batch5hes,batch5hes,50,15,1,Screen 1,continueButton,response_rating_scale_likert_active,3309.1,NA,NA,Somewhat Disagree,1,0,1,0,NA,NA,NA,NA,1,statements,Getting vaccinated helps reduce the spread of the virus.,1,17/05/2021 11:10,17/05/2021 11:56,2717,Rarely,Rarely,38,Male,-99,A levels,48,2,Against,For
18,1658860000000,26/07/2022 18:05,1658860000000,1,26/07/2022 19:05,93981,5,task-j4ag,NA,23317598,6842748,NA,complete,NA,62e02c0c175040e004ceadf9,computer,Desktop or Laptop,Windows 10,Chrome 103.0.0.0,1366x768,1366x695,NA,ITT Ratings,3,against,5,NA,NA,NA,ACCEPT,NA,NA,NA,NA,NA,NA,batch5hes,batch5hes,18,16,1,Screen 1,continueButton,response_rating_scale_likert_active,2678.9,NA,NA,Strongly Agree,1,0,1,0,NA,NA,NA,NA,1,statements,can cause problems that werent there initially,1,17/05/2021 11:33,17/05/2021 11:44,686,Most weeks,Most months,25,Male,-99,A levels,43,3,Against,Against
19,1658860000000,26/07/2022 18:05,1658860000000,1,26/07/2022 19:05,93981,5,task-j4ag,NA,23317598,6842748,NA,complete,NA,62e02c0c175040e004ceadf9,computer,Desktop or Laptop,Windows 10,Chrome 103.0.0.0,1366x768,1366x695,NA,ITT Ratings,3,against,5,NA,NA,NA,ACCEPT,NA,NA,NA,NA,NA,NA,batch5hes,batch5hes,35,17,1,Screen 1,continueButton,response_rating_scale_likert_active,2863.6,NA,NA,Agree,1,0,1,0,NA,NA,NA,NA,1,statements,covid doesn't kill you,1,17/05/2021 11:43,17/05/2021 11:53,620,Most weeks,Most days,51,Female,-99,GCSEs,46,2,Against,Against
20,1658860000000,26/07/2022 18:05,1658860000000,1,26/07/2022 19:05,93981,5,task-j4ag,NA,23317598,6842748,NA,complete,NA,62e02c0c175040e004ceadf9,computer,Desktop or Laptop,Windows 10,Chrome 103.0.0.0,1366x768,1366x695,NA,ITT Ratings,3,against,5,NA,NA,NA,ACCEPT,NA,NA,NA,NA,NA,NA,batch5hes,batch5hes,13,18,1,Screen 1,continueButton,response_rating_scale_likert_active,4220.2,NA,NA,Neither Agree nor Disagree,1,0,1,0,NA,NA,NA,NA,1,statements,I want to be immune from the disease,1,17/05/2021 11:39,17/05/2021 11:43,295,Never,Rarely,24,Male,-99,"Undergraduate degree (BSc, BA)",42,1,Against,For
21,1658860000000,26/07/2022 18:05,1658860000000,1,26/07/2022 19:05,93981,5,task-j4ag,NA,23317598,6842748,NA,complete,NA,62e02c0c175040e004ceadf9,computer,Desktop or Laptop,Windows 10,Chrome 103.0.0.0,1366x768,1366x695,NA,ITT Ratings,3,against,5,NA,NA,NA,ACCEPT,NA,NA,NA,NA,NA,NA,batch5hes,batch5hes,41,19,1,Screen 1,continueButton,response_rating_scale_likert_active,4170,NA,NA,Strongly Agree,1,0,1,0,NA,NA,NA,NA,1,statements,I am healthy and young so no benefit to me,1,17/05/2021 11:49,17/05/2021 11:54,314,Rarely,Most days,27,Female,-99,"Undergraduate degree (BSc, BA)",47,2,Against,Against
22,1658860000000,26/07/2022 18:05,1658860000000,1,26/07/2022 19:05,93981,5,task-j4ag,NA,23317598,6842748,NA,complete,NA,62e02c0c175040e004ceadf9,computer,Desktop or Laptop,Windows 10,Chrome 103.0.0.0,1366x768,1366x695,NA,ITT Ratings,3,against,5,NA,NA,NA,ACCEPT,NA,NA,NA,NA,NA,NA,batch5hes,batch5hes,51,20,1,Screen 1,continueButton,response_rating_scale_likert_active,2510.4,NA,NA,Neither Agree nor Disagree,1,0,1,0,NA,NA,NA,NA,1,statements,I can interact with elderly members of my family.,1,17/05/2021 11:10,17/05/2021 11:56,2717,Rarely,Rarely,38,Male,-99,A levels,48,3,Against,For
23,1658860000000,26/07/2022 18:05,1658860000000,1,26/07/2022 19:05,93981,5,task-j4ag,NA,23317598,6842748,NA,complete,NA,62e02c0c175040e004ceadf9,computer,Desktop or Laptop,Windows 10,Chrome 103.0.0.0,1366x768,1366x695,NA,ITT Ratings,3,against,5,NA,NA,NA,ACCEPT,NA,NA,NA,NA,NA,NA,batch5hes,batch5hes,24,21,1,Screen 1,continueButton,response_rating_scale_likert_active,1661,NA,NA,Agree,1,0,1,0,NA,NA,NA,NA,1,statements,Don't feel I need it,1,17/05/2021 11:36,17/05/2021 11:45,556,Rarely,Most weeks,26,Female,-99,"Undergraduate degree (BSc, BA)",44,3,Against,Against
24,1658860000000,26/07/2022 18:05,1658860000000,1,26/07/2022 19:05,93981,5,task-j4ag,NA,23317598,6842748,NA,complete,NA,62e02c0c175040e004ceadf9,computer,Desktop or Laptop,Windows 10,Chrome 103.0.0.0,1366x768,1366x695,NA,ITT Ratings,3,against,5,NA,NA,NA,ACCEPT,NA,NA,NA,NA,NA,NA,batch5hes,batch5hes,45,22,1,Screen 1,continueButton,response_rating_scale_likert_active,4877.9,NA,NA,Somewhat Disagree,1,0,1,0,NA,NA,NA,NA,1,statements,The more people that are vaccinated the quicker things will return to normal,1,17/05/2021 11:49,17/05/2021 11:54,314,Rarely,Most days,27,Female,-99,"Undergraduate degree (BSc, BA)",47,3,Against,For
25,1658860000000,26/07/2022 18:05,1658860000000,1,26/07/2022 19:05,93981,5,task-j4ag,NA,23317598,6842748,NA,complete,NA,62e02c0c175040e004ceadf9,computer,Desktop or Laptop,Windows 10,Chrome 103.0.0.0,1366x768,1366x695,NA,ITT Ratings,3,against,5,NA,NA,NA,ACCEPT,NA,NA,NA,NA,NA,NA,batch5hes,batch5hes,12,23,1,Screen 1,continueButton,response_rating_scale_likert_active,4887.1,NA,NA,Strongly Agree,1,0,1,0,NA,NA,NA,NA,1,statements,I am not sure about the testing and long term effects (both positive and negative) of the vaccine.,1,17/05/2021 11:39,17/05/2021 11:43,295,Never,Rarely,24,Male,-99,"Undergraduate degree (BSc, BA)",42,3,Against,Against
26,1658860000000,26/07/2022 18:05,1658860000000,1,26/07/2022 19:05,93981,5,task-j4ag,NA,23317598,6842748,NA,complete,NA,62e02c0c175040e004ceadf9,computer,Desktop or Laptop,Windows 10,Chrome 103.0.0.0,1366x768,1366x695,NA,ITT Ratings,3,against,5,NA,NA,NA,ACCEPT,NA,NA,NA,NA,NA,NA,batch5hes,batch5hes,58,24,1,Screen 1,continueButton,response_rating_scale_likert_active,1529.3,NA,NA,Strongly Agree,1,0,1,0,NA,NA,NA,NA,1,statements,It is not safe and has not been tested properly,1,17/05/2021 11:50,17/05/2021 11:57,423,Most weeks,Most weeks,48,Male,-99,"Undergraduate degree (BSc, BA)",50,1,Against,Against
27,1658860000000,26/07/2022 18:05,1658860000000,1,26/07/2022 19:05,93981,5,task-j4ag,NA,23317598,6842748,NA,complete,NA,62e02c0c175040e004ceadf9,computer,Desktop or Laptop,Windows 10,Chrome 103.0.0.0,1366x768,1366x695,NA,ITT Ratings,3,against,5,NA,NA,NA,ACCEPT,NA,NA,NA,NA,NA,NA,batch5hes,batch5hes,46,25,1,Screen 1,continueButton,response_rating_scale_likert_active,1994.1,NA,NA,Strongly Agree,1,0,1,0,NA,NA,NA,NA,1,statements,The government cannot be trusted to tell the truth.,1,17/05/2021 11:10,17/05/2021 11:56,2717,Rarely,Rarely,38,Male,-99,A levels,48,1,Against,Against
28,1658860000000,26/07/2022 18:05,1658860000000,1,26/07/2022 19:05,93981,5,task-j4ag,NA,23317598,6842748,NA,complete,NA,62e02c0c175040e004ceadf9,computer,Desktop or Laptop,Windows 10,Chrome 103.0.0.0,1366x768,1366x695,NA,ITT Ratings,3,against,5,NA,NA,NA,ACCEPT,NA,NA,NA,NA,NA,NA,batch5hes,batch5hes,54,26,1,Screen 1,continueButton,response_rating_scale_likert_active,12754.6,NA,NA,Agree,1,0,1,0,NA,NA,NA,NA,1,statements,Companies offering incentives to get the vaccine. Videos showing metal sticking to the arms of people in the position where the jab was taken- feels very suspect and untrustworthy promotion.,1,17/05/2021 11:30,17/05/2021 11:56,1558,Rarely,Most months,35,Male,-99,"GCSEs,A levels,Undergraduate degree (BSc, BA)",49,3,Against,Against
29,1658860000000,26/07/2022 18:05,1658860000000,1,26/07/2022 19:05,93981,5,task-j4ag,NA,23317598,6842748,NA,complete,NA,62e02c0c175040e004ceadf9,computer,Desktop or Laptop,Windows 10,Chrome 103.0.0.0,1366x768,1366x695,NA,ITT Ratings,3,against,5,NA,NA,NA,ACCEPT,NA,NA,NA,NA,NA,NA,batch5hes,batch5hes,49,27,1,Screen 1,continueButton,response_rating_scale_likert_active,3968.3,NA,NA,Somewhat Disagree,1,0,1,0,NA,NA,NA,NA,1,statements,Being vaccinated enables lockdown to be rescinded.,1,17/05/2021 11:10,17/05/2021 11:56,2717,Rarely,Rarely,38,Male,-99,A levels,48,1,Against,For
30,1658860000000,26/07/2022 18:05,1658860000000,1,26/07/2022 19:05,93981,5,task-j4ag,NA,23317598,6842748,NA,complete,NA,62e02c0c175040e004ceadf9,computer,Desktop or Laptop,Windows 10,Chrome 103.0.0.0,1366x768,1366x695,NA,ITT Ratings,3,against,5,NA,NA,NA,ACCEPT,NA,NA,NA,NA,NA,NA,batch5hes,batch5hes,37,28,1,Screen 1,continueButton,response_rating_scale_likert_active,2680.4,NA,NA,Somewhat Agree,1,0,1,0,NA,NA,NA,NA,1,statements,i want to protect myself,1,17/05/2021 11:43,17/05/2021 11:53,620,Most weeks,Most days,51,Female,-99,GCSEs,46,1,Against,For
31,1658860000000,26/07/2022 18:05,1658860000000,1,26/07/2022 19:05,93981,5,task-j4ag,NA,23317598,6842748,NA,complete,NA,62e02c0c175040e004ceadf9,computer,Desktop or Laptop,Windows 10,Chrome 103.0.0.0,1366x768,1366x695,NA,ITT Ratings,3,against,5,NA,NA,NA,ACCEPT,NA,NA,NA,NA,NA,NA,batch5hes,batch5hes,62,29,1,Screen 1,continueButton,response_rating_scale_likert_active,1950.5,NA,NA,Neither Agree nor Disagree,1,0,1,0,NA,NA,NA,NA,1,statements,It will enable me to carry on as normal,1,17/05/2021 11:50,17/05/2021 11:57,423,Most weeks,Most weeks,48,Male,-99,"Undergraduate degree (BSc, BA)",50,2,Against,For
32,1658860000000,26/07/2022 18:05,1658860000000,1,26/07/2022 19:05,93981,5,task-j4ag,NA,23317598,6842748,NA,complete,NA,62e02c0c175040e004ceadf9,computer,Desktop or Laptop,Windows 10,Chrome 103.0.0.0,1366x768,1366x695,NA,ITT Ratings,3,against,5,NA,NA,NA,ACCEPT,NA,NA,NA,NA,NA,NA,batch5hes,batch5hes,61,30,1,Screen 1,continueButton,response_rating_scale_likert_active,1486.8,NA,NA,Neither Agree nor Disagree,1,0,1,0,NA,NA,NA,NA,1,statements,It will protect me,1,17/05/2021 11:50,17/05/2021 11:57,423,Most weeks,Most weeks,48,Male,-99,"Undergraduate degree (BSc, BA)",50,1,Against,For
33,1658860000000,26/07/2022 18:05,1658860000000,1,26/07/2022 19:05,93981,5,task-j4ag,NA,23317598,6842748,NA,complete,NA,62e02c0c175040e004ceadf9,computer,Desktop or Laptop,Windows 10,Chrome 103.0.0.0,1366x768,1366x695,NA,ITT Ratings,3,against,5,NA,NA,NA,ACCEPT,NA,NA,NA,NA,NA,NA,batch5hes,batch5hes,42,31,1,Screen 1,continueButton,response_rating_scale_likert_active,2790.4,NA,NA,Somewhat Agree,1,0,1,0,NA,NA,NA,NA,1,statements,You can't trust vaccines as the pharmaceutical industry just wants to make money,1,17/05/2021 11:49,17/05/2021 11:54,314,Rarely,Most days,27,Female,-99,"Undergraduate degree (BSc, BA)",47,3,Against,Against
34,1658860000000,26/07/2022 18:06,1658860000000,1,26/07/2022 19:06,93981,5,task-j4ag,NA,23317598,6842748,NA,complete,NA,62e02c0c175040e004ceadf9,computer,Desktop or Laptop,Windows 10,Chrome 103.0.0.0,1366x768,1366x695,NA,ITT Ratings,3,against,5,NA,NA,NA,ACCEPT,NA,NA,NA,NA,NA,NA,batch5hes,batch5hes,21,32,1,Screen 1,continueButton,response_rating_scale_likert_active,2090.6,NA,NA,Somewhat Disagree,1,0,1,0,NA,NA,NA,NA,1,statements,thinks it necessary,1,17/05/2021 11:33,17/05/2021 11:44,686,Most weeks,Most months,25,Male,-99,A levels,43,3,Against,For
35,1658860000000,26/07/2022 18:06,1658860000000,1,26/07/2022 19:06,93981,5,task-j4ag,NA,23317598,6842748,NA,complete,NA,62e02c0c175040e004ceadf9,computer,Desktop or Laptop,Windows 10,Chrome 103.0.0.0,1366x768,1366x695,NA,ITT Ratings,3,against,5,NA,NA,NA,ACCEPT,NA,NA,NA,NA,NA,NA,batch5hes,batch5hes,44,33,1,Screen 1,continueButton,response_rating_scale_likert_active,3537.1,NA,NA,Strongly Disagree,1,0,1,0,NA,NA,NA,NA,1,statements,It has been approved so is safe,1,17/05/2021 11:49,17/05/2021 11:54,314,Rarely,Most days,27,Female,-99,"Undergraduate degree (BSc, BA)",47,2,Against,For
36,1658860000000,26/07/2022 18:06,1658860000000,1,26/07/2022 19:06,93981,5,task-j4ag,NA,23317598,6842748,NA,complete,NA,62e02c0c175040e004ceadf9,computer,Desktop or Laptop,Windows 10,Chrome 103.0.0.0,1366x768,1366x695,NA,ITT Ratings,3,against,5,NA,NA,NA,ACCEPT,NA,NA,NA,NA,NA,NA,batch5hes,batch5hes,11,34,1,Screen 1,continueButton,response_rating_scale_likert_active,6009.9,NA,NA,Somewhat Agree,1,0,1,0,NA,NA,NA,NA,1,statements,"I am not overweight or obese, nor have any underlying health conditions",1,17/05/2021 11:39,17/05/2021 11:43,295,Never,Rarely,24,Male,-99,"Undergraduate degree (BSc, BA)",42,2,Against,Against
37,1658860000000,26/07/2022 18:06,1658860000000,1,26/07/2022 19:06,93981,5,task-j4ag,NA,23317598,6842748,NA,complete,NA,62e02c0c175040e004ceadf9,computer,Desktop or Laptop,Windows 10,Chrome 103.0.0.0,1366x768,1366x695,NA,ITT Ratings,3,against,5,NA,NA,NA,ACCEPT,NA,NA,NA,NA,NA,NA,batch5hes,batch5hes,8,35,1,Screen 1,continueButton,response_rating_scale_likert_active,2225.5,NA,NA,Somewhat Agree,1,0,1,0,NA,NA,NA,NA,1,statements,I am tired of lockdown,1,17/05/2021 11:29,17/05/2021 11:43,849,Rarely,Most months,29,Female,-99,"Postgraduate degree (MSc, MA, MPhil)",41,2,Against,For
38,1658860000000,26/07/2022 18:06,1658860000000,1,26/07/2022 19:06,93981,5,task-j4ag,NA,23317598,6842748,NA,complete,NA,62e02c0c175040e004ceadf9,computer,Desktop or Laptop,Windows 10,Chrome 103.0.0.0,1366x768,1366x695,NA,ITT Ratings,3,against,5,NA,NA,NA,ACCEPT,NA,NA,NA,NA,NA,NA,batch5hes,batch5hes,10,36,1,Screen 1,continueButton,response_rating_scale_likert_active,4934.9,NA,NA,Agree,1,0,1,0,NA,NA,NA,NA,1,statements,"I am young and healthy, therefore I am extremely low risk at developing serious complications from COVID",1,17/05/2021 11:39,17/05/2021 11:43,295,Never,Rarely,24,Male,-99,"Undergraduate degree (BSc, BA)",42,1,Against,Against
39,1658860000000,26/07/2022 18:06,1658860000000,1,26/07/2022 19:06,93981,5,task-j4ag,NA,23317598,6842748,NA,complete,NA,62e02c0c175040e004ceadf9,computer,Desktop or Laptop,Windows 10,Chrome 103.0.0.0,1366x768,1366x695,NA,ITT Ratings,3,against,5,NA,NA,NA,ACCEPT,NA,NA,NA,NA,NA,NA,batch5hes,batch5hes,30,37,1,Screen 1,continueButton,response_rating_scale_likert_active,1865.3,NA,NA,Strongly Agree,1,0,1,0,NA,NA,NA,NA,1,statements,dont know enough about it,1,17/05/2021 11:33,17/05/2021 11:51,1071,Most weeks,A few times a year,34,Male,-99,"Undergraduate degree (BSc, BA)",45,3,Against,Against
40,1658860000000,26/07/2022 18:06,1658860000000,1,26/07/2022 19:06,93981,5,task-j4ag,NA,23317598,6842748,NA,complete,NA,62e02c0c175040e004ceadf9,computer,Desktop or Laptop,Windows 10,Chrome 103.0.0.0,1366x768,1366x695,NA,ITT Ratings,3,against,5,NA,NA,NA,ACCEPT,NA,NA,NA,NA,NA,NA,batch5hes,batch5hes,3,38,1,Screen 1,continueButton,response_rating_scale_likert_active,3915.5,NA,NA,Somewhat Disagree,1,0,1,0,NA,NA,NA,NA,1,statements,We would like to check you are reading each argument carefully. Please select 'Somewhat Disagree' for this answer,1,NA,NA,NA,NA,NA,NA,NA,NA,NA,NA,check2,NA,NA
41,1658860000000,26/07/2022 18:06,1658860000000,1,26/07/2022 19:06,93981,5,task-j4ag,NA,23317598,6842748,NA,complete,NA,62e02c0c175040e004ceadf9,computer,Desktop or Laptop,Windows 10,Chrome 103.0.0.0,1366x768,1366x695,NA,ITT Ratings,3,against,5,NA,NA,NA,ACCEPT,NA,NA,NA,NA,NA,NA,batch5hes,batch5hes,27,39,1,Screen 1,continueButton,response_rating_scale_likert_active,2555.4,NA,NA,Neither Agree nor Disagree,1,0,1,0,NA,NA,NA,NA,1,statements,To protect family and friends,1,17/05/2021 11:36,17/05/2021 11:45,556,Rarely,Most weeks,26,Female,-99,"Undergraduate degree (BSc, BA)",44,3,Against,For
42,1658860000000,26/07/2022 18:06,1658860000000,1,26/07/2022 19:06,93981,5,task-j4ag,NA,23317598,6842748,NA,complete,NA,62e02c0c175040e004ceadf9,computer,Desktop or Laptop,Windows 10,Chrome 103.0.0.0,1366x768,1366x695,NA,ITT Ratings,3,against,5,NA,NA,NA,ACCEPT,NA,NA,NA,NA,NA,NA,batch5hes,batch5hes,19,40,1,Screen 1,continueButton,response_rating_scale_likert_active,6600.1,NA,NA,Somewhat Disagree,1,0,1,0,NA,NA,NA,NA,1,statements,I want to beable to go on holiday,1,17/05/2021 11:33,17/05/2021 11:44,686,Most weeks,Most months,25,Male,-99,A levels,43,1,Against,For
43,1658860000000,26/07/2022 18:06,1658860000000,1,26/07/2022 19:06,93981,5,task-j4ag,NA,23317598,6842748,NA,complete,NA,62e02c0c175040e004ceadf9,computer,Desktop or Laptop,Windows 10,Chrome 103.0.0.0,1366x768,1366x695,NA,ITT Ratings,3,against,5,NA,NA,NA,ACCEPT,NA,NA,NA,NA,NA,NA,batch5hes,batch5hes,26,41,1,Screen 1,continueButton,response_rating_scale_likert_active,3804.4,NA,NA,Somewhat Disagree,1,0,1,0,NA,NA,NA,NA,1,statements,"Feel I have to to be able to get back to ""normal""",1,17/05/2021 11:36,17/05/2021 11:45,556,Rarely,Most weeks,26,Female,-99,"Undergraduate degree (BSc, BA)",44,2,Against,For
44,1658860000000,26/07/2022 18:06,1658860000000,1,26/07/2022 19:06,93981,5,task-j4ag,NA,23317598,6842748,NA,complete,NA,62e02c0c175040e004ceadf9,computer,Desktop or Laptop,Windows 10,Chrome 103.0.0.0,1366x768,1366x695,NA,ITT Ratings,3,against,5,NA,NA,NA,ACCEPT,NA,NA,NA,NA,NA,NA,batch5hes,batch5hes,60,42,1,Screen 1,continueButton,response_rating_scale_likert_active,1855.3,NA,NA,Agree,1,0,1,0,NA,NA,NA,NA,1,statements,There could be side effects,1,17/05/2021 11:50,17/05/2021 11:57,423,Most weeks,Most weeks,48,Male,-99,"Undergraduate degree (BSc, BA)",50,3,Against,Against
45,1658860000000,26/07/2022 18:06,1658860000000,1,26/07/2022 19:06,93981,5,task-j4ag,NA,23317598,6842748,NA,complete,NA,62e02c0c175040e004ceadf9,computer,Desktop or Laptop,Windows 10,Chrome 103.0.0.0,1366x768,1366x695,NA,ITT Ratings,3,against,5,NA,NA,NA,ACCEPT,NA,NA,NA,NA,NA,NA,batch5hes,batch5hes,2,43,1,Screen 1,continueButton,response_rating_scale_likert_active,2416.3,NA,NA,Somewhat Agree,1,0,1,0,NA,NA,NA,NA,1,statements,We would like to check you are reading each argument carefully. Please select 'Somewhat Agree' for this answer,1,NA,NA,NA,NA,NA,NA,NA,NA,NA,NA,check1,NA,NA
46,1658860000000,26/07/2022 18:06,1658860000000,1,26/07/2022 19:06,93981,5,task-j4ag,NA,23317598,6842748,NA,complete,NA,62e02c0c175040e004ceadf9,computer,Desktop or Laptop,Windows 10,Chrome 103.0.0.0,1366x768,1366x695,NA,ITT Ratings,3,against,5,NA,NA,NA,ACCEPT,NA,NA,NA,NA,NA,NA,batch5hes,batch5hes,43,44,1,Screen 1,continueButton,response_rating_scale_likert_active,3291.8,NA,NA,Neither Agree nor Disagree,1,0,1,0,NA,NA,NA,NA,1,statements,It will help protect vulnerable people,1,17/05/2021 11:49,17/05/2021 11:54,314,Rarely,Most days,27,Female,-99,"Undergraduate degree (BSc, BA)",47,1,Against,For
47,1658860000000,26/07/2022 18:06,1658860000000,1,26/07/2022 19:06,93981,5,task-j4ag,NA,23317598,6842748,NA,complete,NA,62e02c0c175040e004ceadf9,computer,Desktop or Laptop,Windows 10,Chrome 103.0.0.0,1366x768,1366x695,NA,ITT Ratings,3,against,5,NA,NA,NA,ACCEPT,NA,NA,NA,NA,NA,NA,batch5hes,batch5hes,55,45,1,Screen 1,continueButton,response_rating_scale_likert_active,2242,NA,NA,Neither Agree nor Disagree,1,0,1,0,NA,NA,NA,NA,1,statements,I want to protect my family and friends,1,17/05/2021 11:30,17/05/2021 11:56,1558,Rarely,Most months,35,Male,-99,"GCSEs,A levels,Undergraduate degree (BSc, BA)",49,1,Against,For
48,1658860000000,26/07/2022 18:06,1658860000000,1,26/07/2022 19:06,93981,5,task-j4ag,NA,23317598,6842748,NA,complete,NA,62e02c0c175040e004ceadf9,computer,Desktop or Laptop,Windows 10,Chrome 103.0.0.0,1366x768,1366x695,NA,ITT Ratings,3,against,5,NA,NA,NA,ACCEPT,NA,NA,NA,NA,NA,NA,batch5hes,batch5hes,57,46,1,Screen 1,continueButton,response_rating_scale_likert_active,1486.9,NA,NA,Neither Agree nor Disagree,1,0,1,0,NA,NA,NA,NA,1,statements,I want to protect myself from covid 19,1,17/05/2021 11:30,17/05/2021 11:56,1558,Rarely,Most months,35,Male,-99,"GCSEs,A levels,Undergraduate degree (BSc, BA)",49,3,Against,For
49,1658860000000,26/07/2022 18:06,1658860000000,1,26/07/2022 19:06,93981,5,task-j4ag,NA,23317598,6842748,NA,complete,NA,62e02c0c175040e004ceadf9,computer,Desktop or Laptop,Windows 10,Chrome 103.0.0.0,1366x768,1366x695,NA,ITT Ratings,3,against,5,NA,NA,NA,ACCEPT,NA,NA,NA,NA,NA,NA,batch5hes,batch5hes,17,47,1,Screen 1,continueButton,response_rating_scale_likert_active,2303,NA,NA,Strongly Agree,1,0,1,0,NA,NA,NA,NA,1,statements,not knowing exactly whats in it,1,17/05/2021 11:33,17/05/2021 11:44,686,Most weeks,Most months,25,Male,-99,A levels,43,2,Against,Against
50,1658860000000,26/07/2022 18:06,1658860000000,1,26/07/2022 19:06,93981,5,task-j4ag,NA,23317598,6842748,NA,complete,NA,62e02c0c175040e004ceadf9,computer,Desktop or Laptop,Windows 10,Chrome 103.0.0.0,1366x768,1366x695,NA,ITT Ratings,3,against,5,NA,NA,NA,ACCEPT,NA,NA,NA,NA,NA,NA,batch5hes,batch5hes,56,48,1,Screen 1,continueButton,response_rating_scale_likert_active,4484,NA,NA,Neither Agree nor Disagree,1,0,1,0,NA,NA,NA,NA,1,statements,I want to return to 'normal life',1,17/05/2021 11:30,17/05/2021 11:56,1558,Rarely,Most months,35,Male,-99,"GCSEs,A levels,Undergraduate degree (BSc, BA)",49,2,Against,For
51,1658860000000,26/07/2022 18:06,1658860000000,1,26/07/2022 19:06,93981,5,task-j4ag,NA,23317598,6842748,NA,complete,NA,62e02c0c175040e004ceadf9,computer,Desktop or Laptop,Windows 10,Chrome 103.0.0.0,1366x768,1366x695,NA,ITT Ratings,3,against,5,NA,NA,NA,ACCEPT,NA,NA,NA,NA,NA,NA,batch5hes,batch5hes,32,49,1,Screen 1,continueButton,response_rating_scale_likert_active,1971,NA,NA,Neither Agree nor Disagree,1,0,1,0,NA,NA,NA,NA,1,statements,I want to be protected,1,17/05/2021 11:33,17/05/2021 11:51,1071,Most weeks,A few times a year,34,Male,-99,"Undergraduate degree (BSc, BA)",45,2,Against,For
52,1658860000000,26/07/2022 18:07,1658860000000,1,26/07/2022 19:07,93981,5,task-j4ag,NA,23317598,6842748,NA,complete,NA,62e02c0c175040e004ceadf9,computer,Desktop or Laptop,Windows 10,Chrome 103.0.0.0,1366x768,1366x695,NA,ITT Ratings,3,against,5,NA,NA,NA,ACCEPT,NA,NA,NA,NA,NA,NA,batch5hes,batch5hes,39,50,1,Screen 1,continueButton,response_rating_scale_likert_active,4548.1,NA,NA,Neither Agree nor Disagree,1,0,1,0,NA,NA,NA,NA,1,statements,i dont want to put strain on the health services,1,17/05/2021 11:43,17/05/2021 11:53,620,Most weeks,Most days,51,Female,-99,GCSEs,46,3,Against,For
53,1658860000000,26/07/2022 18:07,1658860000000,1,26/07/2022 19:07,93981,5,task-j4ag,NA,23317598,6842748,NA,complete,NA,62e02c0c175040e004ceadf9,computer,Desktop or Laptop,Windows 10,Chrome 103.0.0.0,1366x768,1366x695,NA,ITT Ratings,3,against,5,NA,NA,NA,ACCEPT,NA,NA,NA,NA,NA,NA,batch5hes,batch5hes,15,51,1,Screen 1,continueButton,response_rating_scale_likert_active,3486.2,NA,NA,Strongly Disagree,1,0,1,0,NA,NA,NA,NA,1,statements,The government has told me to do so.,1,17/05/2021 11:39,17/05/2021 11:43,295,Never,Rarely,24,Male,-99,"Undergraduate degree (BSc, BA)",42,3,Against,For
54,1658860000000,26/07/2022 18:07,1658860000000,1,26/07/2022 19:07,93981,5,task-j4ag,NA,23317598,6842748,NA,complete,NA,62e02c0c175040e004ceadf9,computer,Desktop or Laptop,Windows 10,Chrome 103.0.0.0,1366x768,1366x695,NA,ITT Ratings,3,against,5,NA,NA,NA,ACCEPT,NA,NA,NA,NA,NA,NA,batch5hes,batch5hes,48,52,1,Screen 1,continueButton,response_rating_scale_likert_active,4746.7,NA,NA,Somewhat Agree,1,0,1,0,NA,NA,NA,NA,1,statements,I'm not in an at risk group and the probability of becoming seriously ill is low.,1,17/05/2021 11:10,17/05/2021 11:56,2717,Rarely,Rarely,38,Male,-99,A levels,48,3,Against,Against
55,1658860000000,26/07/2022 18:07,1658860000000,1,26/07/2022 19:07,93981,5,task-j4ag,NA,23317598,6842748,NA,complete,NA,62e02c0c175040e004ceadf9,computer,Desktop or Laptop,Windows 10,Chrome 103.0.0.0,1366x768,1366x695,NA,ITT Ratings,3,against,5,NA,NA,NA,ACCEPT,NA,NA,NA,NA,NA,NA,batch5hes,batch5hes,36,53,1,Screen 1,continueButton,response_rating_scale_likert_active,2663.5,NA,NA,Strongly Disagree,1,0,1,0,NA,NA,NA,NA,1,statements,i have had covid already,1,17/05/2021 11:43,17/05/2021 11:53,620,Most weeks,Most days,51,Female,-99,GCSEs,46,3,Against,Against
56,1658860000000,26/07/2022 18:07,1658860000000,1,26/07/2022 19:07,93981,5,task-j4ag,NA,23317598,6842748,NA,complete,NA,62e02c0c175040e004ceadf9,computer,Desktop or Laptop,Windows 10,Chrome 103.0.0.0,1366x768,1366x695,NA,ITT Ratings,3,against,5,NA,NA,NA,ACCEPT,NA,NA,NA,NA,NA,NA,batch5hes,batch5hes,59,54,1,Screen 1,continueButton,response_rating_scale_likert_active,5988.8,NA,NA,Agree,1,0,1,0,NA,NA,NA,NA,1,statements,It is not needed as there is no threat,1,17/05/2021 11:50,17/05/2021 11:57,423,Most weeks,Most weeks,48,Male,-99,"Undergraduate degree (BSc, BA)",50,2,Against,Against
57,1658860000000,26/07/2022 18:07,1658860000000,1,26/07/2022 19:07,93981,5,task-j4ag,NA,23317598,6842748,NA,complete,NA,62e02c0c175040e004ceadf9,computer,Desktop or Laptop,Windows 10,Chrome 103.0.0.0,1366x768,1366x695,NA,ITT Ratings,3,against,5,NA,NA,NA,ACCEPT,NA,NA,NA,NA,NA,NA,batch5hes,batch5hes,52,55,1,Screen 1,continueButton,response_rating_scale_likert_active,4728.6,NA,NA,Strongly Agree,1,0,1,0,NA,NA,NA,NA,1,statements,"I don't want it because it has been massed produced under a year, when it takes on average 10 years to produce a vaccine for public release.",1,17/05/2021 11:30,17/05/2021 11:56,1558,Rarely,Most months,35,Male,-99,"GCSEs,A levels,Undergraduate degree (BSc, BA)",49,1,Against,Against
58,1658860000000,26/07/2022 18:07,1658860000000,1,26/07/2022 19:07,93981,5,task-j4ag,NA,23317598,6842748,NA,complete,NA,62e02c0c175040e004ceadf9,computer,Desktop or Laptop,Windows 10,Chrome 103.0.0.0,1366x768,1366x695,NA,ITT Ratings,3,against,5,NA,NA,NA,ACCEPT,NA,NA,NA,NA,NA,NA,batch5hes,batch5hes,25,56,1,Screen 1,continueButton,response_rating_scale_likert_active,4010.3,NA,NA,Neither Agree nor Disagree,1,0,1,0,NA,NA,NA,NA,1,statements,Vulnerable person likely to become very ill with covid,1,17/05/2021 11:36,17/05/2021 11:45,556,Rarely,Most weeks,26,Female,-99,"Undergraduate degree (BSc, BA)",44,1,Against,For
59,1658860000000,26/07/2022 18:07,1658860000000,1,26/07/2022 19:07,93981,5,task-j4ag,NA,23317598,6842748,NA,complete,NA,62e02c0c175040e004ceadf9,computer,Desktop or Laptop,Windows 10,Chrome 103.0.0.0,1366x768,1366x695,NA,ITT Ratings,3,against,5,NA,NA,NA,ACCEPT,NA,NA,NA,NA,NA,NA,batch5hes,batch5hes,20,57,1,Screen 1,continueButton,response_rating_scale_likert_active,3438.3,NA,NA,Disagree,1,0,1,0,NA,NA,NA,NA,1,statements,I am scared of getting covid and will try anything to lower risk,1,17/05/2021 11:33,17/05/2021 11:44,686,Most weeks,Most months,25,Male,-99,A levels,43,2,Against,For
60,1658860000000,26/07/2022 18:07,1658860000000,1,26/07/2022 19:07,93981,5,task-j4ag,NA,23317598,6842748,NA,complete,NA,62e02c0c175040e004ceadf9,computer,Desktop or Laptop,Windows 10,Chrome 103.0.0.0,1366x768,1366x695,NA,ITT Ratings,3,against,5,NA,NA,NA,ACCEPT,NA,NA,NA,NA,NA,NA,batch5hes,batch5hes,47,58,1,Screen 1,continueButton,response_rating_scale_likert_active,5586.6,NA,NA,Strongly Agree,1,0,1,0,NA,NA,NA,NA,1,statements,The side effects are being under reported.,1,17/05/2021 11:10,17/05/2021 11:56,2717,Rarely,Rarely,38,Male,-99,A levels,48,2,Against,Against
61,1658860000000,26/07/2022 18:07,1658860000000,1,26/07/2022 19:07,93981,5,task-j4ag,NA,23317598,6842748,NA,complete,NA,62e02c0c175040e004ceadf9,computer,Desktop or Laptop,Windows 10,Chrome 103.0.0.0,1366x768,1366x695,NA,ITT Ratings,3,against,5,NA,NA,NA,ACCEPT,NA,NA,NA,NA,NA,NA,batch5hes,batch5hes,40,59,1,Screen 1,continueButton,response_rating_scale_likert_active,12581.5,NA,NA,Strongly Agree,1,0,1,0,NA,NA,NA,NA,1,statements,It's been rushed so I am not ready to take it,1,17/05/2021 11:49,17/05/2021 11:54,314,Rarely,Most days,27,Female,-99,"Undergraduate degree (BSc, BA)",47,1,Against,Against
62,1658860000000,26/07/2022 18:07,1658860000000,1,26/07/2022 19:07,93981,5,task-j4ag,NA,23317598,6842748,NA,complete,NA,62e02c0c175040e004ceadf9,computer,Desktop or Laptop,Windows 10,Chrome 103.0.0.0,1366x768,1366x695,NA,ITT Ratings,3,against,5,NA,NA,NA,ACCEPT,NA,NA,NA,NA,NA,NA,batch5hes,batch5hes,53,60,1,Screen 1,continueButton,response_rating_scale_likert_active,6625.1,NA,NA,Strongly Agree,1,0,1,0,NA,NA,NA,NA,1,statements,"Nanoparticles within the vaccine, MRNA changing DNA within the human body. Multiple videos on the internet showing adverse reactions to the vaccine",1,17/05/2021 11:30,17/05/2021 11:56,1558,Rarely,Most months,35,Male,-99,"GCSEs,A levels,Undergraduate degree (BSc, BA)",49,2,Against,Against
63,1658860000000,26/07/2022 18:08,1658860000000,1,26/07/2022 19:08,93981,5,task-j4ag,NA,23317598,6842748,NA,complete,NA,62e02c0c175040e004ceadf9,computer,Desktop or Laptop,Windows 10,Chrome 103.0.0.0,1366x768,1366x695,NA,ITT Ratings,3,against,5,NA,NA,NA,ACCEPT,NA,NA,NA,NA,NA,NA,batch5hes,batch5hes,7,61,1,Screen 1,continueButton,response_rating_scale_likert_active,4244.7,NA,NA,Somewhat Disagree,1,0,1,0,NA,NA,NA,NA,1,statements,I can receive the vaccination passport and travel,1,17/05/2021 11:29,17/05/2021 11:43,849,Rarely,Most months,29,Female,-99,"Postgraduate degree (MSc, MA, MPhil)",41,1,Against,For
64,1658860000000,26/07/2022 18:08,1658860000000,1,26/07/2022 19:08,93981,5,task-j4ag,NA,23317598,6842748,NA,complete,NA,62e02c0c175040e004ceadf9,computer,Desktop or Laptop,Windows 10,Chrome 103.0.0.0,1366x768,1366x695,NA,ITT Ratings,3,against,5,NA,NA,NA,ACCEPT,NA,NA,NA,NA,NA,NA,batch5hes,batch5hes,34,62,1,Screen 1,continueButton,response_rating_scale_likert_active,1768.5,NA,NA,Somewhat Agree,1,0,1,0,NA,NA,NA,NA,1,statements,i don't trust the pharmaceutical companies,1,17/05/2021 11:43,17/05/2021 11:53,620,Most weeks,Most days,51,Female,-99,GCSEs,46,1,Against,Against
65,1658860000000,26/07/2022 18:08,1658860000000,1,26/07/2022 19:08,93981,5,task-j4ag,NA,23317598,6842748,NA,complete,NA,62e02c0c175040e004ceadf9,computer,Desktop or Laptop,Windows 10,Chrome 103.0.0.0,1366x768,1366x695,NA,ITT Ratings,3,against,5,NA,NA,NA,ACCEPT,NA,NA,NA,NA,NA,NA,batch5hes,NA,NA,END TASK,NA,NA,NA,NA,256349,NA,NA,NA,NA,0,1,0,NA,NA,NA,NA,NA,NA,NA,NA,NA,NA,NA,NA,NA,NA,NA,NA,NA,NA,NA,NA,NA
1,1658860000000,26/07/2022 18:08,1658860000000,1,26/07/2022 19:08,93981,5,task-j4ag,NA,23317733,6842789,NA,complete,NA,62e02d83c0933000e44081e3,computer,Desktop or Laptop,Chromium OS 14816.131.0,Chrome 103.0.0.0,1241x698,1552x872,NA,ITT Ratings,3,against,5,NA,NA,NA,ACCEPT,NA,NA,NA,NA,NA,NA,batch5hes,NA,NA,BEGIN TASK,NA,NA,NA,NA,NA,NA,NA,NA,NA,0,1,0,NA,NA,NA,NA,NA,NA,NA,NA,NA,NA,NA,NA,NA,NA,NA,NA,NA,NA,NA,NA,NA
2,1658860000000,26/07/2022 18:08,1658860000000,1,26/07/2022 19:08,93981,5,task-j4ag,NA,23317733,6842789,NA,complete,NA,62e02d83c0933000e44081e3,computer,Desktop or Laptop,Chromium OS 14816.131.0,Chrome 103.0.0.0,1241x698,1552x872,NA,ITT Ratings,3,against,5,NA,NA,NA,ACCEPT,NA,NA,NA,NA,NA,NA,batch5hes,batch5hes,1,1,1,Screen 1,advancementZone,continue_button,9176.4,NA,NA,NA,NA,0,1,0,NA,NA,NA,NA,NA,instructions,NA,NA,NA,NA,NA,NA,NA,NA,NA,NA,NA,NA,NA,NA,NA
3,1658860000000,26/07/2022 18:08,1658860000000,1,26/07/2022 19:08,93981,5,task-j4ag,NA,23317733,6842789,NA,complete,NA,62e02d83c0933000e44081e3,computer,Desktop or Laptop,Chromium OS 14816.131.0,Chrome 103.0.0.0,1241x698,1552x872,NA,ITT Ratings,3,against,5,NA,NA,NA,ACCEPT,NA,NA,NA,NA,NA,NA,batch5hes,batch5hes,41,1,1,Screen 1,continueButton,response_rating_scale_likert_active,7719.4,NA,NA,Strongly Agree,1,0,1,0,NA,NA,NA,NA,1,statements,I am healthy and young so no benefit to me,1,17/05/2021 11:49,17/05/2021 11:54,314,Rarely,Most days,27,Female,-99,"Undergraduate degree (BSc, BA)",47,2,Against,Against
4,1658860000000,26/07/2022 18:09,1658860000000,1,26/07/2022 19:08,93981,5,task-j4ag,NA,23317733,6842789,NA,complete,NA,62e02d83c0933000e44081e3,computer,Desktop or Laptop,Chromium OS 14816.131.0,Chrome 103.0.0.0,1241x698,1552x872,NA,ITT Ratings,3,against,5,NA,NA,NA,ACCEPT,NA,NA,NA,NA,NA,NA,batch5hes,batch5hes,45,2,1,Screen 1,continueButton,response_rating_scale_likert_active,5102.1,NA,NA,Strongly Disagree,1,0,1,0,NA,NA,NA,NA,1,statements,The more people that are vaccinated the quicker things will return to normal,1,17/05/2021 11:49,17/05/2021 11:54,314,Rarely,Most days,27,Female,-99,"Undergraduate degree (BSc, BA)",47,3,Against,For
5,1658860000000,26/07/2022 18:09,1658860000000,1,26/07/2022 19:09,93981,5,task-j4ag,NA,23317733,6842789,NA,complete,NA,62e02d83c0933000e44081e3,computer,Desktop or Laptop,Chromium OS 14816.131.0,Chrome 103.0.0.0,1241x698,1552x872,NA,ITT Ratings,3,against,5,NA,NA,NA,ACCEPT,NA,NA,NA,NA,NA,NA,batch5hes,batch5hes,42,3,1,Screen 1,continueButton,response_rating_scale_likert_active,2981.8,NA,NA,Strongly Agree,1,0,1,0,NA,NA,NA,NA,1,statements,You can't trust vaccines as the pharmaceutical industry just wants to make money,1,17/05/2021 11:49,17/05/2021 11:54,314,Rarely,Most days,27,Female,-99,"Undergraduate degree (BSc, BA)",47,3,Against,Against
6,1658860000000,26/07/2022 18:09,1658860000000,1,26/07/2022 19:09,93981,5,task-j4ag,NA,23317733,6842789,NA,complete,NA,62e02d83c0933000e44081e3,computer,Desktop or Laptop,Chromium OS 14816.131.0,Chrome 103.0.0.0,1241x698,1552x872,NA,ITT Ratings,3,against,5,NA,NA,NA,ACCEPT,NA,NA,NA,NA,NA,NA,batch5hes,batch5hes,39,4,1,Screen 1,continueButton,response_rating_scale_likert_active,4291.6,NA,NA,Strongly Agree,1,0,1,0,NA,NA,NA,NA,1,statements,i dont want to put strain on the health services,1,17/05/2021 11:43,17/05/2021 11:53,620,Most weeks,Most days,51,Female,-99,GCSEs,46,3,Against,For
7,1658860000000,26/07/2022 18:09,1658860000000,1,26/07/2022 19:09,93981,5,task-j4ag,NA,23317733,6842789,NA,complete,NA,62e02d83c0933000e44081e3,computer,Desktop or Laptop,Chromium OS 14816.131.0,Chrome 103.0.0.0,1241x698,1552x872,NA,ITT Ratings,3,against,5,NA,NA,NA,ACCEPT,NA,NA,NA,NA,NA,NA,batch5hes,batch5hes,21,5,1,Screen 1,continueButton,response_rating_scale_likert_active,1652.3,NA,NA,Strongly Disagree,1,0,1,0,NA,NA,NA,NA,1,statements,thinks it necessary,1,17/05/2021 11:33,17/05/2021 11:44,686,Most weeks,Most months,25,Male,-99,A levels,43,3,Against,For
8,1658860000000,26/07/2022 18:09,1658860000000,1,26/07/2022 19:09,93981,5,task-j4ag,NA,23317733,6842789,NA,complete,NA,62e02d83c0933000e44081e3,computer,Desktop or Laptop,Chromium OS 14816.131.0,Chrome 103.0.0.0,1241x698,1552x872,NA,ITT Ratings,3,against,5,NA,NA,NA,ACCEPT,NA,NA,NA,NA,NA,NA,batch5hes,batch5hes,3,6,1,Screen 1,continueButton,response_rating_scale_likert_active,4924.9,NA,NA,Somewhat Disagree,1,0,1,0,NA,NA,NA,NA,1,statements,We would like to check you are reading each argument carefully. Please select 'Somewhat Disagree' for this answer,1,NA,NA,NA,NA,NA,NA,NA,NA,NA,NA,check2,NA,NA
9,1658860000000,26/07/2022 18:09,1658860000000,1,26/07/2022 19:09,93981,5,task-j4ag,NA,23317733,6842789,NA,complete,NA,62e02d83c0933000e44081e3,computer,Desktop or Laptop,Chromium OS 14816.131.0,Chrome 103.0.0.0,1241x698,1552x872,NA,ITT Ratings,3,against,5,NA,NA,NA,ACCEPT,NA,NA,NA,NA,NA,NA,batch5hes,batch5hes,12,7,1,Screen 1,continueButton,response_rating_scale_likert_active,4535.6,NA,NA,Strongly Agree,1,0,1,0,NA,NA,NA,NA,1,statements,I am not sure about the testing and long term effects (both positive and negative) of the vaccine.,1,17/05/2021 11:39,17/05/2021 11:43,295,Never,Rarely,24,Male,-99,"Undergraduate degree (BSc, BA)",42,3,Against,Against
10,1658860000000,26/07/2022 18:09,1658860000000,1,26/07/2022 19:09,93981,5,task-j4ag,NA,23317733,6842789,NA,complete,NA,62e02d83c0933000e44081e3,computer,Desktop or Laptop,Chromium OS 14816.131.0,Chrome 103.0.0.0,1241x698,1552x872,NA,ITT Ratings,3,against,5,NA,NA,NA,ACCEPT,NA,NA,NA,NA,NA,NA,batch5hes,batch5hes,33,8,1,Screen 1,continueButton,response_rating_scale_likert_active,1590.5,NA,NA,Strongly Disagree,1,0,1,0,NA,NA,NA,NA,1,statements,I believe it is safe,1,17/05/2021 11:33,17/05/2021 11:51,1071,Most weeks,A few times a year,34,Male,-99,"Undergraduate degree (BSc, BA)",45,3,Against,For
11,1658860000000,26/07/2022 18:09,1658860000000,1,26/07/2022 19:09,93981,5,task-j4ag,NA,23317733,6842789,NA,complete,NA,62e02d83c0933000e44081e3,computer,Desktop or Laptop,Chromium OS 14816.131.0,Chrome 103.0.0.0,1241x698,1552x872,NA,ITT Ratings,3,against,5,NA,NA,NA,ACCEPT,NA,NA,NA,NA,NA,NA,batch5hes,batch5hes,61,9,1,Screen 1,continueButton,response_rating_scale_likert_active,1678.2,NA,NA,Strongly Disagree,1,0,1,0,NA,NA,NA,NA,1,statements,It will protect me,1,17/05/2021 11:50,17/05/2021 11:57,423,Most weeks,Most weeks,48,Male,-99,"Undergraduate degree (BSc, BA)",50,1,Against,For
12,1658860000000,26/07/2022 18:09,1658860000000,1,26/07/2022 19:09,93981,5,task-j4ag,NA,23317733,6842789,NA,complete,NA,62e02d83c0933000e44081e3,computer,Desktop or Laptop,Chromium OS 14816.131.0,Chrome 103.0.0.0,1241x698,1552x872,NA,ITT Ratings,3,against,5,NA,NA,NA,ACCEPT,NA,NA,NA,NA,NA,NA,batch5hes,batch5hes,36,10,1,Screen 1,continueButton,response_rating_scale_likert_active,2637.4,NA,NA,Strongly Agree,1,0,1,0,NA,NA,NA,NA,1,statements,i have had covid already,1,17/05/2021 11:43,17/05/2021 11:53,620,Most weeks,Most days,51,Female,-99,GCSEs,46,3,Against,Against
13,1658860000000,26/07/2022 18:09,1658860000000,1,26/07/2022 19:09,93981,5,task-j4ag,NA,23317733,6842789,NA,complete,NA,62e02d83c0933000e44081e3,computer,Desktop or Laptop,Chromium OS 14816.131.0,Chrome 103.0.0.0,1241x698,1552x872,NA,ITT Ratings,3,against,5,NA,NA,NA,ACCEPT,NA,NA,NA,NA,NA,NA,batch5hes,batch5hes,63,11,1,Screen 1,continueButton,response_rating_scale_likert_active,2250.4,NA,NA,Strongly Disagree,1,0,1,0,NA,NA,NA,NA,1,statements,It will mean I can meet family members,1,17/05/2021 11:50,17/05/2021 11:57,423,Most weeks,Most weeks,48,Male,-99,"Undergraduate degree (BSc, BA)",50,3,Against,For
14,1658860000000,26/07/2022 18:09,1658860000000,1,26/07/2022 19:09,93981,5,task-j4ag,NA,23317733,6842789,NA,complete,NA,62e02d83c0933000e44081e3,computer,Desktop or Laptop,Chromium OS 14816.131.0,Chrome 103.0.0.0,1241x698,1552x872,NA,ITT Ratings,3,against,5,NA,NA,NA,ACCEPT,NA,NA,NA,NA,NA,NA,batch5hes,batch5hes,16,12,1,Screen 1,continueButton,response_rating_scale_likert_active,2708.5,NA,NA,Strongly Agree,1,0,1,0,NA,NA,NA,NA,1,statements,possible unsafe side effects,1,17/05/2021 11:33,17/05/2021 11:44,686,Most weeks,Most months,25,Male,-99,A levels,43,1,Against,Against
15,1658860000000,26/07/2022 18:09,1658860000000,1,26/07/2022 19:09,93981,5,task-j4ag,NA,23317733,6842789,NA,complete,NA,62e02d83c0933000e44081e3,computer,Desktop or Laptop,Chromium OS 14816.131.0,Chrome 103.0.0.0,1241x698,1552x872,NA,ITT Ratings,3,against,5,NA,NA,NA,ACCEPT,NA,NA,NA,NA,NA,NA,batch5hes,batch5hes,49,13,1,Screen 1,continueButton,response_rating_scale_likert_active,2972.1,NA,NA,Strongly Disagree,1,0,1,0,NA,NA,NA,NA,1,statements,Being vaccinated enables lockdown to be rescinded.,1,17/05/2021 11:10,17/05/2021 11:56,2717,Rarely,Rarely,38,Male,-99,A levels,48,1,Against,For
16,1658860000000,26/07/2022 18:09,1658860000000,1,26/07/2022 19:09,93981,5,task-j4ag,NA,23317733,6842789,NA,complete,NA,62e02d83c0933000e44081e3,computer,Desktop or Laptop,Chromium OS 14816.131.0,Chrome 103.0.0.0,1241x698,1552x872,NA,ITT Ratings,3,against,5,NA,NA,NA,ACCEPT,NA,NA,NA,NA,NA,NA,batch5hes,batch5hes,25,14,1,Screen 1,continueButton,response_rating_scale_likert_active,5463.6,NA,NA,Strongly Disagree,1,0,1,0,NA,NA,NA,NA,1,statements,Vulnerable person likely to become very ill with covid,1,17/05/2021 11:36,17/05/2021 11:45,556,Rarely,Most weeks,26,Female,-99,"Undergraduate degree (BSc, BA)",44,1,Against,For
17,1658860000000,26/07/2022 18:09,1658860000000,1,26/07/2022 19:09,93981,5,task-j4ag,NA,23317733,6842789,NA,complete,NA,62e02d83c0933000e44081e3,computer,Desktop or Laptop,Chromium OS 14816.131.0,Chrome 103.0.0.0,1241x698,1552x872,NA,ITT Ratings,3,against,5,NA,NA,NA,ACCEPT,NA,NA,NA,NA,NA,NA,batch5hes,batch5hes,13,15,1,Screen 1,continueButton,response_rating_scale_likert_active,1699.5,NA,NA,Strongly Disagree,1,0,1,0,NA,NA,NA,NA,1,statements,I want to be immune from the disease,1,17/05/2021 11:39,17/05/2021 11:43,295,Never,Rarely,24,Male,-99,"Undergraduate degree (BSc, BA)",42,1,Against,For
18,1658860000000,26/07/2022 18:09,1658860000000,1,26/07/2022 19:09,93981,5,task-j4ag,NA,23317733,6842789,NA,complete,NA,62e02d83c0933000e44081e3,computer,Desktop or Laptop,Chromium OS 14816.131.0,Chrome 103.0.0.0,1241x698,1552x872,NA,ITT Ratings,3,against,5,NA,NA,NA,ACCEPT,NA,NA,NA,NA,NA,NA,batch5hes,batch5hes,57,16,1,Screen 1,continueButton,response_rating_scale_likert_active,1215.2,NA,NA,Strongly Disagree,1,0,1,0,NA,NA,NA,NA,1,statements,I want to protect myself from covid 19,1,17/05/2021 11:30,17/05/2021 11:56,1558,Rarely,Most months,35,Male,-99,"GCSEs,A levels,Undergraduate degree (BSc, BA)",49,3,Against,For
19,1658860000000,26/07/2022 18:09,1658860000000,1,26/07/2022 19:09,93981,5,task-j4ag,NA,23317733,6842789,NA,complete,NA,62e02d83c0933000e44081e3,computer,Desktop or Laptop,Chromium OS 14816.131.0,Chrome 103.0.0.0,1241x698,1552x872,NA,ITT Ratings,3,against,5,NA,NA,NA,ACCEPT,NA,NA,NA,NA,NA,NA,batch5hes,batch5hes,2,17,1,Screen 1,continueButton,response_rating_scale_likert_active,7282.5,NA,NA,Somewhat Agree,1,0,1,0,NA,NA,NA,NA,1,statements,We would like to check you are reading each argument carefully. Please select 'Somewhat Agree' for this answer,1,NA,NA,NA,NA,NA,NA,NA,NA,NA,NA,check1,NA,NA
20,1658860000000,26/07/2022 18:09,1658860000000,1,26/07/2022 19:09,93981,5,task-j4ag,NA,23317733,6842789,NA,complete,NA,62e02d83c0933000e44081e3,computer,Desktop or Laptop,Chromium OS 14816.131.0,Chrome 103.0.0.0,1241x698,1552x872,NA,ITT Ratings,3,against,5,NA,NA,NA,ACCEPT,NA,NA,NA,NA,NA,NA,batch5hes,batch5hes,35,18,1,Screen 1,continueButton,response_rating_scale_likert_active,3408.3,NA,NA,Agree,1,0,1,0,NA,NA,NA,NA,1,statements,covid doesn't kill you,1,17/05/2021 11:43,17/05/2021 11:53,620,Most weeks,Most days,51,Female,-99,GCSEs,46,2,Against,Against
21,1658860000000,26/07/2022 18:09,1658860000000,1,26/07/2022 19:09,93981,5,task-j4ag,NA,23317733,6842789,NA,complete,NA,62e02d83c0933000e44081e3,computer,Desktop or Laptop,Chromium OS 14816.131.0,Chrome 103.0.0.0,1241x698,1552x872,NA,ITT Ratings,3,against,5,NA,NA,NA,ACCEPT,NA,NA,NA,NA,NA,NA,batch5hes,batch5hes,26,19,1,Screen 1,continueButton,response_rating_scale_likert_active,3390.1,NA,NA,Strongly Disagree,1,0,1,0,NA,NA,NA,NA,1,statements,"Feel I have to to be able to get back to ""normal""",1,17/05/2021 11:36,17/05/2021 11:45,556,Rarely,Most weeks,26,Female,-99,"Undergraduate degree (BSc, BA)",44,2,Against,For
22,1658860000000,26/07/2022 18:09,1658860000000,1,26/07/2022 19:09,93981,5,task-j4ag,NA,23317733,6842789,NA,complete,NA,62e02d83c0933000e44081e3,computer,Desktop or Laptop,Chromium OS 14816.131.0,Chrome 103.0.0.0,1241x698,1552x872,NA,ITT Ratings,3,against,5,NA,NA,NA,ACCEPT,NA,NA,NA,NA,NA,NA,batch5hes,batch5hes,24,20,1,Screen 1,continueButton,response_rating_scale_likert_active,2182.3,NA,NA,Strongly Agree,1,0,1,0,NA,NA,NA,NA,1,statements,Don't feel I need it,1,17/05/2021 11:36,17/05/2021 11:45,556,Rarely,Most weeks,26,Female,-99,"Undergraduate degree (BSc, BA)",44,3,Against,Against
23,1658860000000,26/07/2022 18:10,1658860000000,1,26/07/2022 19:09,93981,5,task-j4ag,NA,23317733,6842789,NA,complete,NA,62e02d83c0933000e44081e3,computer,Desktop or Laptop,Chromium OS 14816.131.0,Chrome 103.0.0.0,1241x698,1552x872,NA,ITT Ratings,3,against,5,NA,NA,NA,ACCEPT,NA,NA,NA,NA,NA,NA,batch5hes,batch5hes,38,21,1,Screen 1,continueButton,response_rating_scale_likert_active,1689,NA,NA,Strongly Disagree,1,0,1,0,NA,NA,NA,NA,1,statements,i want to protect others,1,17/05/2021 11:43,17/05/2021 11:53,620,Most weeks,Most days,51,Female,-99,GCSEs,46,2,Against,For
24,1658860000000,26/07/2022 18:10,1658860000000,1,26/07/2022 19:10,93981,5,task-j4ag,NA,23317733,6842789,NA,complete,NA,62e02d83c0933000e44081e3,computer,Desktop or Laptop,Chromium OS 14816.131.0,Chrome 103.0.0.0,1241x698,1552x872,NA,ITT Ratings,3,against,5,NA,NA,NA,ACCEPT,NA,NA,NA,NA,NA,NA,batch5hes,batch5hes,30,22,1,Screen 1,continueButton,response_rating_scale_likert_active,1724.8,NA,NA,Strongly Agree,1,0,1,0,NA,NA,NA,NA,1,statements,dont know enough about it,1,17/05/2021 11:33,17/05/2021 11:51,1071,Most weeks,A few times a year,34,Male,-99,"Undergraduate degree (BSc, BA)",45,3,Against,Against
25,1658860000000,26/07/2022 18:10,1658860000000,1,26/07/2022 19:10,93981,5,task-j4ag,NA,23317733,6842789,NA,complete,NA,62e02d83c0933000e44081e3,computer,Desktop or Laptop,Chromium OS 14816.131.0,Chrome 103.0.0.0,1241x698,1552x872,NA,ITT Ratings,3,against,5,NA,NA,NA,ACCEPT,NA,NA,NA,NA,NA,NA,batch5hes,batch5hes,44,23,1,Screen 1,continueButton,response_rating_scale_likert_active,2308.6,NA,NA,Strongly Disagree,1,0,1,0,NA,NA,NA,NA,1,statements,It has been approved so is safe,1,17/05/2021 11:49,17/05/2021 11:54,314,Rarely,Most days,27,Female,-99,"Undergraduate degree (BSc, BA)",47,2,Against,For
26,1658860000000,26/07/2022 18:10,1658860000000,1,26/07/2022 19:10,93981,5,task-j4ag,NA,23317733,6842789,NA,complete,NA,62e02d83c0933000e44081e3,computer,Desktop or Laptop,Chromium OS 14816.131.0,Chrome 103.0.0.0,1241x698,1552x872,NA,ITT Ratings,3,against,5,NA,NA,NA,ACCEPT,NA,NA,NA,NA,NA,NA,batch5hes,batch5hes,46,24,1,Screen 1,continueButton,response_rating_scale_likert_active,1870.3,NA,NA,Strongly Agree,1,0,1,0,NA,NA,NA,NA,1,statements,The government cannot be trusted to tell the truth.,1,17/05/2021 11:10,17/05/2021 11:56,2717,Rarely,Rarely,38,Male,-99,A levels,48,1,Against,Against
27,1658860000000,26/07/2022 18:10,1658860000000,1,26/07/2022 19:10,93981,5,task-j4ag,NA,23317733,6842789,NA,complete,NA,62e02d83c0933000e44081e3,computer,Desktop or Laptop,Chromium OS 14816.131.0,Chrome 103.0.0.0,1241x698,1552x872,NA,ITT Ratings,3,against,5,NA,NA,NA,ACCEPT,NA,NA,NA,NA,NA,NA,batch5hes,batch5hes,23,25,1,Screen 1,continueButton,response_rating_scale_likert_active,5652.1,NA,NA,Strongly Agree,1,0,1,0,NA,NA,NA,NA,1,statements,Breastfeeding and not enough trials/evidence to support the effects of potential transmission to my baby through milk,1,17/05/2021 11:36,17/05/2021 11:45,556,Rarely,Most weeks,26,Female,-99,"Undergraduate degree (BSc, BA)",44,2,Against,Against
28,1658860000000,26/07/2022 18:10,1658860000000,1,26/07/2022 19:10,93981,5,task-j4ag,NA,23317733,6842789,NA,complete,NA,62e02d83c0933000e44081e3,computer,Desktop or Laptop,Chromium OS 14816.131.0,Chrome 103.0.0.0,1241x698,1552x872,NA,ITT Ratings,3,against,5,NA,NA,NA,ACCEPT,NA,NA,NA,NA,NA,NA,batch5hes,batch5hes,15,26,1,Screen 1,continueButton,response_rating_scale_likert_active,2351.2,NA,NA,Strongly Disagree,1,0,1,0,NA,NA,NA,NA,1,statements,The government has told me to do so.,1,17/05/2021 11:39,17/05/2021 11:43,295,Never,Rarely,24,Male,-99,"Undergraduate degree (BSc, BA)",42,3,Against,For
29,1658860000000,26/07/2022 18:10,1658860000000,1,26/07/2022 19:10,93981,5,task-j4ag,NA,23317733,6842789,NA,complete,NA,62e02d83c0933000e44081e3,computer,Desktop or Laptop,Chromium OS 14816.131.0,Chrome 103.0.0.0,1241x698,1552x872,NA,ITT Ratings,3,against,5,NA,NA,NA,ACCEPT,NA,NA,NA,NA,NA,NA,batch5hes,batch5hes,53,27,1,Screen 1,continueButton,response_rating_scale_likert_active,6509.1,NA,NA,Strongly Agree,1,0,1,0,NA,NA,NA,NA,1,statements,"Nanoparticles within the vaccine, MRNA changing DNA within the human body. Multiple videos on the internet showing adverse reactions to the vaccine",1,17/05/2021 11:30,17/05/2021 11:56,1558,Rarely,Most months,35,Male,-99,"GCSEs,A levels,Undergraduate degree (BSc, BA)",49,2,Against,Against
30,1658860000000,26/07/2022 18:10,1658860000000,1,26/07/2022 19:10,93981,5,task-j4ag,NA,23317733,6842789,NA,complete,NA,62e02d83c0933000e44081e3,computer,Desktop or Laptop,Chromium OS 14816.131.0,Chrome 103.0.0.0,1241x698,1552x872,NA,ITT Ratings,3,against,5,NA,NA,NA,ACCEPT,NA,NA,NA,NA,NA,NA,batch5hes,batch5hes,18,28,1,Screen 1,continueButton,response_rating_scale_likert_active,2158,NA,NA,Strongly Agree,1,0,1,0,NA,NA,NA,NA,1,statements,can cause problems that werent there initially,1,17/05/2021 11:33,17/05/2021 11:44,686,Most weeks,Most months,25,Male,-99,A levels,43,3,Against,Against
31,1658860000000,26/07/2022 18:10,1658860000000,1,26/07/2022 19:10,93981,5,task-j4ag,NA,23317733,6842789,NA,complete,NA,62e02d83c0933000e44081e3,computer,Desktop or Laptop,Chromium OS 14816.131.0,Chrome 103.0.0.0,1241x698,1552x872,NA,ITT Ratings,3,against,5,NA,NA,NA,ACCEPT,NA,NA,NA,NA,NA,NA,batch5hes,batch5hes,50,29,1,Screen 1,continueButton,response_rating_scale_likert_active,3041.8,NA,NA,Strongly Disagree,1,0,1,0,NA,NA,NA,NA,1,statements,Getting vaccinated helps reduce the spread of the virus.,1,17/05/2021 11:10,17/05/2021 11:56,2717,Rarely,Rarely,38,Male,-99,A levels,48,2,Against,For
32,1658860000000,26/07/2022 18:13,1658860000000,1,26/07/2022 19:13,93981,5,task-j4ag,NA,23317733,6842789,NA,complete,NA,62e02d83c0933000e44081e3,computer,Desktop or Laptop,Chromium OS 14816.131.0,Chrome 103.0.0.0,1241x698,1552x872,NA,ITT Ratings,3,against,5,NA,NA,NA,ACCEPT,NA,NA,NA,NA,NA,NA,batch5hes,batch5hes,40,30,1,Screen 1,continueButton,response_rating_scale_likert_active,194646.7,NA,NA,Strongly Agree,1,0,1,0,NA,NA,NA,NA,1,statements,It's been rushed so I am not ready to take it,1,17/05/2021 11:49,17/05/2021 11:54,314,Rarely,Most days,27,Female,-99,"Undergraduate degree (BSc, BA)",47,1,Against,Against
33,1658860000000,26/07/2022 18:15,1658860000000,1,26/07/2022 19:15,93981,5,task-j4ag,NA,23317733,6842789,NA,complete,NA,62e02d83c0933000e44081e3,computer,Desktop or Laptop,Chromium OS 14816.131.0,Chrome 103.0.0.0,1241x698,1552x872,NA,ITT Ratings,3,against,5,NA,NA,NA,ACCEPT,NA,NA,NA,NA,NA,NA,batch5hes,batch5hes,31,31,1,Screen 1,continueButton,response_rating_scale_likert_active,94263.7,NA,NA,Strongly Disagree,1,0,1,0,NA,NA,NA,NA,1,statements,I trust the health care officials,1,17/05/2021 11:33,17/05/2021 11:51,1071,Most weeks,A few times a year,34,Male,-99,"Undergraduate degree (BSc, BA)",45,1,Against,For
34,1658860000000,26/07/2022 18:17,1658860000000,1,26/07/2022 19:17,93981,5,task-j4ag,NA,23317733,6842789,NA,complete,NA,62e02d83c0933000e44081e3,computer,Desktop or Laptop,Chromium OS 14816.131.0,Chrome 103.0.0.0,1241x698,1552x872,NA,ITT Ratings,3,against,5,NA,NA,NA,ACCEPT,NA,NA,NA,NA,NA,NA,batch5hes,batch5hes,6,32,1,Screen 1,continueButton,response_rating_scale_likert_active,118345.1,NA,NA,Strongly Agree,1,0,1,0,NA,NA,NA,NA,1,statements,New variants may arise and that would invalidate old vaccines already taken,1,17/05/2021 11:29,17/05/2021 11:43,849,Rarely,Most months,29,Female,-99,"Postgraduate degree (MSc, MA, MPhil)",41,3,Against,Against
35,1658860000000,26/07/2022 18:17,1658860000000,1,26/07/2022 19:17,93981,5,task-j4ag,NA,23317733,6842789,NA,complete,NA,62e02d83c0933000e44081e3,computer,Desktop or Laptop,Chromium OS 14816.131.0,Chrome 103.0.0.0,1241x698,1552x872,NA,ITT Ratings,3,against,5,NA,NA,NA,ACCEPT,NA,NA,NA,NA,NA,NA,batch5hes,batch5hes,55,33,1,Screen 1,continueButton,response_rating_scale_likert_active,1668.2,NA,NA,Strongly Disagree,1,0,1,0,NA,NA,NA,NA,1,statements,I want to protect my family and friends,1,17/05/2021 11:30,17/05/2021 11:56,1558,Rarely,Most months,35,Male,-99,"GCSEs,A levels,Undergraduate degree (BSc, BA)",49,1,Against,For
