Event.Index,UTC.Timestamp,UTC.Date,Local.Timestamp,Local.Timezone,Local.Date,Experiment.ID,Experiment.Version,Tree.Node.Key,Repeat.Key,Schedule.ID,Participant.Private.ID,Participant.Starting.Group,Participant.Status,Participant.Completion.Code,Participant.External.Session.ID,Participant.Device.Type,Participant.Device,Participant.OS,Participant.Browser,Participant.Monitor.Size,Participant.Viewport.Size,Checkpoint,Task.Name,Task.Version,branch.69an,randomiser.8vg2,quota.bqtt,quota.rycs,quota.wtfi,quota.usve,quota.zgic,quota.f3yz,quota.r9vy,quota.tfqq,quota.3dga,quota.dtj6,Spreadsheet,Spreadsheet.Name,Spreadsheet.Row,Trial.Number,Screen.Number,Screen.Name,Zone.Name,Zone.Type,Reaction.Time,Reaction.Onset,Response.Type,Response,Attempt,Correct,Incorrect,Dishonest,X.Coordinate,Y.Coordinate,Timed.Out,randomise_blocks,randomise_trials,display,Arguments,ShowProgressBar,StartDate,EndDate,Duration,discuss_1,read_1,age,gender,gender_4_TEXT,edu,ID,arg_ID,Position,Arg_Position
1,1658858403845,26/07/2022 18:00:03,1658858403735,1,26/07/2022 19:00:03,93981,5,task-mn1e,NA,23317487,6842717,NA,complete,NA,62e02b74b1af90a37049ed6c,computer,Desktop or Laptop,Windows 10,Chrome 103.0.0.0,1366x768,1366x657,NA,ITT Ratings,3,against,4,NA,NA,ACCEPT,NA,NA,NA,NA,NA,NA,NA,batch4hes,NA,NA,BEGIN TASK,NA,NA,NA,NA,NA,NA,NA,NA,NA,0,1,0,NA,NA,NA,NA,NA,NA,NA,NA,NA,NA,NA,NA,NA,NA,NA,NA,NA,NA,NA,NA,NA
2,1658858414030,26/07/2022 18:00:14,1658858413892,1,26/07/2022 19:00:13,93981,5,task-mn1e,NA,23317487,6842717,NA,complete,NA,62e02b74b1af90a37049ed6c,computer,Desktop or Laptop,Windows 10,Chrome 103.0.0.0,1366x768,1366x657,NA,ITT Ratings,3,against,4,NA,NA,ACCEPT,NA,NA,NA,NA,NA,NA,NA,batch4hes,batch4hes,1,1,1,Screen 1,advancementZone,continue_button,10024.799999952316,NA,NA,NA,NA,0,1,0,NA,NA,NA,NA,NA,instructions,NA,NA,NA,NA,NA,NA,NA,NA,NA,NA,NA,NA,NA,NA,NA
3,1658858436988,26/07/2022 18:00:36,1658858436930,1,26/07/2022 19:00:36,93981,5,task-mn1e,NA,23317487,6842717,NA,complete,NA,62e02b74b1af90a37049ed6c,computer,Desktop or Laptop,Windows 10,Chrome 103.0.0.0,1366x768,1366x657,NA,ITT Ratings,3,against,4,NA,NA,ACCEPT,NA,NA,NA,NA,NA,NA,NA,batch4hes,batch4hes,47,1,1,Screen 1,continueButton,response_rating_scale_likert_active,23002.39999985695,NA,NA,Somewhat Agree,1,0,1,0,NA,NA,NA,NA,1,statements,No two adults have had the vaccine then created a baby that has then been born without any issues - there simply has not been enough time so it is impossible to say if that baby would be ok.,1,17/05/2021 11:32,17/05/2021 11:42,618,Never,Rarely,57,Male,-99,A levels,38,2,Against,Against
4,1658858443361,26/07/2022 18:00:43,1658858443210,1,26/07/2022 19:00:43,93981,5,task-mn1e,NA,23317487,6842717,NA,complete,NA,62e02b74b1af90a37049ed6c,computer,Desktop or Laptop,Windows 10,Chrome 103.0.0.0,1366x768,1366x657,NA,ITT Ratings,3,against,4,NA,NA,ACCEPT,NA,NA,NA,NA,NA,NA,NA,batch4hes,batch4hes,36,2,1,Screen 1,continueButton,response_rating_scale_likert_active,6253.200000047684,NA,NA,Agree,1,0,1,0,NA,NA,NA,NA,1,statements,I would prefer a more natural method of treating covid should I catch it,1,17/05/2021 11:15,17/05/2021 11:34,1100,Rarely,Never,28,Female,-99,"Undergraduate degree (BSc, BA)",36,3,Against,Against
5,1658858447389,26/07/2022 18:00:47,1658858447299,1,26/07/2022 19:00:47,93981,5,task-mn1e,NA,23317487,6842717,NA,complete,NA,62e02b74b1af90a37049ed6c,computer,Desktop or Laptop,Windows 10,Chrome 103.0.0.0,1366x768,1366x657,NA,ITT Ratings,3,against,4,NA,NA,ACCEPT,NA,NA,NA,NA,NA,NA,NA,batch4hes,batch4hes,37,3,1,Screen 1,continueButton,response_rating_scale_likert_active,4075.299999952316,NA,NA,Strongly Disagree,1,0,1,0,NA,NA,NA,NA,1,statements,Getting the vaccine will protect me and others and play a key part in curbing the pandemic,1,17/05/2021 11:15,17/05/2021 11:34,1100,Rarely,Never,28,Female,-99,"Undergraduate degree (BSc, BA)",36,1,Against,For
6,1658858453145,26/07/2022 18:00:53,1658858453039,1,26/07/2022 19:00:53,93981,5,task-mn1e,NA,23317487,6842717,NA,complete,NA,62e02b74b1af90a37049ed6c,computer,Desktop or Laptop,Windows 10,Chrome 103.0.0.0,1366x768,1366x657,NA,ITT Ratings,3,against,4,NA,NA,ACCEPT,NA,NA,NA,NA,NA,NA,NA,batch4hes,batch4hes,12,4,1,Screen 1,continueButton,response_rating_scale_likert_active,5717.5,NA,NA,Strongly Agree,1,0,1,0,NA,NA,NA,NA,1,statements,RNA vaccines aren't safe: In initial trials of the RNA technology resulted in the death of all the animals it was trialed on. This untested method of vaccination will likely damage human immune system,1,17/05/2021 11:15,17/05/2021 11:30,899,Most weeks,Most weeks,61,Male,-99,"Postgraduate degree (MSc, MA, MPhil)",32,3,Against,Against
7,1658858457725,26/07/2022 18:00:57,1658858457592,1,26/07/2022 19:00:57,93981,5,task-mn1e,NA,23317487,6842717,NA,complete,NA,62e02b74b1af90a37049ed6c,computer,Desktop or Laptop,Windows 10,Chrome 103.0.0.0,1366x768,1366x657,NA,ITT Ratings,3,against,4,NA,NA,ACCEPT,NA,NA,NA,NA,NA,NA,NA,batch4hes,batch4hes,20,5,1,Screen 1,continueButton,response_rating_scale_likert_active,4535.099999904633,NA,NA,Strongly Disagree,1,0,1,0,NA,NA,NA,NA,1,statements,"if you don't care of yourself, please think about your grandmother, diabetic mother, high risked neighbour.",1,17/05/2021 10:14,17/05/2021 11:30,4578,Most weeks,A few times a year,30,Female,-99,Vocational Training / Apprenticeship,33,2,Against,For
8,1658858460638,26/07/2022 18:01:00,1658858460565,1,26/07/2022 19:01:00,93981,5,task-mn1e,NA,23317487,6842717,NA,complete,NA,62e02b74b1af90a37049ed6c,computer,Desktop or Laptop,Windows 10,Chrome 103.0.0.0,1366x768,1366x657,NA,ITT Ratings,3,against,4,NA,NA,ACCEPT,NA,NA,NA,NA,NA,NA,NA,batch4hes,batch4hes,42,6,1,Screen 1,continueButton,response_rating_scale_likert_active,2950.2999999523163,NA,NA,Strongly Agree,1,0,1,0,NA,NA,NA,NA,1,statements,The vaccine is causing more damage to young people than the virus would,1,17/05/2021 11:31,17/05/2021 11:38,434,Most weeks,Most days,46,Female,-99,"Postgraduate degree (MSc, MA, MPhil)",37,3,Against,Against
9,1658858468472,26/07/2022 18:01:08,1658858468359,1,26/07/2022 19:01:08,93981,5,task-mn1e,NA,23317487,6842717,NA,complete,NA,62e02b74b1af90a37049ed6c,computer,Desktop or Laptop,Windows 10,Chrome 103.0.0.0,1366x768,1366x657,NA,ITT Ratings,3,against,4,NA,NA,ACCEPT,NA,NA,NA,NA,NA,NA,NA,batch4hes,batch4hes,44,7,1,Screen 1,continueButton,response_rating_scale_likert_active,7776.100000143051,NA,NA,Disagree,1,0,1,0,NA,NA,NA,NA,1,statements,I donÕt want to be sick,1,17/05/2021 11:31,17/05/2021 11:38,434,Most weeks,Most days,46,Female,-99,"Postgraduate degree (MSc, MA, MPhil)",37,2,Against,For
10,1658858474043,26/07/2022 18:01:14,1658858473969,1,26/07/2022 19:01:13,93981,5,task-mn1e,NA,23317487,6842717,NA,complete,NA,62e02b74b1af90a37049ed6c,computer,Desktop or Laptop,Windows 10,Chrome 103.0.0.0,1366x768,1366x657,NA,ITT Ratings,3,against,4,NA,NA,ACCEPT,NA,NA,NA,NA,NA,NA,NA,batch4hes,batch4hes,60,8,1,Screen 1,continueButton,response_rating_scale_likert_active,5596.900000095367,NA,NA,Strongly Agree,1,0,1,0,NA,NA,NA,NA,1,statements,"Why have the producers of the vaccine been exonerated from any form of liability arising from any effect/death as a result of taking the vaccine, if they're saying its safe and effective?",1,17/05/2021 11:08,17/05/2021 11:43,2086,Most days,Most days,28,Female,-99,"Postgraduate degree (MSc, MA, MPhil)",40,3,Against,Against
11,1658858477492,26/07/2022 18:01:17,1658858477436,1,26/07/2022 19:01:17,93981,5,task-mn1e,NA,23317487,6842717,NA,complete,NA,62e02b74b1af90a37049ed6c,computer,Desktop or Laptop,Windows 10,Chrome 103.0.0.0,1366x768,1366x657,NA,ITT Ratings,3,against,4,NA,NA,ACCEPT,NA,NA,NA,NA,NA,NA,NA,batch4hes,batch4hes,21,9,1,Screen 1,continueButton,response_rating_scale_likert_active,3452.2000000476837,NA,NA,Strongly Disagree,1,0,1,0,NA,NA,NA,NA,1,statements,vaccine is the only one way to arrive world beautiful without Covide-19.,1,17/05/2021 10:14,17/05/2021 11:30,4578,Most weeks,A few times a year,30,Female,-99,Vocational Training / Apprenticeship,33,3,Against,For
12,1658858482958,26/07/2022 18:01:22,1658858482839,1,26/07/2022 19:01:22,93981,5,task-mn1e,NA,23317487,6842717,NA,complete,NA,62e02b74b1af90a37049ed6c,computer,Desktop or Laptop,Windows 10,Chrome 103.0.0.0,1366x768,1366x657,NA,ITT Ratings,3,against,4,NA,NA,ACCEPT,NA,NA,NA,NA,NA,NA,NA,batch4hes,batch4hes,2,10,1,Screen 1,continueButton,response_rating_scale_likert_active,5389.599999904633,NA,NA,Somewhat Agree,1,0,1,0,NA,NA,NA,NA,1,statements,We would like to check you are reading each argument carefully. Please select 'Somewhat Agree' for this answer,1,NA,NA,NA,NA,NA,NA,NA,NA,NA,NA,check1,NA,NA
13,1658858485902,26/07/2022 18:01:25,1658858485824,1,26/07/2022 19:01:25,93981,5,task-mn1e,NA,23317487,6842717,NA,complete,NA,62e02b74b1af90a37049ed6c,computer,Desktop or Laptop,Windows 10,Chrome 103.0.0.0,1366x768,1366x657,NA,ITT Ratings,3,against,4,NA,NA,ACCEPT,NA,NA,NA,NA,NA,NA,NA,batch4hes,batch4hes,9,11,1,Screen 1,continueButton,response_rating_scale_likert_active,2966.2000000476837,NA,NA,Strongly Disagree,1,0,1,0,NA,NA,NA,NA,1,statements,I just want to go on holiday,1,17/05/2021 11:20,17/05/2021 11:28,519,Most weeks,Most days,42,Female,-99,Doctorate (PhD),31,3,Against,For
14,1658858490872,26/07/2022 18:01:30,1658858490763,1,26/07/2022 19:01:30,93981,5,task-mn1e,NA,23317487,6842717,NA,complete,NA,62e02b74b1af90a37049ed6c,computer,Desktop or Laptop,Windows 10,Chrome 103.0.0.0,1366x768,1366x657,NA,ITT Ratings,3,against,4,NA,NA,ACCEPT,NA,NA,NA,NA,NA,NA,NA,batch4hes,batch4hes,54,12,1,Screen 1,continueButton,response_rating_scale_likert_active,4922.200000047684,NA,NA,Strongly Agree,1,0,1,0,NA,NA,NA,NA,1,statements,"I am young, fit and healthy. I do not want to inject anything into my body that even the government are not sure about. Mixed messages from the government daily. New variants etc.",1,17/05/2021 11:35,17/05/2021 11:42,462,Most weeks,Most days,27,Female,-99,"Undergraduate degree (BSc, BA)",39,3,Against,Against
15,1658858492979,26/07/2022 18:01:32,1658858492876,1,26/07/2022 19:01:32,93981,5,task-mn1e,NA,23317487,6842717,NA,complete,NA,62e02b74b1af90a37049ed6c,computer,Desktop or Laptop,Windows 10,Chrome 103.0.0.0,1366x768,1366x657,NA,ITT Ratings,3,against,4,NA,NA,ACCEPT,NA,NA,NA,NA,NA,NA,NA,batch4hes,batch4hes,33,13,1,Screen 1,continueButton,response_rating_scale_likert_active,2100.900000095367,NA,NA,Strongly Disagree,1,0,1,0,NA,NA,NA,NA,1,statements,If you dont have the vaccine youll die,1,17/05/2021 11:26,17/05/2021 11:32,370,Most weeks,Most months,33,Female,-99,"Postgraduate degree (MSc, MA, MPhil)",35,3,Against,For
16,1658858495874,26/07/2022 18:01:35,1658858495801,1,26/07/2022 19:01:35,93981,5,task-mn1e,NA,23317487,6842717,NA,complete,NA,62e02b74b1af90a37049ed6c,computer,Desktop or Laptop,Windows 10,Chrome 103.0.0.0,1366x768,1366x657,NA,ITT Ratings,3,against,4,NA,NA,ACCEPT,NA,NA,NA,NA,NA,NA,NA,batch4hes,batch4hes,30,14,1,Screen 1,continueButton,response_rating_scale_likert_active,2902.7000000476837,NA,NA,Strongly Agree,1,0,1,0,NA,NA,NA,NA,1,statements,The strand mutates and its pointless takin the risk,1,17/05/2021 11:26,17/05/2021 11:32,370,Most weeks,Most months,33,Female,-99,"Postgraduate degree (MSc, MA, MPhil)",35,3,Against,Against
17,1658858497773,26/07/2022 18:01:37,1658858497648,1,26/07/2022 19:01:37,93981,5,task-mn1e,NA,23317487,6842717,NA,complete,NA,62e02b74b1af90a37049ed6c,computer,Desktop or Laptop,Windows 10,Chrome 103.0.0.0,1366x768,1366x657,NA,ITT Ratings,3,against,4,NA,NA,ACCEPT,NA,NA,NA,NA,NA,NA,NA,batch4hes,batch4hes,63,15,1,Screen 1,continueButton,response_rating_scale_likert_active,1834.2999999523165,NA,NA,Strongly Disagree,1,0,1,0,NA,NA,NA,NA,1,statements,I just want to be able to travel,1,17/05/2021 11:08,17/05/2021 11:43,2086,Most days,Most days,28,Female,-99,"Postgraduate degree (MSc, MA, MPhil)",40,3,Against,For
18,1658858499605,26/07/2022 18:01:39,1658858499535,1,26/07/2022 19:01:39,93981,5,task-mn1e,NA,23317487,6842717,NA,complete,NA,62e02b74b1af90a37049ed6c,computer,Desktop or Laptop,Windows 10,Chrome 103.0.0.0,1366x768,1366x657,NA,ITT Ratings,3,against,4,NA,NA,ACCEPT,NA,NA,NA,NA,NA,NA,NA,batch4hes,batch4hes,19,16,1,Screen 1,continueButton,response_rating_scale_likert_active,1874.6000001430511,NA,NA,Strongly Disagree,1,0,1,0,NA,NA,NA,NA,1,statements,It is for your safety.,1,17/05/2021 10:14,17/05/2021 11:30,4578,Most weeks,A few times a year,30,Female,-99,Vocational Training / Apprenticeship,33,1,Against,For
19,1658858511337,26/07/2022 18:01:51,1658858511221,1,26/07/2022 19:01:51,93981,5,task-mn1e,NA,23317487,6842717,NA,complete,NA,62e02b74b1af90a37049ed6c,computer,Desktop or Laptop,Windows 10,Chrome 103.0.0.0,1366x768,1366x657,NA,ITT Ratings,3,against,4,NA,NA,ACCEPT,NA,NA,NA,NA,NA,NA,NA,batch4hes,batch4hes,43,17,1,Screen 1,continueButton,response_rating_scale_likert_active,11672.299999952316,NA,NA,Neither Agree nor Disagree,1,0,1,0,NA,NA,NA,NA,1,statements,Im selfish as it only protects me,1,17/05/2021 11:31,17/05/2021 11:38,434,Most weeks,Most days,46,Female,-99,"Postgraduate degree (MSc, MA, MPhil)",37,1,Against,For
20,1658858522088,26/07/2022 18:02:02,1658858521957,1,26/07/2022 19:02:01,93981,5,task-mn1e,NA,23317487,6842717,NA,complete,NA,62e02b74b1af90a37049ed6c,computer,Desktop or Laptop,Windows 10,Chrome 103.0.0.0,1366x768,1366x657,NA,ITT Ratings,3,against,4,NA,NA,ACCEPT,NA,NA,NA,NA,NA,NA,NA,batch4hes,batch4hes,61,18,1,Screen 1,continueButton,response_rating_scale_likert_active,10722.299999952316,NA,NA,Strongly Agree,1,0,1,0,NA,NA,NA,NA,1,statements,I want to protect myself and others. (which doesn't make sense because taking the vaccine will not prevent you from getting infected or infecting others),1,17/05/2021 11:08,17/05/2021 11:43,2086,Most days,Most days,28,Female,-99,"Postgraduate degree (MSc, MA, MPhil)",40,1,Against,For
21,1658858525152,26/07/2022 18:02:05,1658858525079,1,26/07/2022 19:02:05,93981,5,task-mn1e,NA,23317487,6842717,NA,complete,NA,62e02b74b1af90a37049ed6c,computer,Desktop or Laptop,Windows 10,Chrome 103.0.0.0,1366x768,1366x657,NA,ITT Ratings,3,against,4,NA,NA,ACCEPT,NA,NA,NA,NA,NA,NA,NA,batch4hes,batch4hes,41,19,1,Screen 1,continueButton,response_rating_scale_likert_active,3108.899999856949,NA,NA,Strongly Agree,1,0,1,0,NA,NA,NA,NA,1,statements,It isnt a vaccine.  It doesnt stop you catching the virus,1,17/05/2021 11:31,17/05/2021 11:38,434,Most weeks,Most days,46,Female,-99,"Postgraduate degree (MSc, MA, MPhil)",37,2,Against,Against
22,1658858528472,26/07/2022 18:02:08,1658858528358,1,26/07/2022 19:02:08,93981,5,task-mn1e,NA,23317487,6842717,NA,complete,NA,62e02b74b1af90a37049ed6c,computer,Desktop or Laptop,Windows 10,Chrome 103.0.0.0,1366x768,1366x657,NA,ITT Ratings,3,against,4,NA,NA,ACCEPT,NA,NA,NA,NA,NA,NA,NA,batch4hes,batch4hes,6,20,1,Screen 1,continueButton,response_rating_scale_likert_active,3267,NA,NA,Strongly Agree,1,0,1,0,NA,NA,NA,NA,1,statements,"links to blood clots and herpes - shingles, coldsores etc",1,17/05/2021 11:20,17/05/2021 11:28,519,Most weeks,Most days,42,Female,-99,Doctorate (PhD),31,3,Against,Against
23,1658858532086,26/07/2022 18:02:12,1658858532013,1,26/07/2022 19:02:12,93981,5,task-mn1e,NA,23317487,6842717,NA,complete,NA,62e02b74b1af90a37049ed6c,computer,Desktop or Laptop,Windows 10,Chrome 103.0.0.0,1366x768,1366x657,NA,ITT Ratings,3,against,4,NA,NA,ACCEPT,NA,NA,NA,NA,NA,NA,NA,batch4hes,batch4hes,48,21,1,Screen 1,continueButton,response_rating_scale_likert_active,3637.100000143051,NA,NA,Strongly Agree,1,0,1,0,NA,NA,NA,NA,1,statements,Vaccines take up to a decade to be safely trialled - this one has had around 9 months so there is no way all possible issues have been addressed.,1,17/05/2021 11:32,17/05/2021 11:42,618,Never,Rarely,57,Male,-99,A levels,38,3,Against,Against
24,1658858535005,26/07/2022 18:02:15,1658858534928,1,26/07/2022 19:02:14,93981,5,task-mn1e,NA,23317487,6842717,NA,complete,NA,62e02b74b1af90a37049ed6c,computer,Desktop or Laptop,Windows 10,Chrome 103.0.0.0,1366x768,1366x657,NA,ITT Ratings,3,against,4,NA,NA,ACCEPT,NA,NA,NA,NA,NA,NA,NA,batch4hes,batch4hes,13,22,1,Screen 1,continueButton,response_rating_scale_likert_active,2902.2999999523163,NA,NA,Strongly Disagree,1,0,1,0,NA,NA,NA,NA,1,statements,Everyone is having it so it must be safe.,1,17/05/2021 11:15,17/05/2021 11:30,899,Most weeks,Most weeks,61,Male,-99,"Postgraduate degree (MSc, MA, MPhil)",32,1,Against,For
25,1658858538059,26/07/2022 18:02:18,1658858537950,1,26/07/2022 19:02:17,93981,5,task-mn1e,NA,23317487,6842717,NA,complete,NA,62e02b74b1af90a37049ed6c,computer,Desktop or Laptop,Windows 10,Chrome 103.0.0.0,1366x768,1366x657,NA,ITT Ratings,3,against,4,NA,NA,ACCEPT,NA,NA,NA,NA,NA,NA,NA,batch4hes,batch4hes,22,23,1,Screen 1,continueButton,response_rating_scale_likert_active,3009.900000095367,NA,NA,Strongly Agree,1,0,1,0,NA,NA,NA,NA,1,statements,I do not know the side effects.,1,17/05/2021 11:28,17/05/2021 11:32,263,Most weeks,Rarely,58,Female,-99,GCSEs,34,1,Against,Against
26,1658858550344,26/07/2022 18:02:30,1658858550237,1,26/07/2022 19:02:30,93981,5,task-mn1e,NA,23317487,6842717,NA,complete,NA,62e02b74b1af90a37049ed6c,computer,Desktop or Laptop,Windows 10,Chrome 103.0.0.0,1366x768,1366x657,NA,ITT Ratings,3,against,4,NA,NA,ACCEPT,NA,NA,NA,NA,NA,NA,NA,batch4hes,batch4hes,52,24,1,Screen 1,continueButton,response_rating_scale_likert_active,12272.200000047684,NA,NA,Neither Agree nor Disagree,1,0,1,0,NA,NA,NA,NA,1,statements,Matt Hancock made an announcement on the 16th of May that people that have taken the two vaccine doses ''may still die'' as Indian variant spreads.,1,17/05/2021 11:35,17/05/2021 11:42,462,Most weeks,Most days,27,Female,-99,"Undergraduate degree (BSc, BA)",39,1,Against,Against
27,1658858553844,26/07/2022 18:02:33,1658858553782,1,26/07/2022 19:02:33,93981,5,task-mn1e,NA,23317487,6842717,NA,complete,NA,62e02b74b1af90a37049ed6c,computer,Desktop or Laptop,Windows 10,Chrome 103.0.0.0,1366x768,1366x657,NA,ITT Ratings,3,against,4,NA,NA,ACCEPT,NA,NA,NA,NA,NA,NA,NA,batch4hes,batch4hes,58,25,1,Screen 1,continueButton,response_rating_scale_likert_active,3533.100000143051,NA,NA,Strongly Agree,1,0,1,0,NA,NA,NA,NA,1,statements,It does not make sense to receive a vaccine for a virus that has over 95% recovery rate!,1,17/05/2021 11:08,17/05/2021 11:43,2086,Most days,Most days,28,Female,-99,"Postgraduate degree (MSc, MA, MPhil)",40,1,Against,Against
28,1658858558152,26/07/2022 18:02:38,1658858558040,1,26/07/2022 19:02:38,93981,5,task-mn1e,NA,23317487,6842717,NA,complete,NA,62e02b74b1af90a37049ed6c,computer,Desktop or Laptop,Windows 10,Chrome 103.0.0.0,1366x768,1366x657,NA,ITT Ratings,3,against,4,NA,NA,ACCEPT,NA,NA,NA,NA,NA,NA,NA,batch4hes,batch4hes,24,26,1,Screen 1,continueButton,response_rating_scale_likert_active,4236.700000047684,NA,NA,Strongly Agree,1,0,1,0,NA,NA,NA,NA,1,statements,I have lived with someone with Covid and did not even get ill.,1,17/05/2021 11:28,17/05/2021 11:32,263,Most weeks,Rarely,58,Female,-99,GCSEs,34,3,Against,Against
29,1658858560579,26/07/2022 18:02:40,1658858560518,1,26/07/2022 19:02:40,93981,5,task-mn1e,NA,23317487,6842717,NA,complete,NA,62e02b74b1af90a37049ed6c,computer,Desktop or Laptop,Windows 10,Chrome 103.0.0.0,1366x768,1366x657,NA,ITT Ratings,3,against,4,NA,NA,ACCEPT,NA,NA,NA,NA,NA,NA,NA,batch4hes,batch4hes,4,27,1,Screen 1,continueButton,response_rating_scale_likert_active,2464.199999809265,NA,NA,Strongly Agree,1,0,1,0,NA,NA,NA,NA,1,statements,"it's not a vaccine, it is an experimental RNA jab",1,17/05/2021 11:20,17/05/2021 11:28,519,Most weeks,Most days,42,Female,-99,Doctorate (PhD),31,1,Against,Against
30,1658858564525,26/07/2022 18:02:44,1658858564449,1,26/07/2022 19:02:44,93981,5,task-mn1e,NA,23317487,6842717,NA,complete,NA,62e02b74b1af90a37049ed6c,computer,Desktop or Laptop,Windows 10,Chrome 103.0.0.0,1366x768,1366x657,NA,ITT Ratings,3,against,4,NA,NA,ACCEPT,NA,NA,NA,NA,NA,NA,NA,batch4hes,batch4hes,45,28,1,Screen 1,continueButton,response_rating_scale_likert_active,3919.099999904633,NA,NA,Strongly Disagree,1,0,1,0,NA,NA,NA,NA,1,statements,The government told me to,1,17/05/2021 11:31,17/05/2021 11:38,434,Most weeks,Most days,46,Female,-99,"Postgraduate degree (MSc, MA, MPhil)",37,3,Against,For
31,1658858567377,26/07/2022 18:02:47,1658858567303,1,26/07/2022 19:02:47,93981,5,task-mn1e,NA,23317487,6842717,NA,complete,NA,62e02b74b1af90a37049ed6c,computer,Desktop or Laptop,Windows 10,Chrome 103.0.0.0,1366x768,1366x657,NA,ITT Ratings,3,against,4,NA,NA,ACCEPT,NA,NA,NA,NA,NA,NA,NA,batch4hes,batch4hes,55,29,1,Screen 1,continueButton,response_rating_scale_likert_active,2836.600000143051,NA,NA,Strongly Disagree,1,0,1,0,NA,NA,NA,NA,1,statements,It has gone through a fast track testing process to get it out into the public as soon as possible.,1,17/05/2021 11:35,17/05/2021 11:42,462,Most weeks,Most days,27,Female,-99,"Undergraduate degree (BSc, BA)",39,1,Against,For
32,1658858570213,26/07/2022 18:02:50,1658858570099,1,26/07/2022 19:02:50,93981,5,task-mn1e,NA,23317487,6842717,NA,complete,NA,62e02b74b1af90a37049ed6c,computer,Desktop or Laptop,Windows 10,Chrome 103.0.0.0,1366x768,1366x657,NA,ITT Ratings,3,against,4,NA,NA,ACCEPT,NA,NA,NA,NA,NA,NA,NA,batch4hes,batch4hes,16,30,1,Screen 1,continueButton,response_rating_scale_likert_active,2783.399999856949,NA,NA,Strongly Agree,1,0,1,0,NA,NA,NA,NA,1,statements,"Covide-19 vaccine is not safe enough and I don't know how does it work in long term,",1,17/05/2021 10:14,17/05/2021 11:30,4578,Most weeks,A few times a year,30,Female,-99,Vocational Training / Apprenticeship,33,1,Against,Against
33,1658858575942,26/07/2022 18:02:55,1658858575868,1,26/07/2022 19:02:55,93981,5,task-mn1e,NA,23317487,6842717,NA,complete,NA,62e02b74b1af90a37049ed6c,computer,Desktop or Laptop,Windows 10,Chrome 103.0.0.0,1366x768,1366x657,NA,ITT Ratings,3,against,4,NA,NA,ACCEPT,NA,NA,NA,NA,NA,NA,NA,batch4hes,batch4hes,3,31,1,Screen 1,continueButton,response_rating_scale_likert_active,5757.700000047684,NA,NA,Somewhat Disagree,1,0,1,0,NA,NA,NA,NA,1,statements,We would like to check you are reading each argument carefully. Please select 'Somewhat Disagree' for this answer,1,NA,NA,NA,NA,NA,NA,NA,NA,NA,NA,check2,NA,NA
34,1658858582193,26/07/2022 18:03:02,1658858582060,1,26/07/2022 19:03:02,93981,5,task-mn1e,NA,23317487,6842717,NA,complete,NA,62e02b74b1af90a37049ed6c,computer,Desktop or Laptop,Windows 10,Chrome 103.0.0.0,1366x768,1366x657,NA,ITT Ratings,3,against,4,NA,NA,ACCEPT,NA,NA,NA,NA,NA,NA,NA,batch4hes,batch4hes,18,32,1,Screen 1,continueButton,response_rating_scale_likert_active,6180.799999952316,NA,NA,Disagree,1,0,1,0,NA,NA,NA,NA,1,statements,"I don't trust anyone, It is created for people genocide.",1,17/05/2021 10:14,17/05/2021 11:30,4578,Most weeks,A few times a year,30,Female,-99,Vocational Training / Apprenticeship,33,3,Against,Against
35,1658858588418,26/07/2022 18:03:08,1658858588253,1,26/07/2022 19:03:08,93981,5,task-mn1e,NA,23317487,6842717,NA,complete,NA,62e02b74b1af90a37049ed6c,computer,Desktop or Laptop,Windows 10,Chrome 103.0.0.0,1366x768,1366x657,NA,ITT Ratings,3,against,4,NA,NA,ACCEPT,NA,NA,NA,NA,NA,NA,NA,batch4hes,batch4hes,15,33,1,Screen 1,continueButton,response_rating_scale_likert_active,6176.299999952316,NA,NA,Neither Agree nor Disagree,1,0,1,0,NA,NA,NA,NA,1,statements,I'm being told to have it for everybody's sake.,1,17/05/2021 11:15,17/05/2021 11:30,899,Most weeks,Most weeks,61,Male,-99,"Postgraduate degree (MSc, MA, MPhil)",32,3,Against,For
36,1658858592367,26/07/2022 18:03:12,1658858592293,1,26/07/2022 19:03:12,93981,5,task-mn1e,NA,23317487,6842717,NA,complete,NA,62e02b74b1af90a37049ed6c,computer,Desktop or Laptop,Windows 10,Chrome 103.0.0.0,1366x768,1366x657,NA,ITT Ratings,3,against,4,NA,NA,ACCEPT,NA,NA,NA,NA,NA,NA,NA,batch4hes,batch4hes,51,34,1,Screen 1,continueButton,response_rating_scale_likert_active,4021.700000047684,NA,NA,Strongly Disagree,1,0,1,0,NA,NA,NA,NA,1,statements,The governement says I have to.,1,17/05/2021 11:32,17/05/2021 11:42,618,Never,Rarely,57,Male,-99,A levels,38,3,Against,For
37,1658858595817,26/07/2022 18:03:15,1658858595759,1,26/07/2022 19:03:15,93981,5,task-mn1e,NA,23317487,6842717,NA,complete,NA,62e02b74b1af90a37049ed6c,computer,Desktop or Laptop,Windows 10,Chrome 103.0.0.0,1366x768,1366x657,NA,ITT Ratings,3,against,4,NA,NA,ACCEPT,NA,NA,NA,NA,NA,NA,NA,batch4hes,batch4hes,10,35,1,Screen 1,continueButton,response_rating_scale_likert_active,3454.2000000476837,NA,NA,Strongly Agree,1,0,1,0,NA,NA,NA,NA,1,statements,Overly quick development period: It was developed to rapidly and it is unknown if there will be any long term issues with it.,1,17/05/2021 11:15,17/05/2021 11:30,899,Most weeks,Most weeks,61,Male,-99,"Postgraduate degree (MSc, MA, MPhil)",32,1,Against,Against
38,1658858599104,26/07/2022 18:03:19,1658858598979,1,26/07/2022 19:03:18,93981,5,task-mn1e,NA,23317487,6842717,NA,complete,NA,62e02b74b1af90a37049ed6c,computer,Desktop or Laptop,Windows 10,Chrome 103.0.0.0,1366x768,1366x657,NA,ITT Ratings,3,against,4,NA,NA,ACCEPT,NA,NA,NA,NA,NA,NA,NA,batch4hes,batch4hes,28,36,1,Screen 1,continueButton,response_rating_scale_likert_active,3206.400000095367,NA,NA,Strongly Agree,1,0,1,0,NA,NA,NA,NA,1,statements,The vaccine can make you ill with part of the virus where you were otherwise immune anyway,1,17/05/2021 11:26,17/05/2021 11:32,370,Most weeks,Most months,33,Female,-99,"Postgraduate degree (MSc, MA, MPhil)",35,1,Against,Against
39,1658858601500,26/07/2022 18:03:21,1658858601428,1,26/07/2022 19:03:21,93981,5,task-mn1e,NA,23317487,6842717,NA,complete,NA,62e02b74b1af90a37049ed6c,computer,Desktop or Laptop,Windows 10,Chrome 103.0.0.0,1366x768,1366x657,NA,ITT Ratings,3,against,4,NA,NA,ACCEPT,NA,NA,NA,NA,NA,NA,NA,batch4hes,batch4hes,25,37,1,Screen 1,continueButton,response_rating_scale_likert_active,2432.900000095367,NA,NA,Strongly Disagree,1,0,1,0,NA,NA,NA,NA,1,statements,I trust that the vaccine is safe.,1,17/05/2021 11:28,17/05/2021 11:32,263,Most weeks,Rarely,58,Female,-99,GCSEs,34,1,Against,For
40,1658858604588,26/07/2022 18:03:24,1658858604519,1,26/07/2022 19:03:24,93981,5,task-mn1e,NA,23317487,6842717,NA,complete,NA,62e02b74b1af90a37049ed6c,computer,Desktop or Laptop,Windows 10,Chrome 103.0.0.0,1366x768,1366x657,NA,ITT Ratings,3,against,4,NA,NA,ACCEPT,NA,NA,NA,NA,NA,NA,NA,batch4hes,batch4hes,26,38,1,Screen 1,continueButton,response_rating_scale_likert_active,3077.2000000476837,NA,NA,Strongly Disagree,1,0,1,0,NA,NA,NA,NA,1,statements,We will never get back to normal if every single person does not have it.,1,17/05/2021 11:28,17/05/2021 11:32,263,Most weeks,Rarely,58,Female,-99,GCSEs,34,2,Against,For
41,1658858608127,26/07/2022 18:03:28,1658858607986,1,26/07/2022 19:03:27,93981,5,task-mn1e,NA,23317487,6842717,NA,complete,NA,62e02b74b1af90a37049ed6c,computer,Desktop or Laptop,Windows 10,Chrome 103.0.0.0,1366x768,1366x657,NA,ITT Ratings,3,against,4,NA,NA,ACCEPT,NA,NA,NA,NA,NA,NA,NA,batch4hes,batch4hes,59,39,1,Screen 1,continueButton,response_rating_scale_likert_active,3451.7999999523163,NA,NA,Strongly Agree,1,0,1,0,NA,NA,NA,NA,1,statements,"Instead of vaccines, drugs should be developed to help cure people who fall sick from Covid.",1,17/05/2021 11:08,17/05/2021 11:43,2086,Most days,Most days,28,Female,-99,"Postgraduate degree (MSc, MA, MPhil)",40,2,Against,Against
42,1658858611179,26/07/2022 18:03:31,1658858611097,1,26/07/2022 19:03:31,93981,5,task-mn1e,NA,23317487,6842717,NA,complete,NA,62e02b74b1af90a37049ed6c,computer,Desktop or Laptop,Windows 10,Chrome 103.0.0.0,1366x768,1366x657,NA,ITT Ratings,3,against,4,NA,NA,ACCEPT,NA,NA,NA,NA,NA,NA,NA,batch4hes,batch4hes,7,40,1,Screen 1,continueButton,response_rating_scale_likert_active,3098.600000143051,NA,NA,Strongly Disagree,1,0,1,0,NA,NA,NA,NA,1,statements,I am an ill person and don't look after my body,1,17/05/2021 11:20,17/05/2021 11:28,519,Most weeks,Most days,42,Female,-99,Doctorate (PhD),31,1,Against,For
43,1658858616661,26/07/2022 18:03:36,1658858616578,1,26/07/2022 19:03:36,93981,5,task-mn1e,NA,23317487,6842717,NA,complete,NA,62e02b74b1af90a37049ed6c,computer,Desktop or Laptop,Windows 10,Chrome 103.0.0.0,1366x768,1366x657,NA,ITT Ratings,3,against,4,NA,NA,ACCEPT,NA,NA,NA,NA,NA,NA,NA,batch4hes,batch4hes,8,41,1,Screen 1,continueButton,response_rating_scale_likert_active,5468.799999952316,NA,NA,Strongly Disagree,1,0,1,0,NA,NA,NA,NA,1,statements,I trust the government and the scientists they chose to let us listen to,1,17/05/2021 11:20,17/05/2021 11:28,519,Most weeks,Most days,42,Female,-99,Doctorate (PhD),31,2,Against,For
44,1658858628281,26/07/2022 18:03:48,1658858628155,1,26/07/2022 19:03:48,93981,5,task-mn1e,NA,23317487,6842717,NA,complete,NA,62e02b74b1af90a37049ed6c,computer,Desktop or Laptop,Windows 10,Chrome 103.0.0.0,1366x768,1366x657,NA,ITT Ratings,3,against,4,NA,NA,ACCEPT,NA,NA,NA,NA,NA,NA,NA,batch4hes,batch4hes,46,42,1,Screen 1,continueButton,response_rating_scale_likert_active,11558.299999952316,NA,NA,Somewhat Agree,1,0,1,0,NA,NA,NA,NA,1,statements,"Millions of people around the world have NOT died OF covid, they would have died anyway but happened to have the bug in them as well which had ho effect on their health.",1,17/05/2021 11:32,17/05/2021 11:42,618,Never,Rarely,57,Male,-99,A levels,38,1,Against,Against
45,1658858631284,26/07/2022 18:03:51,1658858631207,1,26/07/2022 19:03:51,93981,5,task-mn1e,NA,23317487,6842717,NA,complete,NA,62e02b74b1af90a37049ed6c,computer,Desktop or Laptop,Windows 10,Chrome 103.0.0.0,1366x768,1366x657,NA,ITT Ratings,3,against,4,NA,NA,ACCEPT,NA,NA,NA,NA,NA,NA,NA,batch4hes,batch4hes,57,43,1,Screen 1,continueButton,response_rating_scale_likert_active,3030.600000143051,NA,NA,Strongly Disagree,1,0,1,0,NA,NA,NA,NA,1,statements,I want to increase my chances of a fast recovery if I catch Covid.,1,17/05/2021 11:35,17/05/2021 11:42,462,Most weeks,Most days,27,Female,-99,"Undergraduate degree (BSc, BA)",39,3,Against,For
46,1658858634819,26/07/2022 18:03:54,1658858634754,1,26/07/2022 19:03:54,93981,5,task-mn1e,NA,23317487,6842717,NA,complete,NA,62e02b74b1af90a37049ed6c,computer,Desktop or Laptop,Windows 10,Chrome 103.0.0.0,1366x768,1366x657,NA,ITT Ratings,3,against,4,NA,NA,ACCEPT,NA,NA,NA,NA,NA,NA,NA,batch4hes,batch4hes,35,44,1,Screen 1,continueButton,response_rating_scale_likert_active,3528.099999904633,NA,NA,Strongly Agree,1,0,1,0,NA,NA,NA,NA,1,statements,"I would rather risk it and employ herd immunity - 'if I catch covid, I catch it' type of mentality",1,17/05/2021 11:15,17/05/2021 11:34,1100,Rarely,Never,28,Female,-99,"Undergraduate degree (BSc, BA)",36,2,Against,Against
47,1658858636792,26/07/2022 18:03:56,1658858636728,1,26/07/2022 19:03:56,93981,5,task-mn1e,NA,23317487,6842717,NA,complete,NA,62e02b74b1af90a37049ed6c,computer,Desktop or Laptop,Windows 10,Chrome 103.0.0.0,1366x768,1366x657,NA,ITT Ratings,3,against,4,NA,NA,ACCEPT,NA,NA,NA,NA,NA,NA,NA,batch4hes,batch4hes,40,45,1,Screen 1,continueButton,response_rating_scale_likert_active,1949.6000001430511,NA,NA,Strongly Agree,1,0,1,0,NA,NA,NA,NA,1,statements,The virus can still be transmitted,1,17/05/2021 11:31,17/05/2021 11:38,434,Most weeks,Most days,46,Female,-99,"Postgraduate degree (MSc, MA, MPhil)",37,1,Against,Against
48,1658858640214,26/07/2022 18:04:00,1658858640067,1,26/07/2022 19:04:00,93981,5,task-mn1e,NA,23317487,6842717,NA,complete,NA,62e02b74b1af90a37049ed6c,computer,Desktop or Laptop,Windows 10,Chrome 103.0.0.0,1366x768,1366x657,NA,ITT Ratings,3,against,4,NA,NA,ACCEPT,NA,NA,NA,NA,NA,NA,NA,batch4hes,batch4hes,32,46,1,Screen 1,continueButton,response_rating_scale_likert_active,3317.300000190735,NA,NA,Strongly Disagree,1,0,1,0,NA,NA,NA,NA,1,statements,Everyone should have the vaccine or thety shouldnt be allowed out in public,1,17/05/2021 11:26,17/05/2021 11:32,370,Most weeks,Most months,33,Female,-99,"Postgraduate degree (MSc, MA, MPhil)",35,2,Against,For
49,1658858642709,26/07/2022 18:04:02,1658858642644,1,26/07/2022 19:04:02,93981,5,task-mn1e,NA,23317487,6842717,NA,complete,NA,62e02b74b1af90a37049ed6c,computer,Desktop or Laptop,Windows 10,Chrome 103.0.0.0,1366x768,1366x657,NA,ITT Ratings,3,against,4,NA,NA,ACCEPT,NA,NA,NA,NA,NA,NA,NA,batch4hes,batch4hes,27,47,1,Screen 1,continueButton,response_rating_scale_likert_active,2555.5,NA,NA,Strongly Disagree,1,0,1,0,NA,NA,NA,NA,1,statements,I am looking out for other people by having it.,1,17/05/2021 11:28,17/05/2021 11:32,263,Most weeks,Rarely,58,Female,-99,GCSEs,34,3,Against,For
50,1658858645902,26/07/2022 18:04:05,1658858645834,1,26/07/2022 19:04:05,93981,5,task-mn1e,NA,23317487,6842717,NA,complete,NA,62e02b74b1af90a37049ed6c,computer,Desktop or Laptop,Windows 10,Chrome 103.0.0.0,1366x768,1366x657,NA,ITT Ratings,3,against,4,NA,NA,ACCEPT,NA,NA,NA,NA,NA,NA,NA,batch4hes,batch4hes,29,48,1,Screen 1,continueButton,response_rating_scale_likert_active,3174.2000000476837,NA,NA,Strongly Agree,1,0,1,0,NA,NA,NA,NA,1,statements,It has not been tested and we do not know the long term side effects from all the additives,1,17/05/2021 11:26,17/05/2021 11:32,370,Most weeks,Most months,33,Female,-99,"Postgraduate degree (MSc, MA, MPhil)",35,2,Against,Against
51,1658858649012,26/07/2022 18:04:09,1658858648886,1,26/07/2022 19:04:08,93981,5,task-mn1e,NA,23317487,6842717,NA,complete,NA,62e02b74b1af90a37049ed6c,computer,Desktop or Laptop,Windows 10,Chrome 103.0.0.0,1366x768,1366x657,NA,ITT Ratings,3,against,4,NA,NA,ACCEPT,NA,NA,NA,NA,NA,NA,NA,batch4hes,batch4hes,56,49,1,Screen 1,continueButton,response_rating_scale_likert_active,3036.7999999523163,NA,NA,Strongly Disagree,1,0,1,0,NA,NA,NA,NA,1,statements,It has been approved by Scientists.,1,17/05/2021 11:35,17/05/2021 11:42,462,Most weeks,Most days,27,Female,-99,"Undergraduate degree (BSc, BA)",39,2,Against,For
52,1658858651815,26/07/2022 18:04:11,1658858651750,1,26/07/2022 19:04:11,93981,5,task-mn1e,NA,23317487,6842717,NA,complete,NA,62e02b74b1af90a37049ed6c,computer,Desktop or Laptop,Windows 10,Chrome 103.0.0.0,1366x768,1366x657,NA,ITT Ratings,3,against,4,NA,NA,ACCEPT,NA,NA,NA,NA,NA,NA,NA,batch4hes,batch4hes,38,50,1,Screen 1,continueButton,response_rating_scale_likert_active,2850.2999999523163,NA,NA,Strongly Disagree,1,0,1,0,NA,NA,NA,NA,1,statements,I'd rather protect myself now and reduce the effects of the virus if I end up contracting it,1,17/05/2021 11:15,17/05/2021 11:34,1100,Rarely,Never,28,Female,-99,"Undergraduate degree (BSc, BA)",36,2,Against,For
53,1658858653918,26/07/2022 18:04:13,1658858653854,1,26/07/2022 19:04:13,93981,5,task-mn1e,NA,23317487,6842717,NA,complete,NA,62e02b74b1af90a37049ed6c,computer,Desktop or Laptop,Windows 10,Chrome 103.0.0.0,1366x768,1366x657,NA,ITT Ratings,3,against,4,NA,NA,ACCEPT,NA,NA,NA,NA,NA,NA,NA,batch4hes,batch4hes,49,51,1,Screen 1,continueButton,response_rating_scale_likert_active,2086.099999904633,NA,NA,Strongly Disagree,1,0,1,0,NA,NA,NA,NA,1,statements,I don't want to become really ill.,1,17/05/2021 11:32,17/05/2021 11:42,618,Never,Rarely,57,Male,-99,A levels,38,1,Against,For
54,1658858658492,26/07/2022 18:04:18,1658858658367,1,26/07/2022 19:04:18,93981,5,task-mn1e,NA,23317487,6842717,NA,complete,NA,62e02b74b1af90a37049ed6c,computer,Desktop or Laptop,Windows 10,Chrome 103.0.0.0,1366x768,1366x657,NA,ITT Ratings,3,against,4,NA,NA,ACCEPT,NA,NA,NA,NA,NA,NA,NA,batch4hes,batch4hes,17,52,1,Screen 1,continueButton,response_rating_scale_likert_active,4499.599999904633,NA,NA,Agree,1,0,1,0,NA,NA,NA,NA,1,statements,I can defeat this virus with my own antibodies. I am healthy enough to evercome it.,1,17/05/2021 10:14,17/05/2021 11:30,4578,Most weeks,A few times a year,30,Female,-99,Vocational Training / Apprenticeship,33,2,Against,Against
55,1658858664049,26/07/2022 18:04:24,1658858663977,1,26/07/2022 19:04:23,93981,5,task-mn1e,NA,23317487,6842717,NA,complete,NA,62e02b74b1af90a37049ed6c,computer,Desktop or Laptop,Windows 10,Chrome 103.0.0.0,1366x768,1366x657,NA,ITT Ratings,3,against,4,NA,NA,ACCEPT,NA,NA,NA,NA,NA,NA,NA,batch4hes,batch4hes,11,53,1,Screen 1,continueButton,response_rating_scale_likert_active,5595.800000190735,NA,NA,Agree,1,0,1,0,NA,NA,NA,NA,1,statements,Not effective against this Coronavirus: Coronaviruses have been around for a very long time and we have never been able to produce an effective vaccine against them and yet suddenly we have eleven.,1,17/05/2021 11:15,17/05/2021 11:30,899,Most weeks,Most weeks,61,Male,-99,"Postgraduate degree (MSc, MA, MPhil)",32,2,Against,Against
56,1658858666579,26/07/2022 18:04:26,1658858666516,1,26/07/2022 19:04:26,93981,5,task-mn1e,NA,23317487,6842717,NA,complete,NA,62e02b74b1af90a37049ed6c,computer,Desktop or Laptop,Windows 10,Chrome 103.0.0.0,1366x768,1366x657,NA,ITT Ratings,3,against,4,NA,NA,ACCEPT,NA,NA,NA,NA,NA,NA,NA,batch4hes,batch4hes,34,54,1,Screen 1,continueButton,response_rating_scale_likert_active,2520.5,NA,NA,Strongly Agree,1,0,1,0,NA,NA,NA,NA,1,statements,I don't trust the vaccine in terms of safety and its efficacy.,1,17/05/2021 11:15,17/05/2021 11:34,1100,Rarely,Never,28,Female,-99,"Undergraduate degree (BSc, BA)",36,1,Against,Against
57,1658858668561,26/07/2022 18:04:28,1658858668442,1,26/07/2022 19:04:28,93981,5,task-mn1e,NA,23317487,6842717,NA,complete,NA,62e02b74b1af90a37049ed6c,computer,Desktop or Laptop,Windows 10,Chrome 103.0.0.0,1366x768,1366x657,NA,ITT Ratings,3,against,4,NA,NA,ACCEPT,NA,NA,NA,NA,NA,NA,NA,batch4hes,batch4hes,31,55,1,Screen 1,continueButton,response_rating_scale_likert_active,1912.5999999046328,NA,NA,Strongly Agree,1,0,1,0,NA,NA,NA,NA,1,statements,You will spread it without the vaccine,1,17/05/2021 11:26,17/05/2021 11:32,370,Most weeks,Most months,33,Female,-99,"Postgraduate degree (MSc, MA, MPhil)",35,1,Against,For
58,1658858671395,26/07/2022 18:04:31,1658858671305,1,26/07/2022 19:04:31,93981,5,task-mn1e,NA,23317487,6842717,NA,complete,NA,62e02b74b1af90a37049ed6c,computer,Desktop or Laptop,Windows 10,Chrome 103.0.0.0,1366x768,1366x657,NA,ITT Ratings,3,against,4,NA,NA,ACCEPT,NA,NA,NA,NA,NA,NA,NA,batch4hes,batch4hes,50,56,1,Screen 1,continueButton,response_rating_scale_likert_active,2851,NA,NA,Neither Agree nor Disagree,1,0,1,0,NA,NA,NA,NA,1,statements,I don't want to die.,1,17/05/2021 11:32,17/05/2021 11:42,618,Never,Rarely,57,Male,-99,A levels,38,2,Against,For
59,1658858674794,26/07/2022 18:04:34,1658858674723,1,26/07/2022 19:04:34,93981,5,task-mn1e,NA,23317487,6842717,NA,complete,NA,62e02b74b1af90a37049ed6c,computer,Desktop or Laptop,Windows 10,Chrome 103.0.0.0,1366x768,1366x657,NA,ITT Ratings,3,against,4,NA,NA,ACCEPT,NA,NA,NA,NA,NA,NA,NA,batch4hes,batch4hes,14,57,1,Screen 1,continueButton,response_rating_scale_likert_active,3402.099999904633,NA,NA,Neither Agree nor Disagree,1,0,1,0,NA,NA,NA,NA,1,statements,We need to beat this virus.,1,17/05/2021 11:15,17/05/2021 11:30,899,Most weeks,Most weeks,61,Male,-99,"Postgraduate degree (MSc, MA, MPhil)",32,2,Against,For
60,1658858677974,26/07/2022 18:04:37,1658858677857,1,26/07/2022 19:04:37,93981,5,task-mn1e,NA,23317487,6842717,NA,complete,NA,62e02b74b1af90a37049ed6c,computer,Desktop or Laptop,Windows 10,Chrome 103.0.0.0,1366x768,1366x657,NA,ITT Ratings,3,against,4,NA,NA,ACCEPT,NA,NA,NA,NA,NA,NA,NA,batch4hes,batch4hes,39,58,1,Screen 1,continueButton,response_rating_scale_likert_active,3120.399999856949,NA,NA,Strongly Disagree,1,0,1,0,NA,NA,NA,NA,1,statements,"I've been vaccinated against everything else, why should the covid vaccine be any different?",1,17/05/2021 11:15,17/05/2021 11:34,1100,Rarely,Never,28,Female,-99,"Undergraduate degree (BSc, BA)",36,3,Against,For
61,1658858679575,26/07/2022 18:04:39,1658858679503,1,26/07/2022 19:04:39,93981,5,task-mn1e,NA,23317487,6842717,NA,complete,NA,62e02b74b1af90a37049ed6c,computer,Desktop or Laptop,Windows 10,Chrome 103.0.0.0,1366x768,1366x657,NA,ITT Ratings,3,against,4,NA,NA,ACCEPT,NA,NA,NA,NA,NA,NA,NA,batch4hes,batch4hes,62,59,1,Screen 1,continueButton,response_rating_scale_likert_active,1630.8999998569489,NA,NA,Strongly Disagree,1,0,1,0,NA,NA,NA,NA,1,statements,So we can go back to life before Covid.,1,17/05/2021 11:08,17/05/2021 11:43,2086,Most days,Most days,28,Female,-99,"Postgraduate degree (MSc, MA, MPhil)",40,2,Against,For
62,1658858683277,26/07/2022 18:04:43,1658858683207,1,26/07/2022 19:04:43,93981,5,task-mn1e,NA,23317487,6842717,NA,complete,NA,62e02b74b1af90a37049ed6c,computer,Desktop or Laptop,Windows 10,Chrome 103.0.0.0,1366x768,1366x657,NA,ITT Ratings,3,against,4,NA,NA,ACCEPT,NA,NA,NA,NA,NA,NA,NA,batch4hes,batch4hes,23,60,1,Screen 1,continueButton,response_rating_scale_likert_active,3690.5,NA,NA,Agree,1,0,1,0,NA,NA,NA,NA,1,statements,I have been okay up to now.,1,17/05/2021 11:28,17/05/2021 11:32,263,Most weeks,Rarely,58,Female,-99,GCSEs,34,2,Against,Against
63,1658858689406,26/07/2022 18:04:49,1658858689281,1,26/07/2022 19:04:49,93981,5,task-mn1e,NA,23317487,6842717,NA,complete,NA,62e02b74b1af90a37049ed6c,computer,Desktop or Laptop,Windows 10,Chrome 103.0.0.0,1366x768,1366x657,NA,ITT Ratings,3,against,4,NA,NA,ACCEPT,NA,NA,NA,NA,NA,NA,NA,batch4hes,batch4hes,53,61,1,Screen 1,continueButton,response_rating_scale_likert_active,6063.5,NA,NA,Strongly Agree,1,0,1,0,NA,NA,NA,NA,1,statements,Hundreds of reports of serious reactions to the vaccine and even deaths. It takes a few moment on google to discover these vaccines are not safe and do not even work according to Matt Hancock.,1,17/05/2021 11:35,17/05/2021 11:42,462,Most weeks,Most days,27,Female,-99,"Undergraduate degree (BSc, BA)",39,2,Against,Against
64,1658858691149,26/07/2022 18:04:51,1658858691069,1,26/07/2022 19:04:51,93981,5,task-mn1e,NA,23317487,6842717,NA,complete,NA,62e02b74b1af90a37049ed6c,computer,Desktop or Laptop,Windows 10,Chrome 103.0.0.0,1366x768,1366x657,NA,ITT Ratings,3,against,4,NA,NA,ACCEPT,NA,NA,NA,NA,NA,NA,NA,batch4hes,batch4hes,5,62,1,Screen 1,continueButton,response_rating_scale_likert_active,1776.6000001430511,NA,NA,Strongly Agree,1,0,1,0,NA,NA,NA,NA,1,statements,it is still in clinical trials,1,17/05/2021 11:20,17/05/2021 11:28,519,Most weeks,Most days,42,Female,-99,Doctorate (PhD),31,2,Against,Against
65,1658858691203,26/07/2022 18:04:51,1658858691078,1,26/07/2022 19:04:51,93981,5,task-mn1e,NA,23317487,6842717,NA,complete,NA,62e02b74b1af90a37049ed6c,computer,Desktop or Laptop,Windows 10,Chrome 103.0.0.0,1366x768,1366x657,NA,ITT Ratings,3,against,4,NA,NA,ACCEPT,NA,NA,NA,NA,NA,NA,NA,batch4hes,NA,NA,END TASK,NA,NA,NA,NA,287343,NA,NA,NA,NA,0,1,0,NA,NA,NA,NA,NA,NA,NA,NA,NA,NA,NA,NA,NA,NA,NA,NA,NA,NA,NA,NA,NA
1,1658858678013,26/07/2022 18:04:38,1658858677855,1,26/07/2022 19:04:37,93981,5,task-mn1e,NA,23317611,6842751,NA,complete,NA,62e02c681a2bc1ce72ab7621,computer,Desktop or Laptop,Windows 10,Chrome 103.0.5060.134,1366x768,1366x671,NA,ITT Ratings,3,against,4,NA,NA,ACCEPT,NA,NA,NA,NA,NA,NA,NA,batch4hes,NA,NA,BEGIN TASK,NA,NA,NA,NA,NA,NA,NA,NA,NA,0,1,0,NA,NA,NA,NA,NA,NA,NA,NA,NA,NA,NA,NA,NA,NA,NA,NA,NA,NA,NA,NA,NA
2,1658858689404,26/07/2022 18:04:49,1658858689305,1,26/07/2022 19:04:49,93981,5,task-mn1e,NA,23317611,6842751,NA,complete,NA,62e02c681a2bc1ce72ab7621,computer,Desktop or Laptop,Windows 10,Chrome 103.0.5060.134,1366x768,1366x671,NA,ITT Ratings,3,against,4,NA,NA,ACCEPT,NA,NA,NA,NA,NA,NA,NA,batch4hes,batch4hes,1,1,1,Screen 1,advancementZone,continue_button,11312,NA,NA,NA,NA,0,1,0,NA,NA,NA,NA,NA,instructions,NA,NA,NA,NA,NA,NA,NA,NA,NA,NA,NA,NA,NA,NA,NA
3,1658858697671,26/07/2022 18:04:57,1658858697590,1,26/07/2022 19:04:57,93981,5,task-mn1e,NA,23317611,6842751,NA,complete,NA,62e02c681a2bc1ce72ab7621,computer,Desktop or Laptop,Windows 10,Chrome 103.0.5060.134,1366x768,1366x671,NA,ITT Ratings,3,against,4,NA,NA,ACCEPT,NA,NA,NA,NA,NA,NA,NA,batch4hes,batch4hes,40,1,1,Screen 1,continueButton,response_rating_scale_likert_active,8235.800000071526,NA,NA,Agree,1,0,1,0,NA,NA,NA,NA,1,statements,The virus can still be transmitted,1,17/05/2021 11:31,17/05/2021 11:38,434,Most weeks,Most days,46,Female,-99,"Postgraduate degree (MSc, MA, MPhil)",37,1,Against,Against
4,1658858702036,26/07/2022 18:05:02,1658858701947,1,26/07/2022 19:05:01,93981,5,task-mn1e,NA,23317611,6842751,NA,complete,NA,62e02c681a2bc1ce72ab7621,computer,Desktop or Laptop,Windows 10,Chrome 103.0.5060.134,1366x768,1366x671,NA,ITT Ratings,3,against,4,NA,NA,ACCEPT,NA,NA,NA,NA,NA,NA,NA,batch4hes,batch4hes,36,2,1,Screen 1,continueButton,response_rating_scale_likert_active,4317.299999952316,NA,NA,Somewhat Agree,1,0,1,0,NA,NA,NA,NA,1,statements,I would prefer a more natural method of treating covid should I catch it,1,17/05/2021 11:15,17/05/2021 11:34,1100,Rarely,Never,28,Female,-99,"Undergraduate degree (BSc, BA)",36,3,Against,Against
5,1658858706675,26/07/2022 18:05:06,1658858706583,1,26/07/2022 19:05:06,93981,5,task-mn1e,NA,23317611,6842751,NA,complete,NA,62e02c681a2bc1ce72ab7621,computer,Desktop or Laptop,Windows 10,Chrome 103.0.5060.134,1366x768,1366x671,NA,ITT Ratings,3,against,4,NA,NA,ACCEPT,NA,NA,NA,NA,NA,NA,NA,batch4hes,batch4hes,16,3,1,Screen 1,continueButton,response_rating_scale_likert_active,4549.899999976158,NA,NA,Agree,1,0,1,0,NA,NA,NA,NA,1,statements,"Covide-19 vaccine is not safe enough and I don't know how does it work in long term,",1,17/05/2021 10:14,17/05/2021 11:30,4578,Most weeks,A few times a year,30,Female,-99,Vocational Training / Apprenticeship,33,1,Against,Against
6,1658858715216,26/07/2022 18:05:15,1658858715120,1,26/07/2022 19:05:15,93981,5,task-mn1e,NA,23317611,6842751,NA,complete,NA,62e02c681a2bc1ce72ab7621,computer,Desktop or Laptop,Windows 10,Chrome 103.0.5060.134,1366x768,1366x671,NA,ITT Ratings,3,against,4,NA,NA,ACCEPT,NA,NA,NA,NA,NA,NA,NA,batch4hes,batch4hes,20,4,1,Screen 1,continueButton,response_rating_scale_likert_active,8496.5,NA,NA,Somewhat Agree,1,0,1,0,NA,NA,NA,NA,1,statements,"if you don't care of yourself, please think about your grandmother, diabetic mother, high risked neighbour.",1,17/05/2021 10:14,17/05/2021 11:30,4578,Most weeks,A few times a year,30,Female,-99,Vocational Training / Apprenticeship,33,2,Against,For
7,1658858731074,26/07/2022 18:05:31,1658858730964,1,26/07/2022 19:05:30,93981,5,task-mn1e,NA,23317611,6842751,NA,complete,NA,62e02c681a2bc1ce72ab7621,computer,Desktop or Laptop,Windows 10,Chrome 103.0.5060.134,1366x768,1366x671,NA,ITT Ratings,3,against,4,NA,NA,ACCEPT,NA,NA,NA,NA,NA,NA,NA,batch4hes,batch4hes,31,5,1,Screen 1,continueButton,response_rating_scale_likert_active,15796.399999976158,NA,NA,Neither Agree nor Disagree,1,0,1,0,NA,NA,NA,NA,1,statements,You will spread it without the vaccine,1,17/05/2021 11:26,17/05/2021 11:32,370,Most weeks,Most months,33,Female,-99,"Postgraduate degree (MSc, MA, MPhil)",35,1,Against,For
8,1658858740356,26/07/2022 18:05:40,1658858740274,1,26/07/2022 19:05:40,93981,5,task-mn1e,NA,23317611,6842751,NA,complete,NA,62e02c681a2bc1ce72ab7621,computer,Desktop or Laptop,Windows 10,Chrome 103.0.5060.134,1366x768,1366x671,NA,ITT Ratings,3,against,4,NA,NA,ACCEPT,NA,NA,NA,NA,NA,NA,NA,batch4hes,batch4hes,60,6,1,Screen 1,continueButton,response_rating_scale_likert_active,9263.5,NA,NA,Strongly Agree,1,0,1,0,NA,NA,NA,NA,1,statements,"Why have the producers of the vaccine been exonerated from any form of liability arising from any effect/death as a result of taking the vaccine, if they're saying its safe and effective?",1,17/05/2021 11:08,17/05/2021 11:43,2086,Most days,Most days,28,Female,-99,"Postgraduate degree (MSc, MA, MPhil)",40,3,Against,Against
9,1658858748523,26/07/2022 18:05:48,1658858748431,1,26/07/2022 19:05:48,93981,5,task-mn1e,NA,23317611,6842751,NA,complete,NA,62e02c681a2bc1ce72ab7621,computer,Desktop or Laptop,Windows 10,Chrome 103.0.5060.134,1366x768,1366x671,NA,ITT Ratings,3,against,4,NA,NA,ACCEPT,NA,NA,NA,NA,NA,NA,NA,batch4hes,batch4hes,10,7,1,Screen 1,continueButton,response_rating_scale_likert_active,8115.600000023842,NA,NA,Agree,1,0,1,0,NA,NA,NA,NA,1,statements,Overly quick development period: It was developed to rapidly and it is unknown if there will be any long term issues with it.,1,17/05/2021 11:15,17/05/2021 11:30,899,Most weeks,Most weeks,61,Male,-99,"Postgraduate degree (MSc, MA, MPhil)",32,1,Against,Against
10,1658858751276,26/07/2022 18:05:51,1658858751205,1,26/07/2022 19:05:51,93981,5,task-mn1e,NA,23317611,6842751,NA,complete,NA,62e02c681a2bc1ce72ab7621,computer,Desktop or Laptop,Windows 10,Chrome 103.0.5060.134,1366x768,1366x671,NA,ITT Ratings,3,against,4,NA,NA,ACCEPT,NA,NA,NA,NA,NA,NA,NA,batch4hes,batch4hes,53,8,1,Screen 1,continueButton,response_rating_scale_likert_active,2733.7999999523163,NA,NA,Agree,1,0,1,0,NA,NA,NA,NA,1,statements,Hundreds of reports of serious reactions to the vaccine and even deaths. It takes a few moment on google to discover these vaccines are not safe and do not even work according to Matt Hancock.,1,17/05/2021 11:35,17/05/2021 11:42,462,Most weeks,Most days,27,Female,-99,"Undergraduate degree (BSc, BA)",39,2,Against,Against
11,1658858760957,26/07/2022 18:06:00,1658858760863,1,26/07/2022 19:06:00,93981,5,task-mn1e,NA,23317611,6842751,NA,complete,NA,62e02c681a2bc1ce72ab7621,computer,Desktop or Laptop,Windows 10,Chrome 103.0.5060.134,1366x768,1366x671,NA,ITT Ratings,3,against,4,NA,NA,ACCEPT,NA,NA,NA,NA,NA,NA,NA,batch4hes,batch4hes,47,9,1,Screen 1,continueButton,response_rating_scale_likert_active,9628,NA,NA,Somewhat Agree,1,0,1,0,NA,NA,NA,NA,1,statements,No two adults have had the vaccine then created a baby that has then been born without any issues - there simply has not been enough time so it is impossible to say if that baby would be ok.,1,17/05/2021 11:32,17/05/2021 11:42,618,Never,Rarely,57,Male,-99,A levels,38,2,Against,Against
12,1658858770389,26/07/2022 18:06:10,1658858770302,1,26/07/2022 19:06:10,93981,5,task-mn1e,NA,23317611,6842751,NA,complete,NA,62e02c681a2bc1ce72ab7621,computer,Desktop or Laptop,Windows 10,Chrome 103.0.5060.134,1366x768,1366x671,NA,ITT Ratings,3,against,4,NA,NA,ACCEPT,NA,NA,NA,NA,NA,NA,NA,batch4hes,batch4hes,8,10,1,Screen 1,continueButton,response_rating_scale_likert_active,9375.5,NA,NA,Disagree,1,0,1,0,NA,NA,NA,NA,1,statements,I trust the government and the scientists they chose to let us listen to,1,17/05/2021 11:20,17/05/2021 11:28,519,Most weeks,Most days,42,Female,-99,Doctorate (PhD),31,2,Against,For
13,1658858777770,26/07/2022 18:06:17,1658858777692,1,26/07/2022 19:06:17,93981,5,task-mn1e,NA,23317611,6842751,NA,complete,NA,62e02c681a2bc1ce72ab7621,computer,Desktop or Laptop,Windows 10,Chrome 103.0.5060.134,1366x768,1366x671,NA,ITT Ratings,3,against,4,NA,NA,ACCEPT,NA,NA,NA,NA,NA,NA,NA,batch4hes,batch4hes,39,11,1,Screen 1,continueButton,response_rating_scale_likert_active,7349.200000047684,NA,NA,Neither Agree nor Disagree,1,0,1,0,NA,NA,NA,NA,1,statements,"I've been vaccinated against everything else, why should the covid vaccine be any different?",1,17/05/2021 11:15,17/05/2021 11:34,1100,Rarely,Never,28,Female,-99,"Undergraduate degree (BSc, BA)",36,3,Against,For
14,1658858784381,26/07/2022 18:06:24,1658858784301,1,26/07/2022 19:06:24,93981,5,task-mn1e,NA,23317611,6842751,NA,complete,NA,62e02c681a2bc1ce72ab7621,computer,Desktop or Laptop,Windows 10,Chrome 103.0.5060.134,1366x768,1366x671,NA,ITT Ratings,3,against,4,NA,NA,ACCEPT,NA,NA,NA,NA,NA,NA,NA,batch4hes,batch4hes,62,12,1,Screen 1,continueButton,response_rating_scale_likert_active,6557.600000023842,NA,NA,Somewhat Agree,1,0,1,0,NA,NA,NA,NA,1,statements,So we can go back to life before Covid.,1,17/05/2021 11:08,17/05/2021 11:43,2086,Most days,Most days,28,Female,-99,"Postgraduate degree (MSc, MA, MPhil)",40,2,Against,For
15,1658858794177,26/07/2022 18:06:34,1658858794102,1,26/07/2022 19:06:34,93981,5,task-mn1e,NA,23317611,6842751,NA,complete,NA,62e02c681a2bc1ce72ab7621,computer,Desktop or Laptop,Windows 10,Chrome 103.0.5060.134,1366x768,1366x671,NA,ITT Ratings,3,against,4,NA,NA,ACCEPT,NA,NA,NA,NA,NA,NA,NA,batch4hes,batch4hes,35,13,1,Screen 1,continueButton,response_rating_scale_likert_active,9758.399999976158,NA,NA,Somewhat Agree,1,0,1,0,NA,NA,NA,NA,1,statements,"I would rather risk it and employ herd immunity - 'if I catch covid, I catch it' type of mentality",1,17/05/2021 11:15,17/05/2021 11:34,1100,Rarely,Never,28,Female,-99,"Undergraduate degree (BSc, BA)",36,2,Against,Against
16,1658858800026,26/07/2022 18:06:40,1658858799935,1,26/07/2022 19:06:39,93981,5,task-mn1e,NA,23317611,6842751,NA,complete,NA,62e02c681a2bc1ce72ab7621,computer,Desktop or Laptop,Windows 10,Chrome 103.0.5060.134,1366x768,1366x671,NA,ITT Ratings,3,against,4,NA,NA,ACCEPT,NA,NA,NA,NA,NA,NA,NA,batch4hes,batch4hes,32,14,1,Screen 1,continueButton,response_rating_scale_likert_active,5801.400000095367,NA,NA,Strongly Disagree,1,0,1,0,NA,NA,NA,NA,1,statements,Everyone should have the vaccine or thety shouldnt be allowed out in public,1,17/05/2021 11:26,17/05/2021 11:32,370,Most weeks,Most months,33,Female,-99,"Postgraduate degree (MSc, MA, MPhil)",35,2,Against,For
17,1658858805745,26/07/2022 18:06:45,1658858805669,1,26/07/2022 19:06:45,93981,5,task-mn1e,NA,23317611,6842751,NA,complete,NA,62e02c681a2bc1ce72ab7621,computer,Desktop or Laptop,Windows 10,Chrome 103.0.5060.134,1366x768,1366x671,NA,ITT Ratings,3,against,4,NA,NA,ACCEPT,NA,NA,NA,NA,NA,NA,NA,batch4hes,batch4hes,5,15,1,Screen 1,continueButton,response_rating_scale_likert_active,5684.299999952316,NA,NA,Somewhat Agree,1,0,1,0,NA,NA,NA,NA,1,statements,it is still in clinical trials,1,17/05/2021 11:20,17/05/2021 11:28,519,Most weeks,Most days,42,Female,-99,Doctorate (PhD),31,2,Against,Against
18,1658858809936,26/07/2022 18:06:49,1658858809844,1,26/07/2022 19:06:49,93981,5,task-mn1e,NA,23317611,6842751,NA,complete,NA,62e02c681a2bc1ce72ab7621,computer,Desktop or Laptop,Windows 10,Chrome 103.0.5060.134,1366x768,1366x671,NA,ITT Ratings,3,against,4,NA,NA,ACCEPT,NA,NA,NA,NA,NA,NA,NA,batch4hes,batch4hes,22,16,1,Screen 1,continueButton,response_rating_scale_likert_active,4136.899999976158,NA,NA,Agree,1,0,1,0,NA,NA,NA,NA,1,statements,I do not know the side effects.,1,17/05/2021 11:28,17/05/2021 11:32,263,Most weeks,Rarely,58,Female,-99,GCSEs,34,1,Against,Against
19,1658858815077,26/07/2022 18:06:55,1658858814984,1,26/07/2022 19:06:54,93981,5,task-mn1e,NA,23317611,6842751,NA,complete,NA,62e02c681a2bc1ce72ab7621,computer,Desktop or Laptop,Windows 10,Chrome 103.0.5060.134,1366x768,1366x671,NA,ITT Ratings,3,against,4,NA,NA,ACCEPT,NA,NA,NA,NA,NA,NA,NA,batch4hes,batch4hes,17,17,1,Screen 1,continueButton,response_rating_scale_likert_active,5101.800000071526,NA,NA,Neither Agree nor Disagree,1,0,1,0,NA,NA,NA,NA,1,statements,I can defeat this virus with my own antibodies. I am healthy enough to evercome it.,1,17/05/2021 10:14,17/05/2021 11:30,4578,Most weeks,A few times a year,30,Female,-99,Vocational Training / Apprenticeship,33,2,Against,Against
20,1658858825928,26/07/2022 18:07:05,1658858825837,1,26/07/2022 19:07:05,93981,5,task-mn1e,NA,23317611,6842751,NA,complete,NA,62e02c681a2bc1ce72ab7621,computer,Desktop or Laptop,Windows 10,Chrome 103.0.5060.134,1366x768,1366x671,NA,ITT Ratings,3,against,4,NA,NA,ACCEPT,NA,NA,NA,NA,NA,NA,NA,batch4hes,batch4hes,12,18,1,Screen 1,continueButton,response_rating_scale_likert_active,10805.700000047684,NA,NA,Somewhat Agree,1,0,1,0,NA,NA,NA,NA,1,statements,RNA vaccines aren't safe: In initial trials of the RNA technology resulted in the death of all the animals it was trialed on. This untested method of vaccination will likely damage human immune system,1,17/05/2021 11:15,17/05/2021 11:30,899,Most weeks,Most weeks,61,Male,-99,"Postgraduate degree (MSc, MA, MPhil)",32,3,Against,Against
21,1658858829937,26/07/2022 18:07:09,1658858829857,1,26/07/2022 19:07:09,93981,5,task-mn1e,NA,23317611,6842751,NA,complete,NA,62e02c681a2bc1ce72ab7621,computer,Desktop or Laptop,Windows 10,Chrome 103.0.5060.134,1366x768,1366x671,NA,ITT Ratings,3,against,4,NA,NA,ACCEPT,NA,NA,NA,NA,NA,NA,NA,batch4hes,batch4hes,27,19,1,Screen 1,continueButton,response_rating_scale_likert_active,3985.399999976158,NA,NA,Neither Agree nor Disagree,1,0,1,0,NA,NA,NA,NA,1,statements,I am looking out for other people by having it.,1,17/05/2021 11:28,17/05/2021 11:32,263,Most weeks,Rarely,58,Female,-99,GCSEs,34,3,Against,For
22,1658858833358,26/07/2022 18:07:13,1658858833270,1,26/07/2022 19:07:13,93981,5,task-mn1e,NA,23317611,6842751,NA,complete,NA,62e02c681a2bc1ce72ab7621,computer,Desktop or Laptop,Windows 10,Chrome 103.0.5060.134,1366x768,1366x671,NA,ITT Ratings,3,against,4,NA,NA,ACCEPT,NA,NA,NA,NA,NA,NA,NA,batch4hes,batch4hes,19,20,1,Screen 1,continueButton,response_rating_scale_likert_active,3378.8000000715256,NA,NA,Disagree,1,0,1,0,NA,NA,NA,NA,1,statements,It is for your safety.,1,17/05/2021 10:14,17/05/2021 11:30,4578,Most weeks,A few times a year,30,Female,-99,Vocational Training / Apprenticeship,33,1,Against,For
23,1658858838040,26/07/2022 18:07:18,1658858837953,1,26/07/2022 19:07:17,93981,5,task-mn1e,NA,23317611,6842751,NA,complete,NA,62e02c681a2bc1ce72ab7621,computer,Desktop or Laptop,Windows 10,Chrome 103.0.5060.134,1366x768,1366x671,NA,ITT Ratings,3,against,4,NA,NA,ACCEPT,NA,NA,NA,NA,NA,NA,NA,batch4hes,batch4hes,6,21,1,Screen 1,continueButton,response_rating_scale_likert_active,4645.5,NA,NA,Agree,1,0,1,0,NA,NA,NA,NA,1,statements,"links to blood clots and herpes - shingles, coldsores etc",1,17/05/2021 11:20,17/05/2021 11:28,519,Most weeks,Most days,42,Female,-99,Doctorate (PhD),31,3,Against,Against
24,1658858848261,26/07/2022 18:07:28,1658858848164,1,26/07/2022 19:07:28,93981,5,task-mn1e,NA,23317611,6842751,NA,complete,NA,62e02c681a2bc1ce72ab7621,computer,Desktop or Laptop,Windows 10,Chrome 103.0.5060.134,1366x768,1366x671,NA,ITT Ratings,3,against,4,NA,NA,ACCEPT,NA,NA,NA,NA,NA,NA,NA,batch4hes,batch4hes,52,22,1,Screen 1,continueButton,response_rating_scale_likert_active,10155.100000023842,NA,NA,Somewhat Agree,1,0,1,0,NA,NA,NA,NA,1,statements,Matt Hancock made an announcement on the 16th of May that people that have taken the two vaccine doses ''may still die'' as Indian variant spreads.,1,17/05/2021 11:35,17/05/2021 11:42,462,Most weeks,Most days,27,Female,-99,"Undergraduate degree (BSc, BA)",39,1,Against,Against
25,1658858867599,26/07/2022 18:07:47,1658858867499,1,26/07/2022 19:07:47,93981,5,task-mn1e,NA,23317611,6842751,NA,complete,NA,62e02c681a2bc1ce72ab7621,computer,Desktop or Laptop,Windows 10,Chrome 103.0.5060.134,1366x768,1366x671,NA,ITT Ratings,3,against,4,NA,NA,ACCEPT,NA,NA,NA,NA,NA,NA,NA,batch4hes,batch4hes,56,23,1,Screen 1,continueButton,response_rating_scale_likert_active,19288.80000007153,NA,NA,Neither Agree nor Disagree,1,0,1,0,NA,NA,NA,NA,1,statements,It has been approved by Scientists.,1,17/05/2021 11:35,17/05/2021 11:42,462,Most weeks,Most days,27,Female,-99,"Undergraduate degree (BSc, BA)",39,2,Against,For
26,1658858870933,26/07/2022 18:07:50,1658858870845,1,26/07/2022 19:07:50,93981,5,task-mn1e,NA,23317611,6842751,NA,complete,NA,62e02c681a2bc1ce72ab7621,computer,Desktop or Laptop,Windows 10,Chrome 103.0.5060.134,1366x768,1366x671,NA,ITT Ratings,3,against,4,NA,NA,ACCEPT,NA,NA,NA,NA,NA,NA,NA,batch4hes,batch4hes,25,24,1,Screen 1,continueButton,response_rating_scale_likert_active,3305.5,NA,NA,Disagree,1,0,1,0,NA,NA,NA,NA,1,statements,I trust that the vaccine is safe.,1,17/05/2021 11:28,17/05/2021 11:32,263,Most weeks,Rarely,58,Female,-99,GCSEs,34,1,Against,For
27,1658858874633,26/07/2022 18:07:54,1658858874549,1,26/07/2022 19:07:54,93981,5,task-mn1e,NA,23317611,6842751,NA,complete,NA,62e02c681a2bc1ce72ab7621,computer,Desktop or Laptop,Windows 10,Chrome 103.0.5060.134,1366x768,1366x671,NA,ITT Ratings,3,against,4,NA,NA,ACCEPT,NA,NA,NA,NA,NA,NA,NA,batch4hes,batch4hes,23,25,1,Screen 1,continueButton,response_rating_scale_likert_active,3658.5,NA,NA,Agree,1,0,1,0,NA,NA,NA,NA,1,statements,I have been okay up to now.,1,17/05/2021 11:28,17/05/2021 11:32,263,Most weeks,Rarely,58,Female,-99,GCSEs,34,2,Against,Against
28,1658858881630,26/07/2022 18:08:01,1658858881535,1,26/07/2022 19:08:01,93981,5,task-mn1e,NA,23317611,6842751,NA,complete,NA,62e02c681a2bc1ce72ab7621,computer,Desktop or Laptop,Windows 10,Chrome 103.0.5060.134,1366x768,1366x671,NA,ITT Ratings,3,against,4,NA,NA,ACCEPT,NA,NA,NA,NA,NA,NA,NA,batch4hes,batch4hes,21,26,1,Screen 1,continueButton,response_rating_scale_likert_active,6930.600000023842,NA,NA,Somewhat Disagree,1,0,1,0,NA,NA,NA,NA,1,statements,vaccine is the only one way to arrive world beautiful without Covide-19.,1,17/05/2021 10:14,17/05/2021 11:30,4578,Most weeks,A few times a year,30,Female,-99,Vocational Training / Apprenticeship,33,3,Against,For
29,1658858885714,26/07/2022 18:08:05,1658858885619,1,26/07/2022 19:08:05,93981,5,task-mn1e,NA,23317611,6842751,NA,complete,NA,62e02c681a2bc1ce72ab7621,computer,Desktop or Laptop,Windows 10,Chrome 103.0.5060.134,1366x768,1366x671,NA,ITT Ratings,3,against,4,NA,NA,ACCEPT,NA,NA,NA,NA,NA,NA,NA,batch4hes,batch4hes,15,27,1,Screen 1,continueButton,response_rating_scale_likert_active,4044.3000000715256,NA,NA,Neither Agree nor Disagree,1,0,1,0,NA,NA,NA,NA,1,statements,I'm being told to have it for everybody's sake.,1,17/05/2021 11:15,17/05/2021 11:30,899,Most weeks,Most weeks,61,Male,-99,"Postgraduate degree (MSc, MA, MPhil)",32,3,Against,For
30,1658858893763,26/07/2022 18:08:13,1658858893668,1,26/07/2022 19:08:13,93981,5,task-mn1e,NA,23317611,6842751,NA,complete,NA,62e02c681a2bc1ce72ab7621,computer,Desktop or Laptop,Windows 10,Chrome 103.0.5060.134,1366x768,1366x671,NA,ITT Ratings,3,against,4,NA,NA,ACCEPT,NA,NA,NA,NA,NA,NA,NA,batch4hes,batch4hes,2,28,1,Screen 1,continueButton,response_rating_scale_likert_active,8010.5,NA,NA,Somewhat Agree,1,0,1,0,NA,NA,NA,NA,1,statements,We would like to check you are reading each argument carefully. Please select 'Somewhat Agree' for this answer,1,NA,NA,NA,NA,NA,NA,NA,NA,NA,NA,check1,NA,NA
31,1658858900752,26/07/2022 18:08:20,1658858900667,1,26/07/2022 19:08:20,93981,5,task-mn1e,NA,23317611,6842751,NA,complete,NA,62e02c681a2bc1ce72ab7621,computer,Desktop or Laptop,Windows 10,Chrome 103.0.5060.134,1366x768,1366x671,NA,ITT Ratings,3,against,4,NA,NA,ACCEPT,NA,NA,NA,NA,NA,NA,NA,batch4hes,batch4hes,50,29,1,Screen 1,continueButton,response_rating_scale_likert_active,6963.700000047684,NA,NA,Neither Agree nor Disagree,1,0,1,0,NA,NA,NA,NA,1,statements,I don't want to die.,1,17/05/2021 11:32,17/05/2021 11:42,618,Never,Rarely,57,Male,-99,A levels,38,2,Against,For
32,1658858906863,26/07/2022 18:08:26,1658858906768,1,26/07/2022 19:08:26,93981,5,task-mn1e,NA,23317611,6842751,NA,complete,NA,62e02c681a2bc1ce72ab7621,computer,Desktop or Laptop,Windows 10,Chrome 103.0.5060.134,1366x768,1366x671,NA,ITT Ratings,3,against,4,NA,NA,ACCEPT,NA,NA,NA,NA,NA,NA,NA,batch4hes,batch4hes,61,30,1,Screen 1,continueButton,response_rating_scale_likert_active,6071.5,NA,NA,Strongly Agree,1,0,1,0,NA,NA,NA,NA,1,statements,I want to protect myself and others. (which doesn't make sense because taking the vaccine will not prevent you from getting infected or infecting others),1,17/05/2021 11:08,17/05/2021 11:43,2086,Most days,Most days,28,Female,-99,"Postgraduate degree (MSc, MA, MPhil)",40,1,Against,For
33,1658858910462,26/07/2022 18:08:30,1658858910373,1,26/07/2022 19:08:30,93981,5,task-mn1e,NA,23317611,6842751,NA,complete,NA,62e02c681a2bc1ce72ab7621,computer,Desktop or Laptop,Windows 10,Chrome 103.0.5060.134,1366x768,1366x671,NA,ITT Ratings,3,against,4,NA,NA,ACCEPT,NA,NA,NA,NA,NA,NA,NA,batch4hes,batch4hes,4,31,1,Screen 1,continueButton,response_rating_scale_likert_active,3566.100000023842,NA,NA,Agree,1,0,1,0,NA,NA,NA,NA,1,statements,"it's not a vaccine, it is an experimental RNA jab",1,17/05/2021 11:20,17/05/2021 11:28,519,Most weeks,Most days,42,Female,-99,Doctorate (PhD),31,1,Against,Against
34,1658858917081,26/07/2022 18:08:37,1658858916995,1,26/07/2022 19:08:36,93981,5,task-mn1e,NA,23317611,6842751,NA,complete,NA,62e02c681a2bc1ce72ab7621,computer,Desktop or Laptop,Windows 10,Chrome 103.0.5060.134,1366x768,1366x671,NA,ITT Ratings,3,against,4,NA,NA,ACCEPT,NA,NA,NA,NA,NA,NA,NA,batch4hes,batch4hes,29,32,1,Screen 1,continueButton,response_rating_scale_likert_active,6585.900000095367,NA,NA,Somewhat Agree,1,0,1,0,NA,NA,NA,NA,1,statements,It has not been tested and we do not know the long term side effects from all the additives,1,17/05/2021 11:26,17/05/2021 11:32,370,Most weeks,Most months,33,Female,-99,"Postgraduate degree (MSc, MA, MPhil)",35,2,Against,Against
35,1658858922567,26/07/2022 18:08:42,1658858922473,1,26/07/2022 19:08:42,93981,5,task-mn1e,NA,23317611,6842751,NA,complete,NA,62e02c681a2bc1ce72ab7621,computer,Desktop or Laptop,Windows 10,Chrome 103.0.5060.134,1366x768,1366x671,NA,ITT Ratings,3,against,4,NA,NA,ACCEPT,NA,NA,NA,NA,NA,NA,NA,batch4hes,batch4hes,30,33,1,Screen 1,continueButton,response_rating_scale_likert_active,5437.899999976158,NA,NA,Neither Agree nor Disagree,1,0,1,0,NA,NA,NA,NA,1,statements,The strand mutates and its pointless takin the risk,1,17/05/2021 11:26,17/05/2021 11:32,370,Most weeks,Most months,33,Female,-99,"Postgraduate degree (MSc, MA, MPhil)",35,3,Against,Against
36,1658858925742,26/07/2022 18:08:45,1658858925658,1,26/07/2022 19:08:45,93981,5,task-mn1e,NA,23317611,6842751,NA,complete,NA,62e02c681a2bc1ce72ab7621,computer,Desktop or Laptop,Windows 10,Chrome 103.0.5060.134,1366x768,1366x671,NA,ITT Ratings,3,against,4,NA,NA,ACCEPT,NA,NA,NA,NA,NA,NA,NA,batch4hes,batch4hes,54,34,1,Screen 1,continueButton,response_rating_scale_likert_active,3138.2999999523163,NA,NA,Neither Agree nor Disagree,1,0,1,0,NA,NA,NA,NA,1,statements,"I am young, fit and healthy. I do not want to inject anything into my body that even the government are not sure about. Mixed messages from the government daily. New variants etc.",1,17/05/2021 11:35,17/05/2021 11:42,462,Most weeks,Most days,27,Female,-99,"Undergraduate degree (BSc, BA)",39,3,Against,Against
37,1658858932499,26/07/2022 18:08:52,1658858932405,1,26/07/2022 19:08:52,93981,5,task-mn1e,NA,23317611,6842751,NA,complete,NA,62e02c681a2bc1ce72ab7621,computer,Desktop or Laptop,Windows 10,Chrome 103.0.5060.134,1366x768,1366x671,NA,ITT Ratings,3,against,4,NA,NA,ACCEPT,NA,NA,NA,NA,NA,NA,NA,batch4hes,batch4hes,59,35,1,Screen 1,continueButton,response_rating_scale_likert_active,6701.899999976158,NA,NA,Agree,1,0,1,0,NA,NA,NA,NA,1,statements,"Instead of vaccines, drugs should be developed to help cure people who fall sick from Covid.",1,17/05/2021 11:08,17/05/2021 11:43,2086,Most days,Most days,28,Female,-99,"Postgraduate degree (MSc, MA, MPhil)",40,2,Against,Against
38,1658858942570,26/07/2022 18:09:02,1658858942480,1,26/07/2022 19:09:02,93981,5,task-mn1e,NA,23317611,6842751,NA,complete,NA,62e02c681a2bc1ce72ab7621,computer,Desktop or Laptop,Windows 10,Chrome 103.0.5060.134,1366x768,1366x671,NA,ITT Ratings,3,against,4,NA,NA,ACCEPT,NA,NA,NA,NA,NA,NA,NA,batch4hes,batch4hes,57,36,1,Screen 1,continueButton,response_rating_scale_likert_active,10025.600000023842,NA,NA,Somewhat Agree,1,0,1,0,NA,NA,NA,NA,1,statements,I want to increase my chances of a fast recovery if I catch Covid.,1,17/05/2021 11:35,17/05/2021 11:42,462,Most weeks,Most days,27,Female,-99,"Undergraduate degree (BSc, BA)",39,3,Against,For
39,1658858946124,26/07/2022 18:09:06,1658858946042,1,26/07/2022 19:09:06,93981,5,task-mn1e,NA,23317611,6842751,NA,complete,NA,62e02c681a2bc1ce72ab7621,computer,Desktop or Laptop,Windows 10,Chrome 103.0.5060.134,1366x768,1366x671,NA,ITT Ratings,3,against,4,NA,NA,ACCEPT,NA,NA,NA,NA,NA,NA,NA,batch4hes,batch4hes,9,37,1,Screen 1,continueButton,response_rating_scale_likert_active,3512.5,NA,NA,Somewhat Disagree,1,0,1,0,NA,NA,NA,NA,1,statements,I just want to go on holiday,1,17/05/2021 11:20,17/05/2021 11:28,519,Most weeks,Most days,42,Female,-99,Doctorate (PhD),31,3,Against,For
40,1658858949508,26/07/2022 18:09:09,1658858949409,1,26/07/2022 19:09:09,93981,5,task-mn1e,NA,23317611,6842751,NA,complete,NA,62e02c681a2bc1ce72ab7621,computer,Desktop or Laptop,Windows 10,Chrome 103.0.5060.134,1366x768,1366x671,NA,ITT Ratings,3,against,4,NA,NA,ACCEPT,NA,NA,NA,NA,NA,NA,NA,batch4hes,batch4hes,43,38,1,Screen 1,continueButton,response_rating_scale_likert_active,3330,NA,NA,Strongly Disagree,1,0,1,0,NA,NA,NA,NA,1,statements,Im selfish as it only protects me,1,17/05/2021 11:31,17/05/2021 11:38,434,Most weeks,Most days,46,Female,-99,"Postgraduate degree (MSc, MA, MPhil)",37,1,Against,For
41,1658858955146,26/07/2022 18:09:15,1658858955055,1,26/07/2022 19:09:15,93981,5,task-mn1e,NA,23317611,6842751,NA,complete,NA,62e02c681a2bc1ce72ab7621,computer,Desktop or Laptop,Windows 10,Chrome 103.0.5060.134,1366x768,1366x671,NA,ITT Ratings,3,against,4,NA,NA,ACCEPT,NA,NA,NA,NA,NA,NA,NA,batch4hes,batch4hes,3,39,1,Screen 1,continueButton,response_rating_scale_likert_active,5598.100000023842,NA,NA,Somewhat Disagree,1,0,1,0,NA,NA,NA,NA,1,statements,We would like to check you are reading each argument carefully. Please select 'Somewhat Disagree' for this answer,1,NA,NA,NA,NA,NA,NA,NA,NA,NA,NA,check2,NA,NA
42,1658858959895,26/07/2022 18:09:19,1658858959801,1,26/07/2022 19:09:19,93981,5,task-mn1e,NA,23317611,6842751,NA,complete,NA,62e02c681a2bc1ce72ab7621,computer,Desktop or Laptop,Windows 10,Chrome 103.0.5060.134,1366x768,1366x671,NA,ITT Ratings,3,against,4,NA,NA,ACCEPT,NA,NA,NA,NA,NA,NA,NA,batch4hes,batch4hes,28,40,1,Screen 1,continueButton,response_rating_scale_likert_active,4699.200000047684,NA,NA,Somewhat Agree,1,0,1,0,NA,NA,NA,NA,1,statements,The vaccine can make you ill with part of the virus where you were otherwise immune anyway,1,17/05/2021 11:26,17/05/2021 11:32,370,Most weeks,Most months,33,Female,-99,"Postgraduate degree (MSc, MA, MPhil)",35,1,Against,Against
43,1658858963389,26/07/2022 18:09:23,1658858963301,1,26/07/2022 19:09:23,93981,5,task-mn1e,NA,23317611,6842751,NA,complete,NA,62e02c681a2bc1ce72ab7621,computer,Desktop or Laptop,Windows 10,Chrome 103.0.5060.134,1366x768,1366x671,NA,ITT Ratings,3,against,4,NA,NA,ACCEPT,NA,NA,NA,NA,NA,NA,NA,batch4hes,batch4hes,13,41,1,Screen 1,continueButton,response_rating_scale_likert_active,3451.099999904633,NA,NA,Somewhat Disagree,1,0,1,0,NA,NA,NA,NA,1,statements,Everyone is having it so it must be safe.,1,17/05/2021 11:15,17/05/2021 11:30,899,Most weeks,Most weeks,61,Male,-99,"Postgraduate degree (MSc, MA, MPhil)",32,1,Against,For
44,1658858966860,26/07/2022 18:09:26,1658858966764,1,26/07/2022 19:09:26,93981,5,task-mn1e,NA,23317611,6842751,NA,complete,NA,62e02c681a2bc1ce72ab7621,computer,Desktop or Laptop,Windows 10,Chrome 103.0.5060.134,1366x768,1366x671,NA,ITT Ratings,3,against,4,NA,NA,ACCEPT,NA,NA,NA,NA,NA,NA,NA,batch4hes,batch4hes,34,42,1,Screen 1,continueButton,response_rating_scale_likert_active,3414.2999999523163,NA,NA,Agree,1,0,1,0,NA,NA,NA,NA,1,statements,I don't trust the vaccine in terms of safety and its efficacy.,1,17/05/2021 11:15,17/05/2021 11:34,1100,Rarely,Never,28,Female,-99,"Undergraduate degree (BSc, BA)",36,1,Against,Against
45,1658858969740,26/07/2022 18:09:29,1658858969648,1,26/07/2022 19:09:29,93981,5,task-mn1e,NA,23317611,6842751,NA,complete,NA,62e02c681a2bc1ce72ab7621,computer,Desktop or Laptop,Windows 10,Chrome 103.0.5060.134,1366x768,1366x671,NA,ITT Ratings,3,against,4,NA,NA,ACCEPT,NA,NA,NA,NA,NA,NA,NA,batch4hes,batch4hes,14,43,1,Screen 1,continueButton,response_rating_scale_likert_active,2842.2999999523163,NA,NA,Somewhat Agree,1,0,1,0,NA,NA,NA,NA,1,statements,We need to beat this virus.,1,17/05/2021 11:15,17/05/2021 11:30,899,Most weeks,Most weeks,61,Male,-99,"Postgraduate degree (MSc, MA, MPhil)",32,2,Against,For
46,1658858972647,26/07/2022 18:09:32,1658858972554,1,26/07/2022 19:09:32,93981,5,task-mn1e,NA,23317611,6842751,NA,complete,NA,62e02c681a2bc1ce72ab7621,computer,Desktop or Laptop,Windows 10,Chrome 103.0.5060.134,1366x768,1366x671,NA,ITT Ratings,3,against,4,NA,NA,ACCEPT,NA,NA,NA,NA,NA,NA,NA,batch4hes,batch4hes,33,44,1,Screen 1,continueButton,response_rating_scale_likert_active,2867.100000023842,NA,NA,Strongly Disagree,1,0,1,0,NA,NA,NA,NA,1,statements,If you dont have the vaccine youll die,1,17/05/2021 11:26,17/05/2021 11:32,370,Most weeks,Most months,33,Female,-99,"Postgraduate degree (MSc, MA, MPhil)",35,3,Against,For
47,1658858981048,26/07/2022 18:09:41,1658858980957,1,26/07/2022 19:09:40,93981,5,task-mn1e,NA,23317611,6842751,NA,complete,NA,62e02c681a2bc1ce72ab7621,computer,Desktop or Laptop,Windows 10,Chrome 103.0.5060.134,1366x768,1366x671,NA,ITT Ratings,3,against,4,NA,NA,ACCEPT,NA,NA,NA,NA,NA,NA,NA,batch4hes,batch4hes,11,45,1,Screen 1,continueButton,response_rating_scale_likert_active,8362.099999904633,NA,NA,Strongly Agree,1,0,1,0,NA,NA,NA,NA,1,statements,Not effective against this Coronavirus: Coronaviruses have been around for a very long time and we have never been able to produce an effective vaccine against them and yet suddenly we have eleven.,1,17/05/2021 11:15,17/05/2021 11:30,899,Most weeks,Most weeks,61,Male,-99,"Postgraduate degree (MSc, MA, MPhil)",32,2,Against,Against
48,1658858985325,26/07/2022 18:09:45,1658858985241,1,26/07/2022 19:09:45,93981,5,task-mn1e,NA,23317611,6842751,NA,complete,NA,62e02c681a2bc1ce72ab7621,computer,Desktop or Laptop,Windows 10,Chrome 103.0.5060.134,1366x768,1366x671,NA,ITT Ratings,3,against,4,NA,NA,ACCEPT,NA,NA,NA,NA,NA,NA,NA,batch4hes,batch4hes,58,46,1,Screen 1,continueButton,response_rating_scale_likert_active,4243.300000071526,NA,NA,Strongly Agree,1,0,1,0,NA,NA,NA,NA,1,statements,It does not make sense to receive a vaccine for a virus that has over 95% recovery rate!,1,17/05/2021 11:08,17/05/2021 11:43,2086,Most days,Most days,28,Female,-99,"Postgraduate degree (MSc, MA, MPhil)",40,1,Against,Against
49,1658858990529,26/07/2022 18:09:50,1658858990436,1,26/07/2022 19:09:50,93981,5,task-mn1e,NA,23317611,6842751,NA,complete,NA,62e02c681a2bc1ce72ab7621,computer,Desktop or Laptop,Windows 10,Chrome 103.0.5060.134,1366x768,1366x671,NA,ITT Ratings,3,against,4,NA,NA,ACCEPT,NA,NA,NA,NA,NA,NA,NA,batch4hes,batch4hes,45,47,1,Screen 1,continueButton,response_rating_scale_likert_active,5148.300000071526,NA,NA,Strongly Agree,1,0,1,0,NA,NA,NA,NA,1,statements,The government told me to,1,17/05/2021 11:31,17/05/2021 11:38,434,Most weeks,Most days,46,Female,-99,"Postgraduate degree (MSc, MA, MPhil)",37,3,Against,For
50,1658859016664,26/07/2022 18:10:16,1658859016581,1,26/07/2022 19:10:16,93981,5,task-mn1e,NA,23317611,6842751,NA,complete,NA,62e02c681a2bc1ce72ab7621,computer,Desktop or Laptop,Windows 10,Chrome 103.0.5060.134,1366x768,1366x671,NA,ITT Ratings,3,against,4,NA,NA,ACCEPT,NA,NA,NA,NA,NA,NA,NA,batch4hes,batch4hes,51,48,1,Screen 1,continueButton,response_rating_scale_likert_active,26105.10000002384,NA,NA,Strongly Agree,1,0,1,0,NA,NA,NA,NA,1,statements,The governement says I have to.,1,17/05/2021 11:32,17/05/2021 11:42,618,Never,Rarely,57,Male,-99,A levels,38,3,Against,For
51,1658859023982,26/07/2022 18:10:23,1658859023904,1,26/07/2022 19:10:23,93981,5,task-mn1e,NA,23317611,6842751,NA,complete,NA,62e02c681a2bc1ce72ab7621,computer,Desktop or Laptop,Windows 10,Chrome 103.0.5060.134,1366x768,1366x671,NA,ITT Ratings,3,against,4,NA,NA,ACCEPT,NA,NA,NA,NA,NA,NA,NA,batch4hes,batch4hes,46,49,1,Screen 1,continueButton,response_rating_scale_likert_active,7273.600000023842,NA,NA,Somewhat Agree,1,0,1,0,NA,NA,NA,NA,1,statements,"Millions of people around the world have NOT died OF covid, they would have died anyway but happened to have the bug in them as well which had ho effect on their health.",1,17/05/2021 11:32,17/05/2021 11:42,618,Never,Rarely,57,Male,-99,A levels,38,1,Against,Against
52,1658859029268,26/07/2022 18:10:29,1658859029184,1,26/07/2022 19:10:29,93981,5,task-mn1e,NA,23317611,6842751,NA,complete,NA,62e02c681a2bc1ce72ab7621,computer,Desktop or Laptop,Windows 10,Chrome 103.0.5060.134,1366x768,1366x671,NA,ITT Ratings,3,against,4,NA,NA,ACCEPT,NA,NA,NA,NA,NA,NA,NA,batch4hes,batch4hes,55,50,1,Screen 1,continueButton,response_rating_scale_likert_active,5250.5,NA,NA,Somewhat Agree,1,0,1,0,NA,NA,NA,NA,1,statements,It has gone through a fast track testing process to get it out into the public as soon as possible.,1,17/05/2021 11:35,17/05/2021 11:42,462,Most weeks,Most days,27,Female,-99,"Undergraduate degree (BSc, BA)",39,1,Against,For
53,1658859037311,26/07/2022 18:10:37,1658859037224,1,26/07/2022 19:10:37,93981,5,task-mn1e,NA,23317611,6842751,NA,complete,NA,62e02c681a2bc1ce72ab7621,computer,Desktop or Laptop,Windows 10,Chrome 103.0.5060.134,1366x768,1366x671,NA,ITT Ratings,3,against,4,NA,NA,ACCEPT,NA,NA,NA,NA,NA,NA,NA,batch4hes,batch4hes,38,51,1,Screen 1,continueButton,response_rating_scale_likert_active,8010.599999904633,NA,NA,Neither Agree nor Disagree,1,0,1,0,NA,NA,NA,NA,1,statements,I'd rather protect myself now and reduce the effects of the virus if I end up contracting it,1,17/05/2021 11:15,17/05/2021 11:34,1100,Rarely,Never,28,Female,-99,"Undergraduate degree (BSc, BA)",36,2,Against,For
54,1658859042484,26/07/2022 18:10:42,1658859042388,1,26/07/2022 19:10:42,93981,5,task-mn1e,NA,23317611,6842751,NA,complete,NA,62e02c681a2bc1ce72ab7621,computer,Desktop or Laptop,Windows 10,Chrome 103.0.5060.134,1366x768,1366x671,NA,ITT Ratings,3,against,4,NA,NA,ACCEPT,NA,NA,NA,NA,NA,NA,NA,batch4hes,batch4hes,37,52,1,Screen 1,continueButton,response_rating_scale_likert_active,5116.700000047684,NA,NA,Somewhat Disagree,1,0,1,0,NA,NA,NA,NA,1,statements,Getting the vaccine will protect me and others and play a key part in curbing the pandemic,1,17/05/2021 11:15,17/05/2021 11:34,1100,Rarely,Never,28,Female,-99,"Undergraduate degree (BSc, BA)",36,1,Against,For
55,1658859048415,26/07/2022 18:10:48,1658859048326,1,26/07/2022 19:10:48,93981,5,task-mn1e,NA,23317611,6842751,NA,complete,NA,62e02c681a2bc1ce72ab7621,computer,Desktop or Laptop,Windows 10,Chrome 103.0.5060.134,1366x768,1366x671,NA,ITT Ratings,3,against,4,NA,NA,ACCEPT,NA,NA,NA,NA,NA,NA,NA,batch4hes,batch4hes,24,53,1,Screen 1,continueButton,response_rating_scale_likert_active,5893.799999952316,NA,NA,Agree,1,0,1,0,NA,NA,NA,NA,1,statements,I have lived with someone with Covid and did not even get ill.,1,17/05/2021 11:28,17/05/2021 11:32,263,Most weeks,Rarely,58,Female,-99,GCSEs,34,3,Against,Against
56,1658859052954,26/07/2022 18:10:52,1658859052873,1,26/07/2022 19:10:52,93981,5,task-mn1e,NA,23317611,6842751,NA,complete,NA,62e02c681a2bc1ce72ab7621,computer,Desktop or Laptop,Windows 10,Chrome 103.0.5060.134,1366x768,1366x671,NA,ITT Ratings,3,against,4,NA,NA,ACCEPT,NA,NA,NA,NA,NA,NA,NA,batch4hes,batch4hes,41,54,1,Screen 1,continueButton,response_rating_scale_likert_active,4500.299999952316,NA,NA,Strongly Agree,1,0,1,0,NA,NA,NA,NA,1,statements,It isnt a vaccine.  It doesnt stop you catching the virus,1,17/05/2021 11:31,17/05/2021 11:38,434,Most weeks,Most days,46,Female,-99,"Postgraduate degree (MSc, MA, MPhil)",37,2,Against,Against
57,1658859056941,26/07/2022 18:10:56,1658859056852,1,26/07/2022 19:10:56,93981,5,task-mn1e,NA,23317611,6842751,NA,complete,NA,62e02c681a2bc1ce72ab7621,computer,Desktop or Laptop,Windows 10,Chrome 103.0.5060.134,1366x768,1366x671,NA,ITT Ratings,3,against,4,NA,NA,ACCEPT,NA,NA,NA,NA,NA,NA,NA,batch4hes,batch4hes,26,55,1,Screen 1,continueButton,response_rating_scale_likert_active,3947.899999976158,NA,NA,Somewhat Disagree,1,0,1,0,NA,NA,NA,NA,1,statements,We will never get back to normal if every single person does not have it.,1,17/05/2021 11:28,17/05/2021 11:32,263,Most weeks,Rarely,58,Female,-99,GCSEs,34,2,Against,For
58,1658859059853,26/07/2022 18:10:59,1658859059767,1,26/07/2022 19:10:59,93981,5,task-mn1e,NA,23317611,6842751,NA,complete,NA,62e02c681a2bc1ce72ab7621,computer,Desktop or Laptop,Windows 10,Chrome 103.0.5060.134,1366x768,1366x671,NA,ITT Ratings,3,against,4,NA,NA,ACCEPT,NA,NA,NA,NA,NA,NA,NA,batch4hes,batch4hes,63,56,1,Screen 1,continueButton,response_rating_scale_likert_active,2872.3000000715256,NA,NA,Disagree,1,0,1,0,NA,NA,NA,NA,1,statements,I just want to be able to travel,1,17/05/2021 11:08,17/05/2021 11:43,2086,Most days,Most days,28,Female,-99,"Postgraduate degree (MSc, MA, MPhil)",40,3,Against,For
59,1658859063350,26/07/2022 18:11:03,1658859063265,1,26/07/2022 19:11:03,93981,5,task-mn1e,NA,23317611,6842751,NA,complete,NA,62e02c681a2bc1ce72ab7621,computer,Desktop or Laptop,Windows 10,Chrome 103.0.5060.134,1366x768,1366x671,NA,ITT Ratings,3,against,4,NA,NA,ACCEPT,NA,NA,NA,NA,NA,NA,NA,batch4hes,batch4hes,7,57,1,Screen 1,continueButton,response_rating_scale_likert_active,3458.6999999284744,NA,NA,Somewhat Agree,1,0,1,0,NA,NA,NA,NA,1,statements,I am an ill person and don't look after my body,1,17/05/2021 11:20,17/05/2021 11:28,519,Most weeks,Most days,42,Female,-99,Doctorate (PhD),31,1,Against,For
60,1658859066734,26/07/2022 18:11:06,1658859066649,1,26/07/2022 19:11:06,93981,5,task-mn1e,NA,23317611,6842751,NA,complete,NA,62e02c681a2bc1ce72ab7621,computer,Desktop or Laptop,Windows 10,Chrome 103.0.5060.134,1366x768,1366x671,NA,ITT Ratings,3,against,4,NA,NA,ACCEPT,NA,NA,NA,NA,NA,NA,NA,batch4hes,batch4hes,49,58,1,Screen 1,continueButton,response_rating_scale_likert_active,3337.6999999284744,NA,NA,Agree,1,0,1,0,NA,NA,NA,NA,1,statements,I don't want to become really ill.,1,17/05/2021 11:32,17/05/2021 11:42,618,Never,Rarely,57,Male,-99,A levels,38,1,Against,For
61,1658859070447,26/07/2022 18:11:10,1658859070364,1,26/07/2022 19:11:10,93981,5,task-mn1e,NA,23317611,6842751,NA,complete,NA,62e02c681a2bc1ce72ab7621,computer,Desktop or Laptop,Windows 10,Chrome 103.0.5060.134,1366x768,1366x671,NA,ITT Ratings,3,against,4,NA,NA,ACCEPT,NA,NA,NA,NA,NA,NA,NA,batch4hes,batch4hes,42,59,1,Screen 1,continueButton,response_rating_scale_likert_active,3681.600000023842,NA,NA,Agree,1,0,1,0,NA,NA,NA,NA,1,statements,The vaccine is causing more damage to young people than the virus would,1,17/05/2021 11:31,17/05/2021 11:38,434,Most weeks,Most days,46,Female,-99,"Postgraduate degree (MSc, MA, MPhil)",37,3,Against,Against
62,1658859075365,26/07/2022 18:11:15,1658859075273,1,26/07/2022 19:11:15,93981,5,task-mn1e,NA,23317611,6842751,NA,complete,NA,62e02c681a2bc1ce72ab7621,computer,Desktop or Laptop,Windows 10,Chrome 103.0.5060.134,1366x768,1366x671,NA,ITT Ratings,3,against,4,NA,NA,ACCEPT,NA,NA,NA,NA,NA,NA,NA,batch4hes,batch4hes,18,60,1,Screen 1,continueButton,response_rating_scale_likert_active,4872.600000023842,NA,NA,Somewhat Agree,1,0,1,0,NA,NA,NA,NA,1,statements,"I don't trust anyone, It is created for people genocide.",1,17/05/2021 10:14,17/05/2021 11:30,4578,Most weeks,A few times a year,30,Female,-99,Vocational Training / Apprenticeship,33,3,Against,Against
63,1658859078719,26/07/2022 18:11:18,1658859078621,1,26/07/2022 19:11:18,93981,5,task-mn1e,NA,23317611,6842751,NA,complete,NA,62e02c681a2bc1ce72ab7621,computer,Desktop or Laptop,Windows 10,Chrome 103.0.5060.134,1366x768,1366x671,NA,ITT Ratings,3,against,4,NA,NA,ACCEPT,NA,NA,NA,NA,NA,NA,NA,batch4hes,batch4hes,48,61,1,Screen 1,continueButton,response_rating_scale_likert_active,3307.399999976158,NA,NA,Somewhat Agree,1,0,1,0,NA,NA,NA,NA,1,statements,Vaccines take up to a decade to be safely trialled - this one has had around 9 months so there is no way all possible issues have been addressed.,1,17/05/2021 11:32,17/05/2021 11:42,618,Never,Rarely,57,Male,-99,A levels,38,3,Against,Against
64,1658859082838,26/07/2022 18:11:22,1658859082756,1,26/07/2022 19:11:22,93981,5,task-mn1e,NA,23317611,6842751,NA,complete,NA,62e02c681a2bc1ce72ab7621,computer,Desktop or Laptop,Windows 10,Chrome 103.0.5060.134,1366x768,1366x671,NA,ITT Ratings,3,against,4,NA,NA,ACCEPT,NA,NA,NA,NA,NA,NA,NA,batch4hes,batch4hes,44,62,1,Screen 1,continueButton,response_rating_scale_likert_active,4086,NA,NA,Somewhat Agree,1,0,1,0,NA,NA,NA,NA,1,statements,I donÕt want to be sick,1,17/05/2021 11:31,17/05/2021 11:38,434,Most weeks,Most days,46,Female,-99,"Postgraduate degree (MSc, MA, MPhil)",37,2,Against,For
65,1658859082905,26/07/2022 18:11:22,1658859082773,1,26/07/2022 19:11:22,93981,5,task-mn1e,NA,23317611,6842751,NA,complete,NA,62e02c681a2bc1ce72ab7621,computer,Desktop or Laptop,Windows 10,Chrome 103.0.5060.134,1366x768,1366x671,NA,ITT Ratings,3,against,4,NA,NA,ACCEPT,NA,NA,NA,NA,NA,NA,NA,batch4hes,NA,NA,END TASK,NA,NA,NA,NA,404918,NA,NA,NA,NA,0,1,0,NA,NA,NA,NA,NA,NA,NA,NA,NA,NA,NA,NA,NA,NA,NA,NA,NA,NA,NA,NA,NA
1,1658859516898,26/07/2022 18:18:36,1658859515499,1,26/07/2022 19:18:35,93981,5,task-mn1e,NA,23317983,6842869,NA,complete,NA,62e02f9604c36e5a6fa5b747,computer,Desktop or Laptop,Windows 10,Edge 103.0.1264.71,1366x768,546x263,NA,ITT Ratings,3,against,4,NA,NA,ACCEPT,NA,NA,NA,NA,NA,NA,NA,batch4hes,NA,NA,BEGIN TASK,NA,NA,NA,NA,NA,NA,NA,NA,NA,0,1,0,NA,NA,NA,NA,NA,NA,NA,NA,NA,NA,NA,NA,NA,NA,NA,NA,NA,NA,NA,NA,NA
2,1658859521363,26/07/2022 18:18:41,1658859520021,1,26/07/2022 19:18:40,93981,5,task-mn1e,NA,23317983,6842869,NA,complete,NA,62e02f9604c36e5a6fa5b747,computer,Desktop or Laptop,Windows 10,Edge 103.0.1264.71,1366x768,539x263,NA,ITT Ratings,3,against,4,NA,NA,ACCEPT,NA,NA,NA,NA,NA,NA,NA,batch4hes,batch4hes,1,1,1,Screen 1,advancementZone,continue_button,4447.700000047684,NA,NA,NA,NA,0,1,0,NA,NA,NA,NA,NA,instructions,NA,NA,NA,NA,NA,NA,NA,NA,NA,NA,NA,NA,NA,NA,NA
3,1658859537075,26/07/2022 18:18:57,1658859535701,1,26/07/2022 19:18:55,93981,5,task-mn1e,NA,23317983,6842869,NA,complete,NA,62e02f9604c36e5a6fa5b747,computer,Desktop or Laptop,Windows 10,Edge 103.0.1264.71,1366x768,780x375,NA,ITT Ratings,3,against,4,NA,NA,ACCEPT,NA,NA,NA,NA,NA,NA,NA,batch4hes,batch4hes,4,1,1,Screen 1,continueButton,response_rating_scale_likert_active,15637.199999928474,NA,NA,Neither Agree nor Disagree,1,0,1,0,NA,NA,NA,NA,1,statements,"it's not a vaccine, it is an experimental RNA jab",1,17/05/2021 11:20,17/05/2021 11:28,519,Most weeks,Most days,42,Female,-99,Doctorate (PhD),31,1,Against,Against
4,1658859540067,26/07/2022 18:19:00,1658859538698,1,26/07/2022 19:18:58,93981,5,task-mn1e,NA,23317983,6842869,NA,complete,NA,62e02f9604c36e5a6fa5b747,computer,Desktop or Laptop,Windows 10,Edge 103.0.1264.71,1366x768,780x375,NA,ITT Ratings,3,against,4,NA,NA,ACCEPT,NA,NA,NA,NA,NA,NA,NA,batch4hes,batch4hes,34,2,1,Screen 1,continueButton,response_rating_scale_likert_active,2972.1999999284744,NA,NA,Somewhat Agree,1,0,1,0,NA,NA,NA,NA,1,statements,I don't trust the vaccine in terms of safety and its efficacy.,1,17/05/2021 11:15,17/05/2021 11:34,1100,Rarely,Never,28,Female,-99,"Undergraduate degree (BSc, BA)",36,1,Against,Against
5,1658859542366,26/07/2022 18:19:02,1658859541057,1,26/07/2022 19:19:01,93981,5,task-mn1e,NA,23317983,6842869,NA,complete,NA,62e02f9604c36e5a6fa5b747,computer,Desktop or Laptop,Windows 10,Edge 103.0.1264.71,1366x768,780x375,NA,ITT Ratings,3,against,4,NA,NA,ACCEPT,NA,NA,NA,NA,NA,NA,NA,batch4hes,batch4hes,14,3,1,Screen 1,continueButton,response_rating_scale_likert_active,2326.7999999523163,NA,NA,Neither Agree nor Disagree,1,0,1,0,NA,NA,NA,NA,1,statements,We need to beat this virus.,1,17/05/2021 11:15,17/05/2021 11:30,899,Most weeks,Most weeks,61,Male,-99,"Postgraduate degree (MSc, MA, MPhil)",32,2,Against,For
6,1658859544647,26/07/2022 18:19:04,1658859543334,1,26/07/2022 19:19:03,93981,5,task-mn1e,NA,23317983,6842869,NA,complete,NA,62e02f9604c36e5a6fa5b747,computer,Desktop or Laptop,Windows 10,Edge 103.0.1264.71,1366x768,780x375,NA,ITT Ratings,3,against,4,NA,NA,ACCEPT,NA,NA,NA,NA,NA,NA,NA,batch4hes,batch4hes,25,4,1,Screen 1,continueButton,response_rating_scale_likert_active,2262.5,NA,NA,Disagree,1,0,1,0,NA,NA,NA,NA,1,statements,I trust that the vaccine is safe.,1,17/05/2021 11:28,17/05/2021 11:32,263,Most weeks,Rarely,58,Female,-99,GCSEs,34,1,Against,For
7,1658859550470,26/07/2022 18:19:10,1658859549167,1,26/07/2022 19:19:09,93981,5,task-mn1e,NA,23317983,6842869,NA,complete,NA,62e02f9604c36e5a6fa5b747,computer,Desktop or Laptop,Windows 10,Edge 103.0.1264.71,1366x768,780x375,NA,ITT Ratings,3,against,4,NA,NA,ACCEPT,NA,NA,NA,NA,NA,NA,NA,batch4hes,batch4hes,53,5,1,Screen 1,continueButton,response_rating_scale_likert_active,5799.899999976158,NA,NA,Neither Agree nor Disagree,1,0,1,0,NA,NA,NA,NA,1,statements,Hundreds of reports of serious reactions to the vaccine and even deaths. It takes a few moment on google to discover these vaccines are not safe and do not even work according to Matt Hancock.,1,17/05/2021 11:35,17/05/2021 11:42,462,Most weeks,Most days,27,Female,-99,"Undergraduate degree (BSc, BA)",39,2,Against,Against
8,1658859556568,26/07/2022 18:19:16,1658859555239,1,26/07/2022 19:19:15,93981,5,task-mn1e,NA,23317983,6842869,NA,complete,NA,62e02f9604c36e5a6fa5b747,computer,Desktop or Laptop,Windows 10,Edge 103.0.1264.71,1366x768,780x375,NA,ITT Ratings,3,against,4,NA,NA,ACCEPT,NA,NA,NA,NA,NA,NA,NA,batch4hes,batch4hes,43,6,1,Screen 1,continueButton,response_rating_scale_likert_active,6053.400000095367,NA,NA,Neither Agree nor Disagree,1,0,1,0,NA,NA,NA,NA,1,statements,Im selfish as it only protects me,1,17/05/2021 11:31,17/05/2021 11:38,434,Most weeks,Most days,46,Female,-99,"Postgraduate degree (MSc, MA, MPhil)",37,1,Against,For
9,1658859559457,26/07/2022 18:19:19,1658859558081,1,26/07/2022 19:19:18,93981,5,task-mn1e,NA,23317983,6842869,NA,complete,NA,62e02f9604c36e5a6fa5b747,computer,Desktop or Laptop,Windows 10,Edge 103.0.1264.71,1366x768,780x375,NA,ITT Ratings,3,against,4,NA,NA,ACCEPT,NA,NA,NA,NA,NA,NA,NA,batch4hes,batch4hes,41,7,1,Screen 1,continueButton,response_rating_scale_likert_active,2825.899999976158,NA,NA,Somewhat Agree,1,0,1,0,NA,NA,NA,NA,1,statements,It isnt a vaccine.  It doesnt stop you catching the virus,1,17/05/2021 11:31,17/05/2021 11:38,434,Most weeks,Most days,46,Female,-99,"Postgraduate degree (MSc, MA, MPhil)",37,2,Against,Against
10,1658859562073,26/07/2022 18:19:22,1658859560697,1,26/07/2022 19:19:20,93981,5,task-mn1e,NA,23317983,6842869,NA,complete,NA,62e02f9604c36e5a6fa5b747,computer,Desktop or Laptop,Windows 10,Edge 103.0.1264.71,1366x768,780x375,NA,ITT Ratings,3,against,4,NA,NA,ACCEPT,NA,NA,NA,NA,NA,NA,NA,batch4hes,batch4hes,44,8,1,Screen 1,continueButton,response_rating_scale_likert_active,2602.5,NA,NA,Somewhat Agree,1,0,1,0,NA,NA,NA,NA,1,statements,I donÕt want to be sick,1,17/05/2021 11:31,17/05/2021 11:38,434,Most weeks,Most days,46,Female,-99,"Postgraduate degree (MSc, MA, MPhil)",37,2,Against,For
11,1658859568690,26/07/2022 18:19:28,1658859567334,1,26/07/2022 19:19:27,93981,5,task-mn1e,NA,23317983,6842869,NA,complete,NA,62e02f9604c36e5a6fa5b747,computer,Desktop or Laptop,Windows 10,Edge 103.0.1264.71,1366x768,780x375,NA,ITT Ratings,3,against,4,NA,NA,ACCEPT,NA,NA,NA,NA,NA,NA,NA,batch4hes,batch4hes,26,9,1,Screen 1,continueButton,response_rating_scale_likert_active,6616.699999928474,NA,NA,Disagree,1,0,1,0,NA,NA,NA,NA,1,statements,We will never get back to normal if every single person does not have it.,1,17/05/2021 11:28,17/05/2021 11:32,263,Most weeks,Rarely,58,Female,-99,GCSEs,34,2,Against,For
12,1658859571330,26/07/2022 18:19:31,1658859570006,1,26/07/2022 19:19:30,93981,5,task-mn1e,NA,23317983,6842869,NA,complete,NA,62e02f9604c36e5a6fa5b747,computer,Desktop or Laptop,Windows 10,Edge 103.0.1264.71,1366x768,780x375,NA,ITT Ratings,3,against,4,NA,NA,ACCEPT,NA,NA,NA,NA,NA,NA,NA,batch4hes,batch4hes,62,10,1,Screen 1,continueButton,response_rating_scale_likert_active,2659.7999999523163,NA,NA,Neither Agree nor Disagree,1,0,1,0,NA,NA,NA,NA,1,statements,So we can go back to life before Covid.,1,17/05/2021 11:08,17/05/2021 11:43,2086,Most days,Most days,28,Female,-99,"Postgraduate degree (MSc, MA, MPhil)",40,2,Against,For
13,1658859573045,26/07/2022 18:19:33,1658859571727,1,26/07/2022 19:19:31,93981,5,task-mn1e,NA,23317983,6842869,NA,complete,NA,62e02f9604c36e5a6fa5b747,computer,Desktop or Laptop,Windows 10,Edge 103.0.1264.71,1366x768,780x375,NA,ITT Ratings,3,against,4,NA,NA,ACCEPT,NA,NA,NA,NA,NA,NA,NA,batch4hes,batch4hes,5,11,1,Screen 1,continueButton,response_rating_scale_likert_active,1706.100000023842,NA,NA,Neither Agree nor Disagree,1,0,1,0,NA,NA,NA,NA,1,statements,it is still in clinical trials,1,17/05/2021 11:20,17/05/2021 11:28,519,Most weeks,Most days,42,Female,-99,Doctorate (PhD),31,2,Against,Against
14,1658859581004,26/07/2022 18:19:41,1658859579654,1,26/07/2022 19:19:39,93981,5,task-mn1e,NA,23317983,6842869,NA,complete,NA,62e02f9604c36e5a6fa5b747,computer,Desktop or Laptop,Windows 10,Edge 103.0.1264.71,1366x768,780x375,NA,ITT Ratings,3,against,4,NA,NA,ACCEPT,NA,NA,NA,NA,NA,NA,NA,batch4hes,batch4hes,21,12,1,Screen 1,continueButton,response_rating_scale_likert_active,7914.400000095367,NA,NA,Disagree,1,0,1,0,NA,NA,NA,NA,1,statements,vaccine is the only one way to arrive world beautiful without Covide-19.,1,17/05/2021 10:14,17/05/2021 11:30,4578,Most weeks,A few times a year,30,Female,-99,Vocational Training / Apprenticeship,33,3,Against,For
15,1658859583496,26/07/2022 18:19:43,1658859582135,1,26/07/2022 19:19:42,93981,5,task-mn1e,NA,23317983,6842869,NA,complete,NA,62e02f9604c36e5a6fa5b747,computer,Desktop or Laptop,Windows 10,Edge 103.0.1264.71,1366x768,780x375,NA,ITT Ratings,3,against,4,NA,NA,ACCEPT,NA,NA,NA,NA,NA,NA,NA,batch4hes,batch4hes,58,13,1,Screen 1,continueButton,response_rating_scale_likert_active,2466.599999904633,NA,NA,Disagree,1,0,1,0,NA,NA,NA,NA,1,statements,It does not make sense to receive a vaccine for a virus that has over 95% recovery rate!,1,17/05/2021 11:08,17/05/2021 11:43,2086,Most days,Most days,28,Female,-99,"Postgraduate degree (MSc, MA, MPhil)",40,1,Against,Against
16,1658859587799,26/07/2022 18:19:47,1658859586491,1,26/07/2022 19:19:46,93981,5,task-mn1e,NA,23317983,6842869,NA,complete,NA,62e02f9604c36e5a6fa5b747,computer,Desktop or Laptop,Windows 10,Edge 103.0.1264.71,1366x768,780x375,NA,ITT Ratings,3,against,4,NA,NA,ACCEPT,NA,NA,NA,NA,NA,NA,NA,batch4hes,batch4hes,54,14,1,Screen 1,continueButton,response_rating_scale_likert_active,4339.199999928474,NA,NA,Strongly Agree,1,0,1,0,NA,NA,NA,NA,1,statements,"I am young, fit and healthy. I do not want to inject anything into my body that even the government are not sure about. Mixed messages from the government daily. New variants etc.",1,17/05/2021 11:35,17/05/2021 11:42,462,Most weeks,Most days,27,Female,-99,"Undergraduate degree (BSc, BA)",39,3,Against,Against
17,1658859592113,26/07/2022 18:19:52,1658859590813,1,26/07/2022 19:19:50,93981,5,task-mn1e,NA,23317983,6842869,NA,complete,NA,62e02f9604c36e5a6fa5b747,computer,Desktop or Laptop,Windows 10,Edge 103.0.1264.71,1366x768,780x375,NA,ITT Ratings,3,against,4,NA,NA,ACCEPT,NA,NA,NA,NA,NA,NA,NA,batch4hes,batch4hes,29,15,1,Screen 1,continueButton,response_rating_scale_likert_active,4309.199999928474,NA,NA,Somewhat Agree,1,0,1,0,NA,NA,NA,NA,1,statements,It has not been tested and we do not know the long term side effects from all the additives,1,17/05/2021 11:26,17/05/2021 11:32,370,Most weeks,Most months,33,Female,-99,"Postgraduate degree (MSc, MA, MPhil)",35,2,Against,Against
18,1658859594450,26/07/2022 18:19:54,1658859593115,1,26/07/2022 19:19:53,93981,5,task-mn1e,NA,23317983,6842869,NA,complete,NA,62e02f9604c36e5a6fa5b747,computer,Desktop or Laptop,Windows 10,Edge 103.0.1264.71,1366x768,780x375,NA,ITT Ratings,3,against,4,NA,NA,ACCEPT,NA,NA,NA,NA,NA,NA,NA,batch4hes,batch4hes,33,16,1,Screen 1,continueButton,response_rating_scale_likert_active,2289.899999976158,NA,NA,Disagree,1,0,1,0,NA,NA,NA,NA,1,statements,If you dont have the vaccine youll die,1,17/05/2021 11:26,17/05/2021 11:32,370,Most weeks,Most months,33,Female,-99,"Postgraduate degree (MSc, MA, MPhil)",35,3,Against,For
19,1658859596709,26/07/2022 18:19:56,1658859595396,1,26/07/2022 19:19:55,93981,5,task-mn1e,NA,23317983,6842869,NA,complete,NA,62e02f9604c36e5a6fa5b747,computer,Desktop or Laptop,Windows 10,Edge 103.0.1264.71,1366x768,780x375,NA,ITT Ratings,3,against,4,NA,NA,ACCEPT,NA,NA,NA,NA,NA,NA,NA,batch4hes,batch4hes,49,17,1,Screen 1,continueButton,response_rating_scale_likert_active,2269.7000000476837,NA,NA,Neither Agree nor Disagree,1,0,1,0,NA,NA,NA,NA,1,statements,I don't want to become really ill.,1,17/05/2021 11:32,17/05/2021 11:42,618,Never,Rarely,57,Male,-99,A levels,38,1,Against,For
20,1658859601073,26/07/2022 18:20:01,1658859599736,1,26/07/2022 19:19:59,93981,5,task-mn1e,NA,23317983,6842869,NA,complete,NA,62e02f9604c36e5a6fa5b747,computer,Desktop or Laptop,Windows 10,Edge 103.0.1264.71,1366x768,780x375,NA,ITT Ratings,3,against,4,NA,NA,ACCEPT,NA,NA,NA,NA,NA,NA,NA,batch4hes,batch4hes,48,18,1,Screen 1,continueButton,response_rating_scale_likert_active,4327.100000023842,NA,NA,Agree,1,0,1,0,NA,NA,NA,NA,1,statements,Vaccines take up to a decade to be safely trialled - this one has had around 9 months so there is no way all possible issues have been addressed.,1,17/05/2021 11:32,17/05/2021 11:42,618,Never,Rarely,57,Male,-99,A levels,38,3,Against,Against
21,1658859603481,26/07/2022 18:20:03,1658859602151,1,26/07/2022 19:20:02,93981,5,task-mn1e,NA,23317983,6842869,NA,complete,NA,62e02f9604c36e5a6fa5b747,computer,Desktop or Laptop,Windows 10,Edge 103.0.1264.71,1366x768,780x375,NA,ITT Ratings,3,against,4,NA,NA,ACCEPT,NA,NA,NA,NA,NA,NA,NA,batch4hes,batch4hes,24,19,1,Screen 1,continueButton,response_rating_scale_likert_active,2399.7999999523163,NA,NA,Somewhat Agree,1,0,1,0,NA,NA,NA,NA,1,statements,I have lived with someone with Covid and did not even get ill.,1,17/05/2021 11:28,17/05/2021 11:32,263,Most weeks,Rarely,58,Female,-99,GCSEs,34,3,Against,Against
22,1658859607562,26/07/2022 18:20:07,1658859606221,1,26/07/2022 19:20:06,93981,5,task-mn1e,NA,23317983,6842869,NA,complete,NA,62e02f9604c36e5a6fa5b747,computer,Desktop or Laptop,Windows 10,Edge 103.0.1264.71,1366x768,780x375,NA,ITT Ratings,3,against,4,NA,NA,ACCEPT,NA,NA,NA,NA,NA,NA,NA,batch4hes,batch4hes,55,20,1,Screen 1,continueButton,response_rating_scale_likert_active,4054.600000023842,NA,NA,Somewhat Agree,1,0,1,0,NA,NA,NA,NA,1,statements,It has gone through a fast track testing process to get it out into the public as soon as possible.,1,17/05/2021 11:35,17/05/2021 11:42,462,Most weeks,Most days,27,Female,-99,"Undergraduate degree (BSc, BA)",39,1,Against,For
23,1658859610080,26/07/2022 18:20:10,1658859608744,1,26/07/2022 19:20:08,93981,5,task-mn1e,NA,23317983,6842869,NA,complete,NA,62e02f9604c36e5a6fa5b747,computer,Desktop or Laptop,Windows 10,Edge 103.0.1264.71,1366x768,780x375,NA,ITT Ratings,3,against,4,NA,NA,ACCEPT,NA,NA,NA,NA,NA,NA,NA,batch4hes,batch4hes,59,21,1,Screen 1,continueButton,response_rating_scale_likert_active,2511.2999999523163,NA,NA,Somewhat Agree,1,0,1,0,NA,NA,NA,NA,1,statements,"Instead of vaccines, drugs should be developed to help cure people who fall sick from Covid.",1,17/05/2021 11:08,17/05/2021 11:43,2086,Most days,Most days,28,Female,-99,"Postgraduate degree (MSc, MA, MPhil)",40,2,Against,Against
24,1658859613645,26/07/2022 18:20:13,1658859612300,1,26/07/2022 19:20:12,93981,5,task-mn1e,NA,23317983,6842869,NA,complete,NA,62e02f9604c36e5a6fa5b747,computer,Desktop or Laptop,Windows 10,Edge 103.0.1264.71,1366x768,780x375,NA,ITT Ratings,3,against,4,NA,NA,ACCEPT,NA,NA,NA,NA,NA,NA,NA,batch4hes,batch4hes,38,22,1,Screen 1,continueButton,response_rating_scale_likert_active,3544.3000000715256,NA,NA,Somewhat Agree,1,0,1,0,NA,NA,NA,NA,1,statements,I'd rather protect myself now and reduce the effects of the virus if I end up contracting it,1,17/05/2021 11:15,17/05/2021 11:34,1100,Rarely,Never,28,Female,-99,"Undergraduate degree (BSc, BA)",36,2,Against,For
25,1658859616317,26/07/2022 18:20:16,1658859615001,1,26/07/2022 19:20:15,93981,5,task-mn1e,NA,23317983,6842869,NA,complete,NA,62e02f9604c36e5a6fa5b747,computer,Desktop or Laptop,Windows 10,Edge 103.0.1264.71,1366x768,780x375,NA,ITT Ratings,3,against,4,NA,NA,ACCEPT,NA,NA,NA,NA,NA,NA,NA,batch4hes,batch4hes,9,23,1,Screen 1,continueButton,response_rating_scale_likert_active,2688.6999999284744,NA,NA,Neither Agree nor Disagree,1,0,1,0,NA,NA,NA,NA,1,statements,I just want to go on holiday,1,17/05/2021 11:20,17/05/2021 11:28,519,Most weeks,Most days,42,Female,-99,Doctorate (PhD),31,3,Against,For
26,1658859620762,26/07/2022 18:20:20,1658859619446,1,26/07/2022 19:20:19,93981,5,task-mn1e,NA,23317983,6842869,NA,complete,NA,62e02f9604c36e5a6fa5b747,computer,Desktop or Laptop,Windows 10,Edge 103.0.1264.71,1366x768,780x375,NA,ITT Ratings,3,against,4,NA,NA,ACCEPT,NA,NA,NA,NA,NA,NA,NA,batch4hes,batch4hes,17,24,1,Screen 1,continueButton,response_rating_scale_likert_active,4432.399999976158,NA,NA,Somewhat Agree,1,0,1,0,NA,NA,NA,NA,1,statements,I can defeat this virus with my own antibodies. I am healthy enough to evercome it.,1,17/05/2021 10:14,17/05/2021 11:30,4578,Most weeks,A few times a year,30,Female,-99,Vocational Training / Apprenticeship,33,2,Against,Against
