Event.Index,UTC.Timestamp,UTC.Date,Local.Timestamp,Local.Timezone,Local.Date,Experiment.ID,Experiment.Version,Tree.Node.Key,Repeat.Key,Schedule.ID,Participant.Private.ID,Participant.Starting.Group,Participant.Status,Participant.Completion.Code,Participant.External.Session.ID,Participant.Device.Type,Participant.Device,Participant.OS,Participant.Browser,Participant.Monitor.Size,Participant.Viewport.Size,Checkpoint,Task.Name,Task.Version,branch.69an,randomiser.8vg2,quota.bqtt,quota.rycs,quota.wtfi,quota.usve,quota.zgic,quota.f3yz,quota.r9vy,quota.tfqq,quota.3dga,quota.dtj6,Spreadsheet,Spreadsheet.Name,Spreadsheet.Row,Trial.Number,Screen.Number,Screen.Name,Zone.Name,Zone.Type,Reaction.Time,Reaction.Onset,Response.Type,Response,Attempt,Correct,Incorrect,Dishonest,X.Coordinate,Y.Coordinate,Timed.Out,randomise_blocks,randomise_trials,display,Arguments,ShowProgressBar,StartDate,EndDate,Duration,discuss_1,read_1,age,gender,gender_4_TEXT,edu,ID,arg_ID,Position,Arg_Position
60,1658860000000,26/07/2022 18:08,1658860000000,1,26/07/2022 19:08,93981,5,task-net4,NA,23317689,6842777,NA,complete,NA,62e02d20cd4ac01eeef508d8,computer,Desktop or Laptop,Windows 10,Chrome 103.0.0.0,1920x1080,1920x969,NA,ITT Ratings,3,against,8,NA,NA,NA,NA,NA,NA,ACCEPT,NA,NA,NA,batch8hes,batch8hes,38,40,1,Screen 1,continueButton,response_rating_scale_likert_active,2354,NA,NA,Strongly Disagree,1,0,1,0,NA,NA,NA,NA,1,statements,Ability to travel in the future.,1,17/05/2021 12:38,17/05/2021 12:53,872,Rarely,Never,23,Female,-99,A levels,76,2,Against,For
7,1658860000000,26/07/2022 18:07,1658860000000,1,26/07/2022 19:07,93981,5,task-net4,NA,23317689,6842777,NA,complete,NA,62e02d20cd4ac01eeef508d8,computer,Desktop or Laptop,Windows 10,Chrome 103.0.0.0,1920x1080,1920x969,NA,ITT Ratings,3,against,8,NA,NA,NA,NA,NA,NA,ACCEPT,NA,NA,NA,batch8hes,batch8hes,4,5,1,Screen 1,continueButton,response_rating_scale_likert_active,2115.7,NA,NA,Disagree,1,0,1,0,NA,NA,NA,NA,1,statements,"Aby possible long term effects are still not apparent, those trialling the vaccine are monitored for 2 years to keep an eye out for anything untoward occurring.",1,17/05/2021 12:20,17/05/2021 12:39,1161,Rarely,A few times a year,35,Female,-99,"Undergraduate degree (BSc, BA)",71,1,Against,Against
13,1658860000000,26/07/2022 18:07,1658860000000,1,26/07/2022 19:07,93981,5,task-net4,NA,23317689,6842777,NA,complete,NA,62e02d20cd4ac01eeef508d8,computer,Desktop or Laptop,Windows 10,Chrome 103.0.0.0,1920x1080,1920x969,NA,ITT Ratings,3,against,8,NA,NA,NA,NA,NA,NA,ACCEPT,NA,NA,NA,batch8hes,batch8hes,46,11,1,Screen 1,continueButton,response_rating_scale_likert_active,803.8,NA,NA,Somewhat Disagree,1,0,1,0,NA,NA,NA,NA,1,statements,Because I have an autoimmune disease and cant have it,1,17/05/2021 12:39,17/05/2021 12:54,901,Most months,Rarely,46,Female,-99,Vocational Training / Apprenticeship,78,1,Against,Against
30,1658860000000,26/07/2022 18:07,1658860000000,1,26/07/2022 19:07,93981,5,task-net4,NA,23317689,6842777,NA,complete,NA,62e02d20cd4ac01eeef508d8,computer,Desktop or Laptop,Windows 10,Chrome 103.0.0.0,1920x1080,1920x969,NA,ITT Ratings,3,against,8,NA,NA,NA,NA,NA,NA,ACCEPT,NA,NA,NA,batch8hes,batch8hes,63,10,1,Screen 1,continueButton,response_rating_scale_likert_active,3102.7,NA,NA,Somewhat Agree,1,0,1,0,NA,NA,NA,NA,1,statements,consequences after covid19 are more serious than side effects after vaccine,1,##########,##########,1258,Most weeks,Most weeks,37,Female,-99,"Undergraduate degree (BSc, BA)",80,3,Against,For
41,1658860000000,26/07/2022 18:08,1658860000000,1,26/07/2022 19:08,93981,5,task-net4,NA,23317689,6842777,NA,complete,NA,62e02d20cd4ac01eeef508d8,computer,Desktop or Laptop,Windows 10,Chrome 103.0.0.0,1920x1080,1920x969,NA,ITT Ratings,3,against,8,NA,NA,NA,NA,NA,NA,ACCEPT,NA,NA,NA,batch8hes,batch8hes,12,21,1,Screen 1,continueButton,response_rating_scale_likert_active,1428.4,NA,NA,Disagree,1,0,1,0,NA,NA,NA,NA,1,statements,"COVID-19 has an extraordinarily low mortality rate in healthy young people, so it is not worth taking the vaccine unless one is elderly or has conditions such as an autoimmune disease.",1,17/05/2021 12:04,17/05/2021 12:41,2201,Most weeks,Rarely,22,Male,-99,"Undergraduate degree (BSc, BA)",72,3,Against,Against
43,1658860000000,26/07/2022 18:08,1658860000000,1,26/07/2022 19:08,93981,5,task-net4,NA,23317689,6842777,NA,complete,NA,62e02d20cd4ac01eeef508d8,computer,Desktop or Laptop,Windows 10,Chrome 103.0.0.0,1920x1080,1920x969,NA,ITT Ratings,3,against,8,NA,NA,NA,NA,NA,NA,ACCEPT,NA,NA,NA,batch8hes,batch8hes,36,23,1,Screen 1,continueButton,response_rating_scale_likert_active,2290.1,NA,NA,Neither Agree nor Disagree,1,0,1,0,NA,NA,NA,NA,1,statements,Enough evidence it even works?,1,17/05/2021 12:38,17/05/2021 12:53,872,Rarely,Never,23,Female,-99,A levels,76,3,Against,Against
35,1658860000000,26/07/2022 18:07,1658860000000,1,26/07/2022 19:07,93981,5,task-net4,NA,23317689,6842777,NA,complete,NA,62e02d20cd4ac01eeef508d8,computer,Desktop or Laptop,Windows 10,Chrome 103.0.0.0,1920x1080,1920x969,NA,ITT Ratings,3,against,8,NA,NA,NA,NA,NA,NA,ACCEPT,NA,NA,NA,batch8hes,batch8hes,15,15,1,Screen 1,continueButton,response_rating_scale_likert_active,1204,NA,NA,Somewhat Disagree,1,0,1,0,NA,NA,NA,NA,1,statements,"Even if one is not vulnerable to the virus, getting vaccinated will reduce community transmission and therefore protect those who are.",1,17/05/2021 12:04,17/05/2021 12:41,2201,Most weeks,Rarely,22,Male,-99,"Undergraduate degree (BSc, BA)",72,3,Against,For
44,1658860000000,26/07/2022 18:08,1658860000000,1,26/07/2022 19:08,93981,5,task-net4,NA,23317689,6842777,NA,complete,NA,62e02d20cd4ac01eeef508d8,computer,Desktop or Laptop,Windows 10,Chrome 103.0.0.0,1920x1080,1920x969,NA,ITT Ratings,3,against,8,NA,NA,NA,NA,NA,NA,ACCEPT,NA,NA,NA,batch8hes,batch8hes,31,24,1,Screen 1,continueButton,response_rating_scale_likert_active,1283,NA,NA,Neither Agree nor Disagree,1,0,1,0,NA,NA,NA,NA,1,statements,"I  want it if it stops me getting covid then ill have it, I can't see my relative in a nursing home",1,17/05/2021 12:22,17/05/2021 12:47,1508,A few times a year,Never,54,Female,-99,Vocational Training / Apprenticeship,75,1,Against,For
50,1658860000000,26/07/2022 18:08,1658860000000,1,26/07/2022 19:08,93981,5,task-net4,NA,23317689,6842777,NA,complete,NA,62e02d20cd4ac01eeef508d8,computer,Desktop or Laptop,Windows 10,Chrome 103.0.0.0,1920x1080,1920x969,NA,ITT Ratings,3,against,8,NA,NA,NA,NA,NA,NA,ACCEPT,NA,NA,NA,batch8hes,batch8hes,21,30,1,Screen 1,continueButton,response_rating_scale_likert_active,1184.8,NA,NA,Neither Agree nor Disagree,1,0,1,0,NA,NA,NA,NA,1,statements,I am afraid of catching covid and becoming very ill or possibly dying from the virus,1,17/05/2021 12:24,17/05/2021 12:44,1203,A few times a year,Rarely,28,Female,-99,A levels,73,3,Against,For
72,1658860000000,26/07/2022 18:09,1658860000000,1,26/07/2022 19:09,93981,5,task-net4,NA,23317689,6842777,NA,complete,NA,62e02d20cd4ac01eeef508d8,computer,Desktop or Laptop,Windows 10,Chrome 103.0.0.0,1920x1080,1920x969,NA,ITT Ratings,3,against,8,NA,NA,NA,NA,NA,NA,ACCEPT,NA,NA,NA,batch8hes,batch8hes,55,52,1,Screen 1,continueButton,response_rating_scale_likert_active,1676.1,NA,NA,Neither Agree nor Disagree,1,0,1,0,NA,NA,NA,NA,1,statements,I can go back to work,1,17/05/2021 12:41,17/05/2021 12:54,805,Most weeks,Most weeks,55,Female,-99,A levels,79,1,Against,For
18,1658860000000,26/07/2022 18:07,1658860000000,1,26/07/2022 19:07,93981,5,task-net4,NA,23317689,6842777,NA,complete,NA,62e02d20cd4ac01eeef508d8,computer,Desktop or Laptop,Windows 10,Chrome 103.0.0.0,1920x1080,1920x969,NA,ITT Ratings,3,against,8,NA,NA,NA,NA,NA,NA,ACCEPT,NA,NA,NA,batch8hes,batch8hes,5,16,1,Screen 1,continueButton,response_rating_scale_likert_active,1229.3,NA,NA,Neither Agree nor Disagree,1,0,1,0,NA,NA,NA,NA,1,statements,"I can wait as the rest of the population gets one, group immunity will help protect me too.",1,17/05/2021 12:20,17/05/2021 12:39,1161,Rarely,A few times a year,35,Female,-99,"Undergraduate degree (BSc, BA)",71,2,Against,Against
42,1658860000000,26/07/2022 18:08,1658860000000,1,26/07/2022 19:08,93981,5,task-net4,NA,23317689,6842777,NA,complete,NA,62e02d20cd4ac01eeef508d8,computer,Desktop or Laptop,Windows 10,Chrome 103.0.0.0,1920x1080,1920x969,NA,ITT Ratings,3,against,8,NA,NA,NA,NA,NA,NA,ACCEPT,NA,NA,NA,batch8hes,batch8hes,16,22,1,Screen 1,continueButton,response_rating_scale_likert_active,1415,NA,NA,Somewhat Agree,1,0,1,0,NA,NA,NA,NA,1,statements,I do not trust the vaccine,1,17/05/2021 12:24,17/05/2021 12:44,1203,A few times a year,Rarely,28,Female,-99,A levels,73,1,Against,Against
8,1658860000000,26/07/2022 18:07,1658860000000,1,26/07/2022 19:07,93981,5,task-net4,NA,23317689,6842777,NA,complete,NA,62e02d20cd4ac01eeef508d8,computer,Desktop or Laptop,Windows 10,Chrome 103.0.0.0,1920x1080,1920x969,NA,ITT Ratings,3,against,8,NA,NA,NA,NA,NA,NA,ACCEPT,NA,NA,NA,batch8hes,batch8hes,24,6,1,Screen 1,continueButton,response_rating_scale_likert_active,1717.6,NA,NA,Somewhat Agree,1,0,1,0,NA,NA,NA,NA,1,statements,I don't like being forced to do something.,1,17/05/2021 12:14,17/05/2021 12:45,1854,Most weeks,Most days,38,Female,-99,"Vocational Training / Apprenticeship,A levels",74,3,Against,Against
82,1658860000000,26/07/2022 18:09,1658860000000,1,26/07/2022 19:09,93981,5,task-net4,NA,23317689,6842777,NA,complete,NA,62e02d20cd4ac01eeef508d8,computer,Desktop or Laptop,Windows 10,Chrome 103.0.0.0,1920x1080,1920x969,NA,ITT Ratings,3,against,8,NA,NA,NA,NA,NA,NA,ACCEPT,NA,NA,NA,batch8hes,batch8hes,23,62,1,Screen 1,continueButton,response_rating_scale_likert_active,1317.1,NA,NA,Somewhat Agree,1,0,1,0,NA,NA,NA,NA,1,statements,I don't trust whats in it,1,17/05/2021 12:14,17/05/2021 12:45,1854,Most weeks,Most days,38,Female,-99,"Vocational Training / Apprenticeship,A levels",74,2,Against,Against
77,1658860000000,26/07/2022 18:09,1658860000000,1,26/07/2022 19:09,93981,5,task-net4,NA,23317689,6842777,NA,complete,NA,62e02d20cd4ac01eeef508d8,computer,Desktop or Laptop,Windows 10,Chrome 103.0.0.0,1920x1080,1920x969,NA,ITT Ratings,3,against,8,NA,NA,NA,NA,NA,NA,ACCEPT,NA,NA,NA,batch8hes,batch8hes,17,57,1,Screen 1,continueButton,response_rating_scale_likert_active,1706.4,NA,NA,Neither Agree nor Disagree,1,0,1,0,NA,NA,NA,NA,1,statements,I dont feel I have had enough time to develop the vaccine,1,17/05/2021 12:24,17/05/2021 12:44,1203,A few times a year,Rarely,28,Female,-99,A levels,73,2,Against,Against
55,1658860000000,26/07/2022 18:08,1658860000000,1,26/07/2022 19:08,93981,5,task-net4,NA,23317689,6842777,NA,complete,NA,62e02d20cd4ac01eeef508d8,computer,Desktop or Laptop,Windows 10,Chrome 103.0.0.0,1920x1080,1920x969,NA,ITT Ratings,3,against,8,NA,NA,NA,NA,NA,NA,ACCEPT,NA,NA,NA,batch8hes,batch8hes,40,35,1,Screen 1,continueButton,response_rating_scale_likert_active,2557.9,NA,NA,Somewhat Agree,1,0,1,0,NA,NA,NA,NA,1,statements,i dont want a vaccine as i dont trust it,1,17/05/2021 12:43,17/05/2021 12:54,646,Rarely,Never,58,Female,-99,GCSEs,77,1,Against,Against
76,1658860000000,26/07/2022 18:09,1658860000000,1,26/07/2022 19:09,93981,5,task-net4,NA,23317689,6842777,NA,complete,NA,62e02d20cd4ac01eeef508d8,computer,Desktop or Laptop,Windows 10,Chrome 103.0.0.0,1920x1080,1920x969,NA,ITT Ratings,3,against,8,NA,NA,NA,NA,NA,NA,ACCEPT,NA,NA,NA,batch8hes,batch8hes,56,56,1,Screen 1,continueButton,response_rating_scale_likert_active,2099.1,NA,NA,Neither Agree nor Disagree,1,0,1,0,NA,NA,NA,NA,1,statements,I dont want to wear a mask,1,17/05/2021 12:41,17/05/2021 12:54,805,Most weeks,Most weeks,55,Female,-99,A levels,79,2,Against,For
61,1658860000000,26/07/2022 18:08,1658860000000,1,26/07/2022 19:08,93981,5,task-net4,NA,23317689,6842777,NA,complete,NA,62e02d20cd4ac01eeef508d8,computer,Desktop or Laptop,Windows 10,Chrome 103.0.0.0,1920x1080,1920x969,NA,ITT Ratings,3,against,8,NA,NA,NA,NA,NA,NA,ACCEPT,NA,NA,NA,batch8hes,batch8hes,47,41,1,Screen 1,continueButton,response_rating_scale_likert_active,3253,NA,NA,Somewhat Disagree,1,0,1,0,NA,NA,NA,NA,1,statements,I have an allergy to one of the ingredients,1,17/05/2021 12:39,17/05/2021 12:54,901,Most months,Rarely,46,Female,-99,Vocational Training / Apprenticeship,78,2,Against,Against
71,1658860000000,26/07/2022 18:09,1658860000000,1,26/07/2022 19:09,93981,5,task-net4,NA,23317689,6842777,NA,complete,NA,62e02d20cd4ac01eeef508d8,computer,Desktop or Laptop,Windows 10,Chrome 103.0.0.0,1920x1080,1920x969,NA,ITT Ratings,3,against,8,NA,NA,NA,NA,NA,NA,ACCEPT,NA,NA,NA,batch8hes,batch8hes,28,51,1,Screen 1,continueButton,response_rating_scale_likert_active,1789,NA,NA,Neither Agree nor Disagree,1,0,1,0,NA,NA,NA,NA,1,statements,I have seen videos of people who have had reactions to the vacine,1,17/05/2021 12:22,17/05/2021 12:47,1508,A few times a year,Never,54,Female,-99,Vocational Training / Apprenticeship,75,1,Against,Against
49,1658860000000,26/07/2022 18:08,1658860000000,1,26/07/2022 19:08,93981,5,task-net4,NA,23317689,6842777,NA,complete,NA,62e02d20cd4ac01eeef508d8,computer,Desktop or Laptop,Windows 10,Chrome 103.0.0.0,1920x1080,1920x969,NA,ITT Ratings,3,against,8,NA,NA,NA,NA,NA,NA,ACCEPT,NA,NA,NA,batch8hes,batch8hes,48,29,1,Screen 1,continueButton,response_rating_scale_likert_active,832,NA,NA,Somewhat Agree,1,0,1,0,NA,NA,NA,NA,1,statements,I just don't want it because I don't agree with it and I have a phobia of needles,1,17/05/2021 12:39,17/05/2021 12:54,901,Most months,Rarely,46,Female,-99,Vocational Training / Apprenticeship,78,3,Against,Against
33,1658860000000,26/07/2022 18:07,1658860000000,1,26/07/2022 19:07,93981,5,task-net4,NA,23317689,6842777,NA,complete,NA,62e02d20cd4ac01eeef508d8,computer,Desktop or Laptop,Windows 10,Chrome 103.0.0.0,1920x1080,1920x969,NA,ITT Ratings,3,against,8,NA,NA,NA,NA,NA,NA,ACCEPT,NA,NA,NA,batch8hes,batch8hes,51,13,1,Screen 1,continueButton,response_rating_scale_likert_active,1397.9,NA,NA,Somewhat Agree,1,0,1,0,NA,NA,NA,NA,1,statements,I just want to do my bit,1,17/05/2021 12:39,17/05/2021 12:54,901,Most months,Rarely,46,Female,-99,Vocational Training / Apprenticeship,78,3,Against,For
16,1658860000000,26/07/2022 18:07,1658860000000,1,26/07/2022 19:07,93981,5,task-net4,NA,23317689,6842777,NA,complete,NA,62e02d20cd4ac01eeef508d8,computer,Desktop or Laptop,Windows 10,Chrome 103.0.0.0,1920x1080,1920x969,NA,ITT Ratings,3,against,8,NA,NA,NA,NA,NA,NA,ACCEPT,NA,NA,NA,batch8hes,batch8hes,9,14,1,Screen 1,continueButton,response_rating_scale_likert_active,511,NA,NA,Somewhat Disagree,1,0,1,0,NA,NA,NA,NA,1,statements,"I may as well get it or i won't be permitted to travel abroad, the government or even my workplace might also pose other restrictions on me if i'm not vaccinated.",1,17/05/2021 12:20,17/05/2021 12:39,1161,Rarely,A few times a year,35,Female,-99,"Undergraduate degree (BSc, BA)",71,3,Against,For
64,1658860000000,26/07/2022 18:08,1658860000000,1,26/07/2022 19:08,93981,5,task-net4,NA,23317689,6842777,NA,complete,NA,62e02d20cd4ac01eeef508d8,computer,Desktop or Laptop,Windows 10,Chrome 103.0.0.0,1920x1080,1920x969,NA,ITT Ratings,3,against,8,NA,NA,NA,NA,NA,NA,ACCEPT,NA,NA,NA,batch8hes,batch8hes,33,44,1,Screen 1,continueButton,response_rating_scale_likert_active,1007,NA,NA,Somewhat Agree,1,0,1,0,NA,NA,NA,NA,1,statements,"I need it to be able to go into pubs, go on holiday , go.to cinema etc, go to a restaurant",1,17/05/2021 12:22,17/05/2021 12:47,1508,A few times a year,Never,54,Female,-99,Vocational Training / Apprenticeship,75,3,Against,For
67,1658860000000,26/07/2022 18:08,1658860000000,1,26/07/2022 19:08,93981,5,task-net4,NA,23317689,6842777,NA,complete,NA,62e02d20cd4ac01eeef508d8,computer,Desktop or Laptop,Windows 10,Chrome 103.0.0.0,1920x1080,1920x969,NA,ITT Ratings,3,against,8,NA,NA,NA,NA,NA,NA,ACCEPT,NA,NA,NA,batch8hes,batch8hes,32,47,1,Screen 1,continueButton,response_rating_scale_likert_active,3145.7,NA,NA,Somewhat Disagree,1,0,1,0,NA,NA,NA,NA,1,statements,"I need it to work , my company is insisting that we must have it. I don't want to get the sack",1,17/05/2021 12:22,17/05/2021 12:47,1508,A few times a year,Never,54,Female,-99,Vocational Training / Apprenticeship,75,2,Against,For
58,1658860000000,26/07/2022 18:08,1658860000000,1,26/07/2022 19:08,93981,5,task-net4,NA,23317689,6842777,NA,complete,NA,62e02d20cd4ac01eeef508d8,computer,Desktop or Laptop,Windows 10,Chrome 103.0.0.0,1920x1080,1920x969,NA,ITT Ratings,3,against,8,NA,NA,NA,NA,NA,NA,ACCEPT,NA,NA,NA,batch8hes,batch8hes,30,38,1,Screen 1,continueButton,response_rating_scale_likert_active,1960.4,NA,NA,Neither Agree nor Disagree,1,0,1,0,NA,NA,NA,NA,1,statements,I saw a video from a woman doctor/scientist who stated the vacine changes your DNA and destroys your immune system months after you have had it,1,17/05/2021 12:22,17/05/2021 12:47,1508,A few times a year,Never,54,Female,-99,Vocational Training / Apprenticeship,75,3,Against,Against
48,1658860000000,26/07/2022 18:08,1658860000000,1,26/07/2022 19:08,93981,5,task-net4,NA,23317689,6842777,NA,complete,NA,62e02d20cd4ac01eeef508d8,computer,Desktop or Laptop,Windows 10,Chrome 103.0.0.0,1920x1080,1920x969,NA,ITT Ratings,3,against,8,NA,NA,NA,NA,NA,NA,ACCEPT,NA,NA,NA,batch8hes,batch8hes,57,28,1,Screen 1,continueButton,response_rating_scale_likert_active,1011.3,NA,NA,Somewhat Disagree,1,0,1,0,NA,NA,NA,NA,1,statements,I think i will get it if i dont get a vaccination,1,17/05/2021 12:41,17/05/2021 12:54,805,Most weeks,Most weeks,55,Female,-99,A levels,79,3,Against,For
10,1658860000000,26/07/2022 18:07,1658860000000,1,26/07/2022 19:07,93981,5,task-net4,NA,23317689,6842777,NA,complete,NA,62e02d20cd4ac01eeef508d8,computer,Desktop or Laptop,Windows 10,Chrome 103.0.0.0,1920x1080,1920x969,NA,ITT Ratings,3,against,8,NA,NA,NA,NA,NA,NA,ACCEPT,NA,NA,NA,batch8hes,batch8hes,25,8,1,Screen 1,continueButton,response_rating_scale_likert_active,1835.6,NA,NA,Somewhat Disagree,1,0,1,0,NA,NA,NA,NA,1,statements,I think it will protect me from the covid19 virus,1,17/05/2021 12:14,17/05/2021 12:45,1854,Most weeks,Most days,38,Female,-99,"Vocational Training / Apprenticeship,A levels",74,1,Against,For
51,1658860000000,26/07/2022 18:08,1658860000000,1,26/07/2022 19:08,93981,5,task-net4,NA,23317689,6842777,NA,complete,NA,62e02d20cd4ac01eeef508d8,computer,Desktop or Laptop,Windows 10,Chrome 103.0.0.0,1920x1080,1920x969,NA,ITT Ratings,3,against,8,NA,NA,NA,NA,NA,NA,ACCEPT,NA,NA,NA,batch8hes,batch8hes,19,31,1,Screen 1,continueButton,response_rating_scale_likert_active,1253.7,NA,NA,Somewhat Disagree,1,0,1,0,NA,NA,NA,NA,1,statements,I trust the vaccine,1,17/05/2021 12:24,17/05/2021 12:44,1203,A few times a year,Rarely,28,Female,-99,A levels,73,1,Against,For
63,1658860000000,26/07/2022 18:08,1658860000000,1,26/07/2022 19:08,93981,5,task-net4,NA,23317689,6842777,NA,complete,NA,62e02d20cd4ac01eeef508d8,computer,Desktop or Laptop,Windows 10,Chrome 103.0.0.0,1920x1080,1920x969,NA,ITT Ratings,3,against,8,NA,NA,NA,NA,NA,NA,ACCEPT,NA,NA,NA,batch8hes,batch8hes,45,43,1,Screen 1,continueButton,response_rating_scale_likert_active,1470.6,NA,NA,Strongly Agree,1,0,1,0,NA,NA,NA,NA,1,statements,i want life back to normal so will take it,1,17/05/2021 12:43,17/05/2021 12:54,646,Rarely,Never,58,Female,-99,GCSEs,77,3,Against,For
81,1658860000000,26/07/2022 18:09,1658860000000,1,26/07/2022 19:09,93981,5,task-net4,NA,23317689,6842777,NA,complete,NA,62e02d20cd4ac01eeef508d8,computer,Desktop or Laptop,Windows 10,Chrome 103.0.0.0,1920x1080,1920x969,NA,ITT Ratings,3,against,8,NA,NA,NA,NA,NA,NA,ACCEPT,NA,NA,NA,batch8hes,batch8hes,49,61,1,Screen 1,continueButton,response_rating_scale_likert_active,2052.7,NA,NA,Somewhat Agree,1,0,1,0,NA,NA,NA,NA,1,statements,I want to be able to go out to places where I need a vaccine password,1,17/05/2021 12:39,17/05/2021 12:54,901,Most months,Rarely,46,Female,-99,Vocational Training / Apprenticeship,78,1,Against,For
22,1658860000000,26/07/2022 18:07,1658860000000,1,26/07/2022 19:07,93981,5,task-net4,NA,23317689,6842777,NA,complete,NA,62e02d20cd4ac01eeef508d8,computer,Desktop or Laptop,Windows 10,Chrome 103.0.0.0,1920x1080,1920x969,NA,ITT Ratings,3,against,8,NA,NA,NA,NA,NA,NA,ACCEPT,NA,NA,NA,batch8hes,batch8hes,43,20,1,Screen 1,continueButton,response_rating_scale_likert_active,445.6,NA,NA,Somewhat Disagree,1,0,1,0,NA,NA,NA,NA,1,statements,i would feel safer having it,1,17/05/2021 12:43,17/05/2021 12:54,646,Rarely,Never,58,Female,-99,GCSEs,77,1,Against,For
68,1658860000000,26/07/2022 18:08,1658860000000,1,26/07/2022 19:08,93981,5,task-net4,NA,23317689,6842777,NA,complete,NA,62e02d20cd4ac01eeef508d8,computer,Desktop or Laptop,Windows 10,Chrome 103.0.0.0,1920x1080,1920x969,NA,ITT Ratings,3,against,8,NA,NA,NA,NA,NA,NA,ACCEPT,NA,NA,NA,batch8hes,batch8hes,20,48,1,Screen 1,continueButton,response_rating_scale_likert_active,2505.2,NA,NA,Somewhat Disagree,1,0,1,0,NA,NA,NA,NA,1,statements,I would rather take the vaccine than catch covid,1,17/05/2021 12:24,17/05/2021 12:44,1203,A few times a year,Rarely,28,Female,-99,A levels,73,2,Against,For
75,1658860000000,26/07/2022 18:09,1658860000000,1,26/07/2022 19:09,93981,5,task-net4,NA,23317689,6842777,NA,complete,NA,62e02d20cd4ac01eeef508d8,computer,Desktop or Laptop,Windows 10,Chrome 103.0.0.0,1920x1080,1920x969,NA,ITT Ratings,3,against,8,NA,NA,NA,NA,NA,NA,ACCEPT,NA,NA,NA,batch8hes,batch8hes,22,55,1,Screen 1,continueButton,response_rating_scale_likert_active,1404.8,NA,NA,Somewhat Agree,1,0,1,0,NA,NA,NA,NA,1,statements,I'm worried it will make me ill,1,17/05/2021 12:14,17/05/2021 12:45,1854,Most weeks,Most days,38,Female,-99,"Vocational Training / Apprenticeship,A levels",74,1,Against,Against
56,1658860000000,26/07/2022 18:08,1658860000000,1,26/07/2022 19:08,93981,5,task-net4,NA,23317689,6842777,NA,complete,NA,62e02d20cd4ac01eeef508d8,computer,Desktop or Laptop,Windows 10,Chrome 103.0.0.0,1920x1080,1920x969,NA,ITT Ratings,3,against,8,NA,NA,NA,NA,NA,NA,ACCEPT,NA,NA,NA,batch8hes,batch8hes,8,36,1,Screen 1,continueButton,response_rating_scale_likert_active,1120.4,NA,NA,Somewhat Agree,1,0,1,0,NA,NA,NA,NA,1,statements,"If you don't get a vaccination, you are being selfish on the rest of the nation. Vaccinations are the only way to get out of lockdown and save our economy.",1,17/05/2021 12:20,17/05/2021 12:39,1161,Rarely,A few times a year,35,Female,-99,"Undergraduate degree (BSc, BA)",71,2,Against,For
57,1658860000000,26/07/2022 18:08,1658860000000,1,26/07/2022 19:08,93981,5,task-net4,NA,23317689,6842777,NA,complete,NA,62e02d20cd4ac01eeef508d8,computer,Desktop or Laptop,Windows 10,Chrome 103.0.0.0,1920x1080,1920x969,NA,ITT Ratings,3,against,8,NA,NA,NA,NA,NA,NA,ACCEPT,NA,NA,NA,batch8hes,batch8hes,44,37,1,Screen 1,continueButton,response_rating_scale_likert_active,1966.6,NA,NA,Neither Agree nor Disagree,1,0,1,0,NA,NA,NA,NA,1,statements,it could stop me ending up in hospital,1,17/05/2021 12:43,17/05/2021 12:54,646,Rarely,Never,58,Female,-99,GCSEs,77,2,Against,For
14,1658860000000,26/07/2022 18:07,1658860000000,1,26/07/2022 19:07,93981,5,task-net4,NA,23317689,6842777,NA,complete,NA,62e02d20cd4ac01eeef508d8,computer,Desktop or Laptop,Windows 10,Chrome 103.0.0.0,1920x1080,1920x969,NA,ITT Ratings,3,against,8,NA,NA,NA,NA,NA,NA,ACCEPT,NA,NA,NA,batch8hes,batch8hes,13,12,1,Screen 1,continueButton,response_rating_scale_likert_active,476.8,NA,NA,Neither Agree nor Disagree,1,0,1,0,NA,NA,NA,NA,1,statements,It has been tested and approved by state medical regulators.,1,17/05/2021 12:04,17/05/2021 12:41,2201,Most weeks,Rarely,22,Male,-99,"Undergraduate degree (BSc, BA)",72,1,Against,For
6,1658860000000,26/07/2022 18:07,1658860000000,1,26/07/2022 19:07,93981,5,task-net4,NA,23317689,6842777,NA,complete,NA,62e02d20cd4ac01eeef508d8,computer,Desktop or Laptop,Windows 10,Chrome 103.0.0.0,1920x1080,1920x969,NA,ITT Ratings,3,against,8,NA,NA,NA,NA,NA,NA,ACCEPT,NA,NA,NA,batch8hes,batch8hes,27,4,1,Screen 1,continueButton,response_rating_scale_likert_active,3729.5,NA,NA,Strongly Disagree,1,0,1,0,NA,NA,NA,NA,1,statements,It will allow me to move more freely,1,17/05/2021 12:14,17/05/2021 12:45,1854,Most weeks,Most days,38,Female,-99,"Vocational Training / Apprenticeship,A levels",74,3,Against,For
53,1658860000000,26/07/2022 18:08,1658860000000,1,26/07/2022 19:08,93981,5,task-net4,NA,23317689,6842777,NA,complete,NA,62e02d20cd4ac01eeef508d8,computer,Desktop or Laptop,Windows 10,Chrome 103.0.0.0,1920x1080,1920x969,NA,ITT Ratings,3,against,8,NA,NA,NA,NA,NA,NA,ACCEPT,NA,NA,NA,batch8hes,batch8hes,26,33,1,Screen 1,continueButton,response_rating_scale_likert_active,1956.8,NA,NA,Somewhat Agree,1,0,1,0,NA,NA,NA,NA,1,statements,It will protect the vulnerable groups,1,17/05/2021 12:14,17/05/2021 12:45,1854,Most weeks,Most days,38,Female,-99,"Vocational Training / Apprenticeship,A levels",74,2,Against,For
38,1658860000000,26/07/2022 18:07,1658860000000,1,26/07/2022 19:07,93981,5,task-net4,NA,23317689,6842777,NA,complete,NA,62e02d20cd4ac01eeef508d8,computer,Desktop or Laptop,Windows 10,Chrome 103.0.0.0,1920x1080,1920x969,NA,ITT Ratings,3,against,8,NA,NA,NA,NA,NA,NA,ACCEPT,NA,NA,NA,batch8hes,batch8hes,41,18,1,Screen 1,continueButton,response_rating_scale_likert_active,1309.1,NA,NA,Somewhat Agree,1,0,1,0,NA,NA,NA,NA,1,statements,it wont stop me getting covid,1,17/05/2021 12:43,17/05/2021 12:54,646,Rarely,Never,58,Female,-99,GCSEs,77,2,Against,Against
47,1658860000000,26/07/2022 18:08,1658860000000,1,26/07/2022 19:08,93981,5,task-net4,NA,23317689,6842777,NA,complete,NA,62e02d20cd4ac01eeef508d8,computer,Desktop or Laptop,Windows 10,Chrome 103.0.0.0,1920x1080,1920x969,NA,ITT Ratings,3,against,8,NA,NA,NA,NA,NA,NA,ACCEPT,NA,NA,NA,batch8hes,batch8hes,53,27,1,Screen 1,continueButton,response_rating_scale_likert_active,1194,NA,NA,Somewhat Disagree,1,0,1,0,NA,NA,NA,NA,1,statements,IT wont stop me getting it anyway,1,17/05/2021 12:41,17/05/2021 12:54,805,Most weeks,Most weeks,55,Female,-99,A levels,79,2,Against,Against
79,1658860000000,26/07/2022 18:09,1658860000000,1,26/07/2022 19:09,93981,5,task-net4,NA,23317689,6842777,NA,complete,NA,62e02d20cd4ac01eeef508d8,computer,Desktop or Laptop,Windows 10,Chrome 103.0.0.0,1920x1080,1920x969,NA,ITT Ratings,3,against,8,NA,NA,NA,NA,NA,NA,ACCEPT,NA,NA,NA,batch8hes,batch8hes,54,59,1,Screen 1,continueButton,response_rating_scale_likert_active,1151.9,NA,NA,Neither Agree nor Disagree,1,0,1,0,NA,NA,NA,NA,1,statements,it wont stop me passing it on,1,17/05/2021 12:41,17/05/2021 12:54,805,Most weeks,Most weeks,55,Female,-99,A levels,79,3,Against,Against
21,1658860000000,26/07/2022 18:07,1658860000000,1,26/07/2022 19:07,93981,5,task-net4,NA,23317689,6842777,NA,complete,NA,62e02d20cd4ac01eeef508d8,computer,Desktop or Laptop,Windows 10,Chrome 103.0.0.0,1920x1080,1920x969,NA,ITT Ratings,3,against,8,NA,NA,NA,NA,NA,NA,ACCEPT,NA,NA,NA,batch8hes,batch8hes,42,19,1,Screen 1,continueButton,response_rating_scale_likert_active,416.4,NA,NA,Neither Agree nor Disagree,1,0,1,0,NA,NA,NA,NA,1,statements,its not been tested enough,1,17/05/2021 12:43,17/05/2021 12:54,646,Rarely,Never,58,Female,-99,GCSEs,77,3,Against,Against
73,1658860000000,26/07/2022 18:09,1658860000000,1,26/07/2022 19:09,93981,5,task-net4,NA,23317689,6842777,NA,complete,NA,62e02d20cd4ac01eeef508d8,computer,Desktop or Laptop,Windows 10,Chrome 103.0.0.0,1920x1080,1920x969,NA,ITT Ratings,3,against,8,NA,NA,NA,NA,NA,NA,ACCEPT,NA,NA,NA,batch8hes,batch8hes,29,53,1,Screen 1,continueButton,response_rating_scale_likert_active,3205.4,NA,NA,Neither Agree nor Disagree,1,0,1,0,NA,NA,NA,NA,1,statements,My Children do not want me to have it,1,17/05/2021 12:22,17/05/2021 12:47,1508,A few times a year,Never,54,Female,-99,Vocational Training / Apprenticeship,75,2,Against,Against
2,1658860000000,26/07/2022 18:06,1658860000000,1,26/07/2022 19:06,93981,5,task-net4,NA,23317689,6842777,NA,complete,NA,62e02d20cd4ac01eeef508d8,computer,Desktop or Laptop,Windows 10,Chrome 103.0.0.0,1920x1080,1920x969,NA,ITT Ratings,3,against,8,NA,NA,NA,NA,NA,NA,ACCEPT,NA,NA,NA,batch8hes,batch8hes,1,1,1,Screen 1,advancementZone,continue_button,3440,NA,NA,NA,NA,0,1,0,NA,NA,NA,NA,NA,instructions,NA,NA,NA,NA,NA,NA,NA,NA,NA,NA,NA,NA,NA,NA,NA
54,1658860000000,26/07/2022 18:08,1658860000000,1,26/07/2022 19:08,93981,5,task-net4,NA,23317689,6842777,NA,complete,NA,62e02d20cd4ac01eeef508d8,computer,Desktop or Laptop,Windows 10,Chrome 103.0.0.0,1920x1080,1920x969,NA,ITT Ratings,3,against,8,NA,NA,NA,NA,NA,NA,ACCEPT,NA,NA,NA,batch8hes,batch8hes,37,34,1,Screen 1,continueButton,response_rating_scale_likert_active,1639.4,NA,NA,Somewhat Agree,1,0,1,0,NA,NA,NA,NA,1,statements,Need to clear the virus.,1,17/05/2021 12:38,17/05/2021 12:53,872,Rarely,Never,23,Female,-99,A levels,76,1,Against,For
59,1658860000000,26/07/2022 18:08,1658860000000,1,26/07/2022 19:08,93981,5,task-net4,NA,23317689,6842777,NA,complete,NA,62e02d20cd4ac01eeef508d8,computer,Desktop or Laptop,Windows 10,Chrome 103.0.0.0,1920x1080,1920x969,NA,ITT Ratings,3,against,8,NA,NA,NA,NA,NA,NA,ACCEPT,NA,NA,NA,batch8hes,batch8hes,35,39,1,Screen 1,continueButton,response_rating_scale_likert_active,1871.1,NA,NA,Somewhat Agree,1,0,1,0,NA,NA,NA,NA,1,statements,Not enough time put into the research and development.,1,17/05/2021 12:38,17/05/2021 12:53,872,Rarely,Never,23,Female,-99,A levels,76,2,Against,Against
78,1658860000000,26/07/2022 18:09,1658860000000,1,26/07/2022 19:09,93981,5,task-net4,NA,23317689,6842777,NA,complete,NA,62e02d20cd4ac01eeef508d8,computer,Desktop or Laptop,Windows 10,Chrome 103.0.0.0,1920x1080,1920x969,NA,ITT Ratings,3,against,8,NA,NA,NA,NA,NA,NA,ACCEPT,NA,NA,NA,batch8hes,batch8hes,6,58,1,Screen 1,continueButton,response_rating_scale_likert_active,1784.8,NA,NA,Neither Agree nor Disagree,1,0,1,0,NA,NA,NA,NA,1,statements,Other trials such as that for thalidomide that were rushed provide an example of why i should be hesitant to get a jab so soon,1,17/05/2021 12:20,17/05/2021 12:39,1161,Rarely,A few times a year,35,Female,-99,"Undergraduate degree (BSc, BA)",71,3,Against,Against
52,1658860000000,26/07/2022 18:08,1658860000000,1,26/07/2022 19:08,93981,5,task-net4,NA,23317689,6842777,NA,complete,NA,62e02d20cd4ac01eeef508d8,computer,Desktop or Laptop,Windows 10,Chrome 103.0.0.0,1920x1080,1920x969,NA,ITT Ratings,3,against,8,NA,NA,NA,NA,NA,NA,ACCEPT,NA,NA,NA,batch8hes,batch8hes,18,32,1,Screen 1,continueButton,response_rating_scale_likert_active,2273.3,NA,NA,Neither Agree nor Disagree,1,0,1,0,NA,NA,NA,NA,1,statements,people have died after having the vaccine,1,17/05/2021 12:24,17/05/2021 12:44,1203,A few times a year,Rarely,28,Female,-99,A levels,73,3,Against,Against
62,1658860000000,26/07/2022 18:08,1658860000000,1,26/07/2022 19:08,93981,5,task-net4,NA,23317689,6842777,NA,complete,NA,62e02d20cd4ac01eeef508d8,computer,Desktop or Laptop,Windows 10,Chrome 103.0.0.0,1920x1080,1920x969,NA,ITT Ratings,3,against,8,NA,NA,NA,NA,NA,NA,ACCEPT,NA,NA,NA,batch8hes,batch8hes,59,42,1,Screen 1,continueButton,response_rating_scale_likert_active,2545,NA,NA,Strongly Agree,1,0,1,0,NA,NA,NA,NA,1,statements,pharmaceutical companies and government want to get rich and control us,1,##########,##########,1258,Most weeks,Most weeks,37,Female,-99,"Undergraduate degree (BSc, BA)",80,2,Against,Against
70,1658860000000,26/07/2022 18:08,1658860000000,1,26/07/2022 19:08,93981,5,task-net4,NA,23317689,6842777,NA,complete,NA,62e02d20cd4ac01eeef508d8,computer,Desktop or Laptop,Windows 10,Chrome 103.0.0.0,1920x1080,1920x969,NA,ITT Ratings,3,against,8,NA,NA,NA,NA,NA,NA,ACCEPT,NA,NA,NA,batch8hes,batch8hes,34,50,1,Screen 1,continueButton,response_rating_scale_likert_active,4217.8,NA,NA,Neither Agree nor Disagree,1,0,1,0,NA,NA,NA,NA,1,statements,Questions on infertility.,1,17/05/2021 12:38,17/05/2021 12:53,872,Rarely,Never,23,Female,-99,A levels,76,1,Against,Against
66,1658860000000,26/07/2022 18:08,1658860000000,1,26/07/2022 19:08,93981,5,task-net4,NA,23317689,6842777,NA,complete,NA,62e02d20cd4ac01eeef508d8,computer,Desktop or Laptop,Windows 10,Chrome 103.0.0.0,1920x1080,1920x969,NA,ITT Ratings,3,against,8,NA,NA,NA,NA,NA,NA,ACCEPT,NA,NA,NA,batch8hes,batch8hes,39,46,1,Screen 1,continueButton,response_rating_scale_likert_active,1572.2,NA,NA,Somewhat Agree,1,0,1,0,NA,NA,NA,NA,1,statements,Risk of getting virus is low.,1,17/05/2021 12:38,17/05/2021 12:53,872,Rarely,Never,23,Female,-99,A levels,76,3,Against,For
4,1658860000000,26/07/2022 18:07,1658860000000,1,26/07/2022 19:07,93981,5,task-net4,NA,23317689,6842777,NA,complete,NA,62e02d20cd4ac01eeef508d8,computer,Desktop or Laptop,Windows 10,Chrome 103.0.0.0,1920x1080,1920x969,NA,ITT Ratings,3,against,8,NA,NA,NA,NA,NA,NA,ACCEPT,NA,NA,NA,batch8hes,batch8hes,50,2,1,Screen 1,continueButton,response_rating_scale_likert_active,2710.5,NA,NA,Somewhat Disagree,1,0,1,0,NA,NA,NA,NA,1,statements,the are a carer or around elderly people,1,17/05/2021 12:39,17/05/2021 12:54,901,Most months,Rarely,46,Female,-99,Vocational Training / Apprenticeship,78,2,Against,For
5,1658860000000,26/07/2022 18:07,1658860000000,1,26/07/2022 19:07,93981,5,task-net4,NA,23317689,6842777,NA,complete,NA,62e02d20cd4ac01eeef508d8,computer,Desktop or Laptop,Windows 10,Chrome 103.0.0.0,1920x1080,1920x969,NA,ITT Ratings,3,against,8,NA,NA,NA,NA,NA,NA,ACCEPT,NA,NA,NA,batch8hes,batch8hes,10,3,1,Screen 1,continueButton,response_rating_scale_likert_active,2657.6,NA,NA,Somewhat Disagree,1,0,1,0,NA,NA,NA,NA,1,statements,"The vaccine received emergency approval, and consequently there is limited long-term data available.",1,17/05/2021 12:04,17/05/2021 12:41,2201,Most weeks,Rarely,22,Male,-99,"Undergraduate degree (BSc, BA)",72,1,Against,Against
65,1658860000000,26/07/2022 18:08,1658860000000,1,26/07/2022 19:08,93981,5,task-net4,NA,23317689,6842777,NA,complete,NA,62e02d20cd4ac01eeef508d8,computer,Desktop or Laptop,Windows 10,Chrome 103.0.0.0,1920x1080,1920x969,NA,ITT Ratings,3,against,8,NA,NA,NA,NA,NA,NA,ACCEPT,NA,NA,NA,batch8hes,batch8hes,61,45,1,Screen 1,continueButton,response_rating_scale_likert_active,2518.7,NA,NA,Somewhat Disagree,1,0,1,0,NA,NA,NA,NA,1,statements,the vaccine will help protect the entire population of the planet,1,##########,##########,1258,Most weeks,Most weeks,37,Female,-99,"Undergraduate degree (BSc, BA)",80,1,Against,For
74,1658860000000,26/07/2022 18:09,1658860000000,1,26/07/2022 19:09,93981,5,task-net4,NA,23317689,6842777,NA,complete,NA,62e02d20cd4ac01eeef508d8,computer,Desktop or Laptop,Windows 10,Chrome 103.0.0.0,1920x1080,1920x969,NA,ITT Ratings,3,against,8,NA,NA,NA,NA,NA,NA,ACCEPT,NA,NA,NA,batch8hes,batch8hes,11,54,1,Screen 1,continueButton,response_rating_scale_likert_active,1675.2,NA,NA,Somewhat Disagree,1,0,1,0,NA,NA,NA,NA,1,statements,"The vaccines that use mRNA and involve genetically modified primates are a new technique, compared to vaccines that use weakened or deactivated pathogens.",1,17/05/2021 12:04,17/05/2021 12:41,2201,Most weeks,Rarely,22,Male,-99,"Undergraduate degree (BSc, BA)",72,2,Against,Against
9,1658860000000,26/07/2022 18:07,1658860000000,1,26/07/2022 19:07,93981,5,task-net4,NA,23317689,6842777,NA,complete,NA,62e02d20cd4ac01eeef508d8,computer,Desktop or Laptop,Windows 10,Chrome 103.0.0.0,1920x1080,1920x969,NA,ITT Ratings,3,against,8,NA,NA,NA,NA,NA,NA,ACCEPT,NA,NA,NA,batch8hes,batch8hes,60,7,1,Screen 1,continueButton,response_rating_scale_likert_active,3354.2,NA,NA,Somewhat Agree,1,0,1,0,NA,NA,NA,NA,1,statements,the virus mutates and existing vaccines are not effective,1,##########,##########,1258,Most weeks,Most weeks,37,Female,-99,"Undergraduate degree (BSc, BA)",80,3,Against,Against
11,1658860000000,26/07/2022 18:07,1658860000000,1,26/07/2022 19:07,93981,5,task-net4,NA,23317689,6842777,NA,complete,NA,62e02d20cd4ac01eeef508d8,computer,Desktop or Laptop,Windows 10,Chrome 103.0.0.0,1920x1080,1920x969,NA,ITT Ratings,3,against,8,NA,NA,NA,NA,NA,NA,ACCEPT,NA,NA,NA,batch8hes,batch8hes,7,9,1,Screen 1,continueButton,response_rating_scale_likert_active,587.7,NA,NA,Neither Agree nor Disagree,1,0,1,0,NA,NA,NA,NA,1,statements,"There have not been many particularly negative side effects reported yet, therefor its absolutely safe.",1,17/05/2021 12:20,17/05/2021 12:39,1161,Rarely,A few times a year,35,Female,-99,"Undergraduate degree (BSc, BA)",71,1,Against,For
3,1658860000000,26/07/2022 18:06,1658860000000,1,26/07/2022 19:06,93981,5,task-net4,NA,23317689,6842777,NA,complete,NA,62e02d20cd4ac01eeef508d8,computer,Desktop or Laptop,Windows 10,Chrome 103.0.0.0,1920x1080,1920x969,NA,ITT Ratings,3,against,8,NA,NA,NA,NA,NA,NA,ACCEPT,NA,NA,NA,batch8hes,batch8hes,14,1,1,Screen 1,continueButton,response_rating_scale_likert_active,7928,NA,NA,Somewhat Disagree,1,0,1,0,NA,NA,NA,NA,1,statements,There haven't been widespread visible side effects several months after the introduction of the vaccines.,1,17/05/2021 12:04,17/05/2021 12:41,2201,Most weeks,Rarely,22,Male,-99,"Undergraduate degree (BSc, BA)",72,2,Against,For
69,1658860000000,26/07/2022 18:08,1658860000000,1,26/07/2022 19:08,93981,5,task-net4,NA,23317689,6842777,NA,complete,NA,62e02d20cd4ac01eeef508d8,computer,Desktop or Laptop,Windows 10,Chrome 103.0.0.0,1920x1080,1920x969,NA,ITT Ratings,3,against,8,NA,NA,NA,NA,NA,NA,ACCEPT,NA,NA,NA,batch8hes,batch8hes,52,49,1,Screen 1,continueButton,response_rating_scale_likert_active,1689.8,NA,NA,Somewhat Disagree,1,0,1,0,NA,NA,NA,NA,1,statements,There is history of thrombosis in my family,1,17/05/2021 12:41,17/05/2021 12:54,805,Most weeks,Most weeks,55,Female,-99,A levels,79,1,Against,Against
80,1658860000000,26/07/2022 18:09,1658860000000,1,26/07/2022 19:09,93981,5,task-net4,NA,23317689,6842777,NA,complete,NA,62e02d20cd4ac01eeef508d8,computer,Desktop or Laptop,Windows 10,Chrome 103.0.0.0,1920x1080,1920x969,NA,ITT Ratings,3,against,8,NA,NA,NA,NA,NA,NA,ACCEPT,NA,NA,NA,batch8hes,batch8hes,58,60,1,Screen 1,continueButton,response_rating_scale_likert_active,2856.9,NA,NA,Neither Agree nor Disagree,1,0,1,0,NA,NA,NA,NA,1,statements,vaccine is not safe (a lot of deaths or strong reactions on astrazaneca or pfiser),1,##########,##########,1258,Most weeks,Most weeks,37,Female,-99,"Undergraduate degree (BSc, BA)",80,1,Against,Against
46,1658860000000,26/07/2022 18:08,1658860000000,1,26/07/2022 19:08,93981,5,task-net4,NA,23317689,6842777,NA,complete,NA,62e02d20cd4ac01eeef508d8,computer,Desktop or Laptop,Windows 10,Chrome 103.0.0.0,1920x1080,1920x969,NA,ITT Ratings,3,against,8,NA,NA,NA,NA,NA,NA,ACCEPT,NA,NA,NA,batch8hes,batch8hes,62,26,1,Screen 1,continueButton,response_rating_scale_likert_active,1769.1,NA,NA,Somewhat Disagree,1,0,1,0,NA,NA,NA,NA,1,statements,vaccines were tested and safe,1,##########,##########,1258,Most weeks,Most weeks,37,Female,-99,"Undergraduate degree (BSc, BA)",80,2,Against,For
27,1658860000000,26/07/2022 18:07,1658860000000,1,26/07/2022 19:07,93981,5,task-net4,NA,23317689,6842777,NA,complete,NA,62e02d20cd4ac01eeef508d8,computer,Desktop or Laptop,Windows 10,Chrome 103.0.0.0,1920x1080,1920x969,NA,ITT Ratings,3,against,8,NA,NA,NA,NA,NA,NA,ACCEPT,NA,NA,NA,batch8hes,batch8hes,2,25,1,Screen 1,continueButton,response_rating_scale_likert_active,404,NA,NA,Somewhat Disagree,1,0,1,0,NA,NA,NA,NA,1,statements,We would like to check you are reading each argument carefully. Please select 'Somewhat Agree' for this answer,1,NA,NA,NA,NA,NA,NA,NA,NA,NA,NA,check1,NA,NA
45,1658860000000,26/07/2022 18:08,1658860000000,1,26/07/2022 19:08,93981,5,task-net4,NA,23317689,6842777,NA,complete,NA,62e02d20cd4ac01eeef508d8,computer,Desktop or Laptop,Windows 10,Chrome 103.0.0.0,1920x1080,1920x969,NA,ITT Ratings,3,against,8,NA,NA,NA,NA,NA,NA,ACCEPT,NA,NA,NA,batch8hes,batch8hes,2,25,1,Screen 1,continueButton,response_rating_scale_likert_active,1382.5,NA,NA,Somewhat Agree,1,0,1,0,NA,NA,NA,NA,1,statements,We would like to check you are reading each argument carefully. Please select 'Somewhat Agree' for this answer,1,NA,NA,NA,NA,NA,NA,NA,NA,NA,NA,check1,NA,NA
19,1658860000000,26/07/2022 18:07,1658860000000,1,26/07/2022 19:07,93981,5,task-net4,NA,23317689,6842777,NA,complete,NA,62e02d20cd4ac01eeef508d8,computer,Desktop or Laptop,Windows 10,Chrome 103.0.0.0,1920x1080,1920x969,NA,ITT Ratings,3,against,8,NA,NA,NA,NA,NA,NA,ACCEPT,NA,NA,NA,batch8hes,batch8hes,3,17,1,Screen 1,continueButton,response_rating_scale_likert_active,2520.4,NA,NA,Somewhat Disagree,1,0,1,0,NA,NA,NA,NA,1,statements,We would like to check you are reading each argument carefully. Please select 'Somewhat Disagree' for this answer,1,NA,NA,NA,NA,NA,NA,NA,NA,NA,NA,check2,NA,NA
37,1658860000000,26/07/2022 18:07,1658860000000,1,26/07/2022 19:07,93981,5,task-net4,NA,23317689,6842777,NA,complete,NA,62e02d20cd4ac01eeef508d8,computer,Desktop or Laptop,Windows 10,Chrome 103.0.0.0,1920x1080,1920x969,NA,ITT Ratings,3,against,8,NA,NA,NA,NA,NA,NA,ACCEPT,NA,NA,NA,batch8hes,batch8hes,3,17,1,Screen 1,continueButton,response_rating_scale_likert_active,1909.9,NA,NA,Somewhat Disagree,1,0,1,0,NA,NA,NA,NA,1,statements,We would like to check you are reading each argument carefully. Please select 'Somewhat Disagree' for this answer,1,NA,NA,NA,NA,NA,NA,NA,NA,NA,NA,check2,NA,NA
1,1658860000000,26/07/2022 18:06,1658860000000,1,26/07/2022 19:06,93981,5,task-net4,NA,23317689,6842777,NA,complete,NA,62e02d20cd4ac01eeef508d8,computer,Desktop or Laptop,Windows 10,Chrome 103.0.0.0,1920x1080,1920x969,NA,ITT Ratings,3,against,8,NA,NA,NA,NA,NA,NA,ACCEPT,NA,NA,NA,batch8hes,NA,NA,BEGIN TASK,NA,NA,NA,NA,NA,NA,NA,NA,NA,0,1,0,NA,NA,NA,NA,NA,NA,NA,NA,NA,NA,NA,NA,NA,NA,NA,NA,NA,NA,NA,NA,NA
28,1658860000000,26/07/2022 18:07,1658860000000,1,26/07/2022 19:07,93981,5,task-net4,NA,23317689,6842777,NA,complete,NA,62e02d20cd4ac01eeef508d8,computer,Desktop or Laptop,Windows 10,Chrome 103.0.0.0,1920x1080,1920x969,NA,ITT Ratings,3,against,8,NA,NA,NA,NA,NA,NA,ACCEPT,NA,NA,NA,batch8hes,NA,NA,BEGIN TASK,NA,NA,NA,NA,NA,NA,NA,NA,NA,0,1,0,NA,NA,NA,NA,NA,NA,NA,NA,NA,NA,NA,NA,NA,NA,NA,NA,NA,NA,NA,NA,NA
83,1658860000000,26/07/2022 18:09,1658860000000,1,26/07/2022 19:09,93981,5,task-net4,NA,23317689,6842777,NA,complete,NA,62e02d20cd4ac01eeef508d8,computer,Desktop or Laptop,Windows 10,Chrome 103.0.0.0,1920x1080,1920x969,NA,ITT Ratings,3,against,8,NA,NA,NA,NA,NA,NA,ACCEPT,NA,NA,NA,batch8hes,NA,NA,END TASK,NA,NA,NA,NA,100208,NA,NA,NA,NA,0,1,0,NA,NA,NA,NA,NA,NA,NA,NA,NA,NA,NA,NA,NA,NA,NA,NA,NA,NA,NA,NA,NA
54,1658860000000,26/07/2022 18:17,1658860000000,1,26/07/2022 19:17,93981,5,task-net4,NA,23317828,6842817,NA,complete,NA,62e02e519ac60fe92ca5b744,computer,Desktop or Laptop,Mac OS 10.15.7,Chrome 103.0.0.0,1440x900,1409x707,NA,ITT Ratings,3,against,8,NA,NA,NA,NA,NA,NA,ACCEPT,NA,NA,NA,batch8hes,batch8hes,38,52,1,Screen 1,continueButton,response_rating_scale_likert_active,2730.7,NA,NA,Disagree,1,0,1,0,NA,NA,NA,NA,1,statements,Ability to travel in the future.,1,17/05/2021 12:38,17/05/2021 12:53,872,Rarely,Never,23,Female,-99,A levels,76,2,Against,For
61,1658860000000,26/07/2022 18:17,1658860000000,1,26/07/2022 19:17,93981,5,task-net4,NA,23317828,6842817,NA,complete,NA,62e02e519ac60fe92ca5b744,computer,Desktop or Laptop,Mac OS 10.15.7,Chrome 103.0.0.0,1440x900,1409x707,NA,ITT Ratings,3,against,8,NA,NA,NA,NA,NA,NA,ACCEPT,NA,NA,NA,batch8hes,batch8hes,4,59,1,Screen 1,continueButton,response_rating_scale_likert_active,17639.2,NA,NA,Strongly Agree,1,0,1,0,NA,NA,NA,NA,1,statements,"Aby possible long term effects are still not apparent, those trialling the vaccine are monitored for 2 years to keep an eye out for anything untoward occurring.",1,17/05/2021 12:20,17/05/2021 12:39,1161,Rarely,A few times a year,35,Female,-99,"Undergraduate degree (BSc, BA)",71,1,Against,Against
7,1658860000000,26/07/2022 18:13,1658860000000,1,26/07/2022 19:13,93981,5,task-net4,NA,23317828,6842817,NA,complete,NA,62e02e519ac60fe92ca5b744,computer,Desktop or Laptop,Mac OS 10.15.7,Chrome 103.0.0.0,1440x900,1409x707,NA,ITT Ratings,3,against,8,NA,NA,NA,NA,NA,NA,ACCEPT,NA,NA,NA,batch8hes,batch8hes,46,5,1,Screen 1,continueButton,response_rating_scale_likert_active,8843,NA,NA,Agree,1,0,1,0,NA,NA,NA,NA,1,statements,Because I have an autoimmune disease and cant have it,1,17/05/2021 12:39,17/05/2021 12:54,901,Most months,Rarely,46,Female,-99,Vocational Training / Apprenticeship,78,1,Against,Against
4,1658860000000,26/07/2022 18:12,1658860000000,1,26/07/2022 19:12,93981,5,task-net4,NA,23317828,6842817,NA,complete,NA,62e02e519ac60fe92ca5b744,computer,Desktop or Laptop,Mac OS 10.15.7,Chrome 103.0.0.0,1440x900,1409x707,NA,ITT Ratings,3,against,8,NA,NA,NA,NA,NA,NA,ACCEPT,NA,NA,NA,batch8hes,batch8hes,63,2,1,Screen 1,continueButton,response_rating_scale_likert_active,7452.1,NA,NA,Somewhat Agree,1,0,1,0,NA,NA,NA,NA,1,statements,consequences after covid19 are more serious than side effects after vaccine,1,##########,##########,1258,Most weeks,Most weeks,37,Female,-99,"Undergraduate degree (BSc, BA)",80,3,Against,For
32,1658860000000,26/07/2022 18:15,1658860000000,1,26/07/2022 19:15,93981,5,task-net4,NA,23317828,6842817,NA,complete,NA,62e02e519ac60fe92ca5b744,computer,Desktop or Laptop,Mac OS 10.15.7,Chrome 103.0.0.0,1440x900,1409x707,NA,ITT Ratings,3,against,8,NA,NA,NA,NA,NA,NA,ACCEPT,NA,NA,NA,batch8hes,batch8hes,12,30,1,Screen 1,continueButton,response_rating_scale_likert_active,6232.1,NA,NA,Strongly Agree,1,0,1,0,NA,NA,NA,NA,1,statements,"COVID-19 has an extraordinarily low mortality rate in healthy young people, so it is not worth taking the vaccine unless one is elderly or has conditions such as an autoimmune disease.",1,17/05/2021 12:04,17/05/2021 12:41,2201,Most weeks,Rarely,22,Male,-99,"Undergraduate degree (BSc, BA)",72,3,Against,Against
33,1658860000000,26/07/2022 18:15,1658860000000,1,26/07/2022 19:15,93981,5,task-net4,NA,23317828,6842817,NA,complete,NA,62e02e519ac60fe92ca5b744,computer,Desktop or Laptop,Mac OS 10.15.7,Chrome 103.0.0.0,1440x900,1409x707,NA,ITT Ratings,3,against,8,NA,NA,NA,NA,NA,NA,ACCEPT,NA,NA,NA,batch8hes,batch8hes,36,31,1,Screen 1,continueButton,response_rating_scale_likert_active,2943.2,NA,NA,Strongly Agree,1,0,1,0,NA,NA,NA,NA,1,statements,Enough evidence it even works?,1,17/05/2021 12:38,17/05/2021 12:53,872,Rarely,Never,23,Female,-99,A levels,76,3,Against,Against
29,1658860000000,26/07/2022 18:14,1658860000000,1,26/07/2022 19:14,93981,5,task-net4,NA,23317828,6842817,NA,complete,NA,62e02e519ac60fe92ca5b744,computer,Desktop or Laptop,Mac OS 10.15.7,Chrome 103.0.0.0,1440x900,1409x707,NA,ITT Ratings,3,against,8,NA,NA,NA,NA,NA,NA,ACCEPT,NA,NA,NA,batch8hes,batch8hes,15,27,1,Screen 1,continueButton,response_rating_scale_likert_active,12330.7,NA,NA,Somewhat Disagree,1,0,1,0,NA,NA,NA,NA,1,statements,"Even if one is not vulnerable to the virus, getting vaccinated will reduce community transmission and therefore protect those who are.",1,17/05/2021 12:04,17/05/2021 12:41,2201,Most weeks,Rarely,22,Male,-99,"Undergraduate degree (BSc, BA)",72,3,Against,For
48,1658860000000,26/07/2022 18:16,1658860000000,1,26/07/2022 19:16,93981,5,task-net4,NA,23317828,6842817,NA,complete,NA,62e02e519ac60fe92ca5b744,computer,Desktop or Laptop,Mac OS 10.15.7,Chrome 103.0.0.0,1440x900,1409x707,NA,ITT Ratings,3,against,8,NA,NA,NA,NA,NA,NA,ACCEPT,NA,NA,NA,batch8hes,batch8hes,31,46,1,Screen 1,continueButton,response_rating_scale_likert_active,11551.8,NA,NA,Somewhat Disagree,1,0,1,0,NA,NA,NA,NA,1,statements,"I  want it if it stops me getting covid then ill have it, I can't see my relative in a nursing home",1,17/05/2021 12:22,17/05/2021 12:47,1508,A few times a year,Never,54,Female,-99,Vocational Training / Apprenticeship,75,1,Against,For
11,1658860000000,26/07/2022 18:13,1658860000000,1,26/07/2022 19:13,93981,5,task-net4,NA,23317828,6842817,NA,complete,NA,62e02e519ac60fe92ca5b744,computer,Desktop or Laptop,Mac OS 10.15.7,Chrome 103.0.0.0,1440x900,1409x707,NA,ITT Ratings,3,against,8,NA,NA,NA,NA,NA,NA,ACCEPT,NA,NA,NA,batch8hes,batch8hes,21,9,1,Screen 1,continueButton,response_rating_scale_likert_active,3720.3,NA,NA,Strongly Disagree,1,0,1,0,NA,NA,NA,NA,1,statements,I am afraid of catching covid and becoming very ill or possibly dying from the virus,1,17/05/2021 12:24,17/05/2021 12:44,1203,A few times a year,Rarely,28,Female,-99,A levels,73,3,Against,For
47,1658860000000,26/07/2022 18:16,1658860000000,1,26/07/2022 19:16,93981,5,task-net4,NA,23317828,6842817,NA,complete,NA,62e02e519ac60fe92ca5b744,computer,Desktop or Laptop,Mac OS 10.15.7,Chrome 103.0.0.0,1440x900,1409x707,NA,ITT Ratings,3,against,8,NA,NA,NA,NA,NA,NA,ACCEPT,NA,NA,NA,batch8hes,batch8hes,55,45,1,Screen 1,continueButton,response_rating_scale_likert_active,5706.1,NA,NA,Somewhat Disagree,1,0,1,0,NA,NA,NA,NA,1,statements,I can go back to work,1,17/05/2021 12:41,17/05/2021 12:54,805,Most weeks,Most weeks,55,Female,-99,A levels,79,1,Against,For
50,1658860000000,26/07/2022 18:16,1658860000000,1,26/07/2022 19:16,93981,5,task-net4,NA,23317828,6842817,NA,complete,NA,62e02e519ac60fe92ca5b744,computer,Desktop or Laptop,Mac OS 10.15.7,Chrome 103.0.0.0,1440x900,1409x707,NA,ITT Ratings,3,against,8,NA,NA,NA,NA,NA,NA,ACCEPT,NA,NA,NA,batch8hes,batch8hes,5,48,1,Screen 1,continueButton,response_rating_scale_likert_active,7397.5,NA,NA,Somewhat Agree,1,0,1,0,NA,NA,NA,NA,1,statements,"I can wait as the rest of the population gets one, group immunity will help protect me too.",1,17/05/2021 12:20,17/05/2021 12:39,1161,Rarely,A few times a year,35,Female,-99,"Undergraduate degree (BSc, BA)",71,2,Against,Against
25,1658860000000,26/07/2022 18:14,1658860000000,1,26/07/2022 19:14,93981,5,task-net4,NA,23317828,6842817,NA,complete,NA,62e02e519ac60fe92ca5b744,computer,Desktop or Laptop,Mac OS 10.15.7,Chrome 103.0.0.0,1440x900,1409x707,NA,ITT Ratings,3,against,8,NA,NA,NA,NA,NA,NA,ACCEPT,NA,NA,NA,batch8hes,batch8hes,16,23,1,Screen 1,continueButton,response_rating_scale_likert_active,1850.1,NA,NA,Strongly Agree,1,0,1,0,NA,NA,NA,NA,1,statements,I do not trust the vaccine,1,17/05/2021 12:24,17/05/2021 12:44,1203,A few times a year,Rarely,28,Female,-99,A levels,73,1,Against,Against
37,1658860000000,26/07/2022 18:15,1658860000000,1,26/07/2022 19:15,93981,5,task-net4,NA,23317828,6842817,NA,complete,NA,62e02e519ac60fe92ca5b744,computer,Desktop or Laptop,Mac OS 10.15.7,Chrome 103.0.0.0,1440x900,1409x707,NA,ITT Ratings,3,against,8,NA,NA,NA,NA,NA,NA,ACCEPT,NA,NA,NA,batch8hes,batch8hes,24,35,1,Screen 1,continueButton,response_rating_scale_likert_active,1899.8,NA,NA,Strongly Agree,1,0,1,0,NA,NA,NA,NA,1,statements,I don't like being forced to do something.,1,17/05/2021 12:14,17/05/2021 12:45,1854,Most weeks,Most days,38,Female,-99,"Vocational Training / Apprenticeship,A levels",74,3,Against,Against
16,1658860000000,26/07/2022 18:14,1658860000000,1,26/07/2022 19:14,93981,5,task-net4,NA,23317828,6842817,NA,complete,NA,62e02e519ac60fe92ca5b744,computer,Desktop or Laptop,Mac OS 10.15.7,Chrome 103.0.0.0,1440x900,1409x707,NA,ITT Ratings,3,against,8,NA,NA,NA,NA,NA,NA,ACCEPT,NA,NA,NA,batch8hes,batch8hes,23,14,1,Screen 1,continueButton,response_rating_scale_likert_active,4500.7,NA,NA,Strongly Agree,1,0,1,0,NA,NA,NA,NA,1,statements,I don't trust whats in it,1,17/05/2021 12:14,17/05/2021 12:45,1854,Most weeks,Most days,38,Female,-99,"Vocational Training / Apprenticeship,A levels",74,2,Against,Against
10,1658860000000,26/07/2022 18:13,1658860000000,1,26/07/2022 19:13,93981,5,task-net4,NA,23317828,6842817,NA,complete,NA,62e02e519ac60fe92ca5b744,computer,Desktop or Laptop,Mac OS 10.15.7,Chrome 103.0.0.0,1440x900,1409x707,NA,ITT Ratings,3,against,8,NA,NA,NA,NA,NA,NA,ACCEPT,NA,NA,NA,batch8hes,batch8hes,17,8,1,Screen 1,continueButton,response_rating_scale_likert_active,4356.8,NA,NA,Strongly Agree,1,0,1,0,NA,NA,NA,NA,1,statements,I dont feel I have had enough time to develop the vaccine,1,17/05/2021 12:24,17/05/2021 12:44,1203,A few times a year,Rarely,28,Female,-99,A levels,73,2,Against,Against
56,1658860000000,26/07/2022 18:17,1658860000000,1,26/07/2022 19:17,93981,5,task-net4,NA,23317828,6842817,NA,complete,NA,62e02e519ac60fe92ca5b744,computer,Desktop or Laptop,Mac OS 10.15.7,Chrome 103.0.0.0,1440x900,1409x707,NA,ITT Ratings,3,against,8,NA,NA,NA,NA,NA,NA,ACCEPT,NA,NA,NA,batch8hes,batch8hes,40,54,1,Screen 1,continueButton,response_rating_scale_likert_active,2871.7,NA,NA,Strongly Agree,1,0,1,0,NA,NA,NA,NA,1,statements,i dont want a vaccine as i dont trust it,1,17/05/2021 12:43,17/05/2021 12:54,646,Rarely,Never,58,Female,-99,GCSEs,77,1,Against,Against
40,1658860000000,26/07/2022 18:15,1658860000000,1,26/07/2022 19:15,93981,5,task-net4,NA,23317828,6842817,NA,complete,NA,62e02e519ac60fe92ca5b744,computer,Desktop or Laptop,Mac OS 10.15.7,Chrome 103.0.0.0,1440x900,1409x707,NA,ITT Ratings,3,against,8,NA,NA,NA,NA,NA,NA,ACCEPT,NA,NA,NA,batch8hes,batch8hes,56,38,1,Screen 1,continueButton,response_rating_scale_likert_active,5841.1,NA,NA,Somewhat Agree,1,0,1,0,NA,NA,NA,NA,1,statements,I dont want to wear a mask,1,17/05/2021 12:41,17/05/2021 12:54,805,Most weeks,Most weeks,55,Female,-99,A levels,79,2,Against,For
62,1658860000000,26/07/2022 18:17,1658860000000,1,26/07/2022 19:17,93981,5,task-net4,NA,23317828,6842817,NA,complete,NA,62e02e519ac60fe92ca5b744,computer,Desktop or Laptop,Mac OS 10.15.7,Chrome 103.0.0.0,1440x900,1409x707,NA,ITT Ratings,3,against,8,NA,NA,NA,NA,NA,NA,ACCEPT,NA,NA,NA,batch8hes,batch8hes,47,60,1,Screen 1,continueButton,response_rating_scale_likert_active,2870,NA,NA,Somewhat Agree,1,0,1,0,NA,NA,NA,NA,1,statements,I have an allergy to one of the ingredients,1,17/05/2021 12:39,17/05/2021 12:54,901,Most months,Rarely,46,Female,-99,Vocational Training / Apprenticeship,78,2,Against,Against
43,1658860000000,26/07/2022 18:15,1658860000000,1,26/07/2022 19:15,93981,5,task-net4,NA,23317828,6842817,NA,complete,NA,62e02e519ac60fe92ca5b744,computer,Desktop or Laptop,Mac OS 10.15.7,Chrome 103.0.0.0,1440x900,1409x707,NA,ITT Ratings,3,against,8,NA,NA,NA,NA,NA,NA,ACCEPT,NA,NA,NA,batch8hes,batch8hes,28,41,1,Screen 1,continueButton,response_rating_scale_likert_active,4386.6,NA,NA,Strongly Agree,1,0,1,0,NA,NA,NA,NA,1,statements,I have seen videos of people who have had reactions to the vacine,1,17/05/2021 12:22,17/05/2021 12:47,1508,A few times a year,Never,54,Female,-99,Vocational Training / Apprenticeship,75,1,Against,Against
60,1658860000000,26/07/2022 18:17,1658860000000,1,26/07/2022 19:17,93981,5,task-net4,NA,23317828,6842817,NA,complete,NA,62e02e519ac60fe92ca5b744,computer,Desktop or Laptop,Mac OS 10.15.7,Chrome 103.0.0.0,1440x900,1409x707,NA,ITT Ratings,3,against,8,NA,NA,NA,NA,NA,NA,ACCEPT,NA,NA,NA,batch8hes,batch8hes,48,58,1,Screen 1,continueButton,response_rating_scale_likert_active,8151.2,NA,NA,Somewhat Agree,1,0,1,0,NA,NA,NA,NA,1,statements,I just don't want it because I don't agree with it and I have a phobia of needles,1,17/05/2021 12:39,17/05/2021 12:54,901,Most months,Rarely,46,Female,-99,Vocational Training / Apprenticeship,78,3,Against,Against
36,1658860000000,26/07/2022 18:15,1658860000000,1,26/07/2022 19:15,93981,5,task-net4,NA,23317828,6842817,NA,complete,NA,62e02e519ac60fe92ca5b744,computer,Desktop or Laptop,Mac OS 10.15.7,Chrome 103.0.0.0,1440x900,1409x707,NA,ITT Ratings,3,against,8,NA,NA,NA,NA,NA,NA,ACCEPT,NA,NA,NA,batch8hes,batch8hes,51,34,1,Screen 1,continueButton,response_rating_scale_likert_active,2665.3,NA,NA,Strongly Disagree,1,0,1,0,NA,NA,NA,NA,1,statements,I just want to do my bit,1,17/05/2021 12:39,17/05/2021 12:54,901,Most months,Rarely,46,Female,-99,Vocational Training / Apprenticeship,78,3,Against,For
52,1658860000000,26/07/2022 18:16,1658860000000,1,26/07/2022 19:16,93981,5,task-net4,NA,23317828,6842817,NA,complete,NA,62e02e519ac60fe92ca5b744,computer,Desktop or Laptop,Mac OS 10.15.7,Chrome 103.0.0.0,1440x900,1409x707,NA,ITT Ratings,3,against,8,NA,NA,NA,NA,NA,NA,ACCEPT,NA,NA,NA,batch8hes,batch8hes,9,50,1,Screen 1,continueButton,response_rating_scale_likert_active,6844.5,NA,NA,Strongly Disagree,1,0,1,0,NA,NA,NA,NA,1,statements,"I may as well get it or i won't be permitted to travel abroad, the government or even my workplace might also pose other restrictions on me if i'm not vaccinated.",1,17/05/2021 12:20,17/05/2021 12:39,1161,Rarely,A few times a year,35,Female,-99,"Undergraduate degree (BSc, BA)",71,3,Against,For
34,1658860000000,26/07/2022 18:15,1658860000000,1,26/07/2022 19:15,93981,5,task-net4,NA,23317828,6842817,NA,complete,NA,62e02e519ac60fe92ca5b744,computer,Desktop or Laptop,Mac OS 10.15.7,Chrome 103.0.0.0,1440x900,1409x707,NA,ITT Ratings,3,against,8,NA,NA,NA,NA,NA,NA,ACCEPT,NA,NA,NA,batch8hes,batch8hes,33,32,1,Screen 1,continueButton,response_rating_scale_likert_active,3232.7,NA,NA,Somewhat Agree,1,0,1,0,NA,NA,NA,NA,1,statements,"I need it to be able to go into pubs, go on holiday , go.to cinema etc, go to a restaurant",1,17/05/2021 12:22,17/05/2021 12:47,1508,A few times a year,Never,54,Female,-99,Vocational Training / Apprenticeship,75,3,Against,For
13,1658860000000,26/07/2022 18:13,1658860000000,1,26/07/2022 19:13,93981,5,task-net4,NA,23317828,6842817,NA,complete,NA,62e02e519ac60fe92ca5b744,computer,Desktop or Laptop,Mac OS 10.15.7,Chrome 103.0.0.0,1440x900,1409x707,NA,ITT Ratings,3,against,8,NA,NA,NA,NA,NA,NA,ACCEPT,NA,NA,NA,batch8hes,batch8hes,32,11,1,Screen 1,continueButton,response_rating_scale_likert_active,6057.3,NA,NA,Somewhat Agree,1,0,1,0,NA,NA,NA,NA,1,statements,"I need it to work , my company is insisting that we must have it. I don't want to get the sack",1,17/05/2021 12:22,17/05/2021 12:47,1508,A few times a year,Never,54,Female,-99,Vocational Training / Apprenticeship,75,2,Against,For
45,1658860000000,26/07/2022 18:16,1658860000000,1,26/07/2022 19:16,93981,5,task-net4,NA,23317828,6842817,NA,complete,NA,62e02e519ac60fe92ca5b744,computer,Desktop or Laptop,Mac OS 10.15.7,Chrome 103.0.0.0,1440x900,1409x707,NA,ITT Ratings,3,against,8,NA,NA,NA,NA,NA,NA,ACCEPT,NA,NA,NA,batch8hes,batch8hes,30,43,1,Screen 1,continueButton,response_rating_scale_likert_active,14649.1,NA,NA,Somewhat Agree,1,0,1,0,NA,NA,NA,NA,1,statements,I saw a video from a woman doctor/scientist who stated the vacine changes your DNA and destroys your immune system months after you have had it,1,17/05/2021 12:22,17/05/2021 12:47,1508,A few times a year,Never,54,Female,-99,Vocational Training / Apprenticeship,75,3,Against,Against
6,1658860000000,26/07/2022 18:13,1658860000000,1,26/07/2022 19:13,93981,5,task-net4,NA,23317828,6842817,NA,complete,NA,62e02e519ac60fe92ca5b744,computer,Desktop or Laptop,Mac OS 10.15.7,Chrome 103.0.0.0,1440x900,1409x707,NA,ITT Ratings,3,against,8,NA,NA,NA,NA,NA,NA,ACCEPT,NA,NA,NA,batch8hes,batch8hes,57,4,1,Screen 1,continueButton,response_rating_scale_likert_active,13229.7,NA,NA,Strongly Disagree,1,0,1,0,NA,NA,NA,NA,1,statements,I think i will get it if i dont get a vaccination,1,17/05/2021 12:41,17/05/2021 12:54,805,Most weeks,Most weeks,55,Female,-99,A levels,79,3,Against,For
49,1658860000000,26/07/2022 18:16,1658860000000,1,26/07/2022 19:16,93981,5,task-net4,NA,23317828,6842817,NA,complete,NA,62e02e519ac60fe92ca5b744,computer,Desktop or Laptop,Mac OS 10.15.7,Chrome 103.0.0.0,1440x900,1409x707,NA,ITT Ratings,3,against,8,NA,NA,NA,NA,NA,NA,ACCEPT,NA,NA,NA,batch8hes,batch8hes,25,47,1,Screen 1,continueButton,response_rating_scale_likert_active,3876.4,NA,NA,Strongly Disagree,1,0,1,0,NA,NA,NA,NA,1,statements,I think it will protect me from the covid19 virus,1,17/05/2021 12:14,17/05/2021 12:45,1854,Most weeks,Most days,38,Female,-99,"Vocational Training / Apprenticeship,A levels",74,1,Against,For
41,1658860000000,26/07/2022 18:15,1658860000000,1,26/07/2022 19:15,93981,5,task-net4,NA,23317828,6842817,NA,complete,NA,62e02e519ac60fe92ca5b744,computer,Desktop or Laptop,Mac OS 10.15.7,Chrome 103.0.0.0,1440x900,1409x707,NA,ITT Ratings,3,against,8,NA,NA,NA,NA,NA,NA,ACCEPT,NA,NA,NA,batch8hes,batch8hes,19,39,1,Screen 1,continueButton,response_rating_scale_likert_active,1650.5,NA,NA,Strongly Disagree,1,0,1,0,NA,NA,NA,NA,1,statements,I trust the vaccine,1,17/05/2021 12:24,17/05/2021 12:44,1203,A few times a year,Rarely,28,Female,-99,A levels,73,1,Against,For
15,1658860000000,26/07/2022 18:13,1658860000000,1,26/07/2022 19:13,93981,5,task-net4,NA,23317828,6842817,NA,complete,NA,62e02e519ac60fe92ca5b744,computer,Desktop or Laptop,Mac OS 10.15.7,Chrome 103.0.0.0,1440x900,1409x707,NA,ITT Ratings,3,against,8,NA,NA,NA,NA,NA,NA,ACCEPT,NA,NA,NA,batch8hes,batch8hes,45,13,1,Screen 1,continueButton,response_rating_scale_likert_active,4547.9,NA,NA,Disagree,1,0,1,0,NA,NA,NA,NA,1,statements,i want life back to normal so will take it,1,17/05/2021 12:43,17/05/2021 12:54,646,Rarely,Never,58,Female,-99,GCSEs,77,3,Against,For
8,1658860000000,26/07/2022 18:13,1658860000000,1,26/07/2022 19:13,93981,5,task-net4,NA,23317828,6842817,NA,complete,NA,62e02e519ac60fe92ca5b744,computer,Desktop or Laptop,Mac OS 10.15.7,Chrome 103.0.0.0,1440x900,1409x707,NA,ITT Ratings,3,against,8,NA,NA,NA,NA,NA,NA,ACCEPT,NA,NA,NA,batch8hes,batch8hes,49,6,1,Screen 1,continueButton,response_rating_scale_likert_active,9323.7,NA,NA,Somewhat Agree,1,0,1,0,NA,NA,NA,NA,1,statements,I want to be able to go out to places where I need a vaccine password,1,17/05/2021 12:39,17/05/2021 12:54,901,Most months,Rarely,46,Female,-99,Vocational Training / Apprenticeship,78,1,Against,For
46,1658860000000,26/07/2022 18:16,1658860000000,1,26/07/2022 19:16,93981,5,task-net4,NA,23317828,6842817,NA,complete,NA,62e02e519ac60fe92ca5b744,computer,Desktop or Laptop,Mac OS 10.15.7,Chrome 103.0.0.0,1440x900,1409x707,NA,ITT Ratings,3,against,8,NA,NA,NA,NA,NA,NA,ACCEPT,NA,NA,NA,batch8hes,batch8hes,43,44,1,Screen 1,continueButton,response_rating_scale_likert_active,2626,NA,NA,Strongly Disagree,1,0,1,0,NA,NA,NA,NA,1,statements,i would feel safer having it,1,17/05/2021 12:43,17/05/2021 12:54,646,Rarely,Never,58,Female,-99,GCSEs,77,1,Against,For
57,1658860000000,26/07/2022 18:17,1658860000000,1,26/07/2022 19:17,93981,5,task-net4,NA,23317828,6842817,NA,complete,NA,62e02e519ac60fe92ca5b744,computer,Desktop or Laptop,Mac OS 10.15.7,Chrome 103.0.0.0,1440x900,1409x707,NA,ITT Ratings,3,against,8,NA,NA,NA,NA,NA,NA,ACCEPT,NA,NA,NA,batch8hes,batch8hes,20,55,1,Screen 1,continueButton,response_rating_scale_likert_active,3482.4,NA,NA,Strongly Disagree,1,0,1,0,NA,NA,NA,NA,1,statements,I would rather take the vaccine than catch covid,1,17/05/2021 12:24,17/05/2021 12:44,1203,A few times a year,Rarely,28,Female,-99,A levels,73,2,Against,For
23,1658860000000,26/07/2022 18:14,1658860000000,1,26/07/2022 19:14,93981,5,task-net4,NA,23317828,6842817,NA,complete,NA,62e02e519ac60fe92ca5b744,computer,Desktop or Laptop,Mac OS 10.15.7,Chrome 103.0.0.0,1440x900,1409x707,NA,ITT Ratings,3,against,8,NA,NA,NA,NA,NA,NA,ACCEPT,NA,NA,NA,batch8hes,batch8hes,22,21,1,Screen 1,continueButton,response_rating_scale_likert_active,1831.2,NA,NA,Strongly Agree,1,0,1,0,NA,NA,NA,NA,1,statements,I'm worried it will make me ill,1,17/05/2021 12:14,17/05/2021 12:45,1854,Most weeks,Most days,38,Female,-99,"Vocational Training / Apprenticeship,A levels",74,1,Against,Against
17,1658860000000,26/07/2022 18:14,1658860000000,1,26/07/2022 19:14,93981,5,task-net4,NA,23317828,6842817,NA,complete,NA,62e02e519ac60fe92ca5b744,computer,Desktop or Laptop,Mac OS 10.15.7,Chrome 103.0.0.0,1440x900,1409x707,NA,ITT Ratings,3,against,8,NA,NA,NA,NA,NA,NA,ACCEPT,NA,NA,NA,batch8hes,batch8hes,8,15,1,Screen 1,continueButton,response_rating_scale_likert_active,4411.4,NA,NA,Strongly Disagree,1,0,1,0,NA,NA,NA,NA,1,statements,"If you don't get a vaccination, you are being selfish on the rest of the nation. Vaccinations are the only way to get out of lockdown and save our economy.",1,17/05/2021 12:20,17/05/2021 12:39,1161,Rarely,A few times a year,35,Female,-99,"Undergraduate degree (BSc, BA)",71,2,Against,For
53,1658860000000,26/07/2022 18:16,1658860000000,1,26/07/2022 19:16,93981,5,task-net4,NA,23317828,6842817,NA,complete,NA,62e02e519ac60fe92ca5b744,computer,Desktop or Laptop,Mac OS 10.15.7,Chrome 103.0.0.0,1440x900,1409x707,NA,ITT Ratings,3,against,8,NA,NA,NA,NA,NA,NA,ACCEPT,NA,NA,NA,batch8hes,batch8hes,44,51,1,Screen 1,continueButton,response_rating_scale_likert_active,3637.7,NA,NA,Disagree,1,0,1,0,NA,NA,NA,NA,1,statements,it could stop me ending up in hospital,1,17/05/2021 12:43,17/05/2021 12:54,646,Rarely,Never,58,Female,-99,GCSEs,77,2,Against,For
19,1658860000000,26/07/2022 18:14,1658860000000,1,26/07/2022 19:14,93981,5,task-net4,NA,23317828,6842817,NA,complete,NA,62e02e519ac60fe92ca5b744,computer,Desktop or Laptop,Mac OS 10.15.7,Chrome 103.0.0.0,1440x900,1409x707,NA,ITT Ratings,3,against,8,NA,NA,NA,NA,NA,NA,ACCEPT,NA,NA,NA,batch8hes,batch8hes,13,17,1,Screen 1,continueButton,response_rating_scale_likert_active,4535.1,NA,NA,Disagree,1,0,1,0,NA,NA,NA,NA,1,statements,It has been tested and approved by state medical regulators.,1,17/05/2021 12:04,17/05/2021 12:41,2201,Most weeks,Rarely,22,Male,-99,"Undergraduate degree (BSc, BA)",72,1,Against,For
27,1658860000000,26/07/2022 18:14,1658860000000,1,26/07/2022 19:14,93981,5,task-net4,NA,23317828,6842817,NA,complete,NA,62e02e519ac60fe92ca5b744,computer,Desktop or Laptop,Mac OS 10.15.7,Chrome 103.0.0.0,1440x900,1409x707,NA,ITT Ratings,3,against,8,NA,NA,NA,NA,NA,NA,ACCEPT,NA,NA,NA,batch8hes,batch8hes,27,25,1,Screen 1,continueButton,response_rating_scale_likert_active,4029.6,NA,NA,Somewhat Agree,1,0,1,0,NA,NA,NA,NA,1,statements,It will allow me to move more freely,1,17/05/2021 12:14,17/05/2021 12:45,1854,Most weeks,Most days,38,Female,-99,"Vocational Training / Apprenticeship,A levels",74,3,Against,For
55,1658860000000,26/07/2022 18:17,1658860000000,1,26/07/2022 19:17,93981,5,task-net4,NA,23317828,6842817,NA,complete,NA,62e02e519ac60fe92ca5b744,computer,Desktop or Laptop,Mac OS 10.15.7,Chrome 103.0.0.0,1440x900,1409x707,NA,ITT Ratings,3,against,8,NA,NA,NA,NA,NA,NA,ACCEPT,NA,NA,NA,batch8hes,batch8hes,26,53,1,Screen 1,continueButton,response_rating_scale_likert_active,3815.1,NA,NA,Disagree,1,0,1,0,NA,NA,NA,NA,1,statements,It will protect the vulnerable groups,1,17/05/2021 12:14,17/05/2021 12:45,1854,Most weeks,Most days,38,Female,-99,"Vocational Training / Apprenticeship,A levels",74,2,Against,For
21,1658860000000,26/07/2022 18:14,1658860000000,1,26/07/2022 19:14,93981,5,task-net4,NA,23317828,6842817,NA,complete,NA,62e02e519ac60fe92ca5b744,computer,Desktop or Laptop,Mac OS 10.15.7,Chrome 103.0.0.0,1440x900,1409x707,NA,ITT Ratings,3,against,8,NA,NA,NA,NA,NA,NA,ACCEPT,NA,NA,NA,batch8hes,batch8hes,41,19,1,Screen 1,continueButton,response_rating_scale_likert_active,2761.1,NA,NA,Strongly Agree,1,0,1,0,NA,NA,NA,NA,1,statements,it wont stop me getting covid,1,17/05/2021 12:43,17/05/2021 12:54,646,Rarely,Never,58,Female,-99,GCSEs,77,2,Against,Against
30,1658860000000,26/07/2022 18:15,1658860000000,1,26/07/2022 19:15,93981,5,task-net4,NA,23317828,6842817,NA,complete,NA,62e02e519ac60fe92ca5b744,computer,Desktop or Laptop,Mac OS 10.15.7,Chrome 103.0.0.0,1440x900,1409x707,NA,ITT Ratings,3,against,8,NA,NA,NA,NA,NA,NA,ACCEPT,NA,NA,NA,batch8hes,batch8hes,53,28,1,Screen 1,continueButton,response_rating_scale_likert_active,7044,NA,NA,Strongly Disagree,1,0,1,0,NA,NA,NA,NA,1,statements,IT wont stop me getting it anyway,1,17/05/2021 12:41,17/05/2021 12:54,805,Most weeks,Most weeks,55,Female,-99,A levels,79,2,Against,Against
42,1658860000000,26/07/2022 18:15,1658860000000,1,26/07/2022 19:15,93981,5,task-net4,NA,23317828,6842817,NA,complete,NA,62e02e519ac60fe92ca5b744,computer,Desktop or Laptop,Mac OS 10.15.7,Chrome 103.0.0.0,1440x900,1409x707,NA,ITT Ratings,3,against,8,NA,NA,NA,NA,NA,NA,ACCEPT,NA,NA,NA,batch8hes,batch8hes,54,40,1,Screen 1,continueButton,response_rating_scale_likert_active,3486.8,NA,NA,Strongly Agree,1,0,1,0,NA,NA,NA,NA,1,statements,it wont stop me passing it on,1,17/05/2021 12:41,17/05/2021 12:54,805,Most weeks,Most weeks,55,Female,-99,A levels,79,3,Against,Against
35,1658860000000,26/07/2022 18:15,1658860000000,1,26/07/2022 19:15,93981,5,task-net4,NA,23317828,6842817,NA,complete,NA,62e02e519ac60fe92ca5b744,computer,Desktop or Laptop,Mac OS 10.15.7,Chrome 103.0.0.0,1440x900,1409x707,NA,ITT Ratings,3,against,8,NA,NA,NA,NA,NA,NA,ACCEPT,NA,NA,NA,batch8hes,batch8hes,42,33,1,Screen 1,continueButton,response_rating_scale_likert_active,1627.1,NA,NA,Strongly Agree,1,0,1,0,NA,NA,NA,NA,1,statements,its not been tested enough,1,17/05/2021 12:43,17/05/2021 12:54,646,Rarely,Never,58,Female,-99,GCSEs,77,3,Against,Against
63,1658860000000,26/07/2022 18:17,1658860000000,1,26/07/2022 19:17,93981,5,task-net4,NA,23317828,6842817,NA,complete,NA,62e02e519ac60fe92ca5b744,computer,Desktop or Laptop,Mac OS 10.15.7,Chrome 103.0.0.0,1440x900,1409x707,NA,ITT Ratings,3,against,8,NA,NA,NA,NA,NA,NA,ACCEPT,NA,NA,NA,batch8hes,batch8hes,29,61,1,Screen 1,continueButton,response_rating_scale_likert_active,3060.7,NA,NA,Agree,1,0,1,0,NA,NA,NA,NA,1,statements,My Children do not want me to have it,1,17/05/2021 12:22,17/05/2021 12:47,1508,A few times a year,Never,54,Female,-99,Vocational Training / Apprenticeship,75,2,Against,Against
2,1658860000000,26/07/2022 18:12,1658860000000,1,26/07/2022 19:12,93981,5,task-net4,NA,23317828,6842817,NA,complete,NA,62e02e519ac60fe92ca5b744,computer,Desktop or Laptop,Mac OS 10.15.7,Chrome 103.0.0.0,1440x900,1409x707,NA,ITT Ratings,3,against,8,NA,NA,NA,NA,NA,NA,ACCEPT,NA,NA,NA,batch8hes,batch8hes,1,1,1,Screen 1,advancementZone,continue_button,8692.3,NA,NA,NA,NA,0,1,0,NA,NA,NA,NA,NA,instructions,NA,NA,NA,NA,NA,NA,NA,NA,NA,NA,NA,NA,NA,NA,NA
9,1658860000000,26/07/2022 18:13,1658860000000,1,26/07/2022 19:13,93981,5,task-net4,NA,23317828,6842817,NA,complete,NA,62e02e519ac60fe92ca5b744,computer,Desktop or Laptop,Mac OS 10.15.7,Chrome 103.0.0.0,1440x900,1409x707,NA,ITT Ratings,3,against,8,NA,NA,NA,NA,NA,NA,ACCEPT,NA,NA,NA,batch8hes,batch8hes,37,7,1,Screen 1,continueButton,response_rating_scale_likert_active,3645.4,NA,NA,Strongly Disagree,1,0,1,0,NA,NA,NA,NA,1,statements,Need to clear the virus.,1,17/05/2021 12:38,17/05/2021 12:53,872,Rarely,Never,23,Female,-99,A levels,76,1,Against,For
31,1658860000000,26/07/2022 18:15,1658860000000,1,26/07/2022 19:15,93981,5,task-net4,NA,23317828,6842817,NA,complete,NA,62e02e519ac60fe92ca5b744,computer,Desktop or Laptop,Mac OS 10.15.7,Chrome 103.0.0.0,1440x900,1409x707,NA,ITT Ratings,3,against,8,NA,NA,NA,NA,NA,NA,ACCEPT,NA,NA,NA,batch8hes,batch8hes,35,29,1,Screen 1,continueButton,response_rating_scale_likert_active,3839.1,NA,NA,Strongly Agree,1,0,1,0,NA,NA,NA,NA,1,statements,Not enough time put into the research and development.,1,17/05/2021 12:38,17/05/2021 12:53,872,Rarely,Never,23,Female,-99,A levels,76,2,Against,Against
64,1658860000000,26/07/2022 18:18,1658860000000,1,26/07/2022 19:18,93981,5,task-net4,NA,23317828,6842817,NA,complete,NA,62e02e519ac60fe92ca5b744,computer,Desktop or Laptop,Mac OS 10.15.7,Chrome 103.0.0.0,1440x900,1409x707,NA,ITT Ratings,3,against,8,NA,NA,NA,NA,NA,NA,ACCEPT,NA,NA,NA,batch8hes,batch8hes,6,62,1,Screen 1,continueButton,response_rating_scale_likert_active,16272.1,NA,NA,Strongly Agree,1,0,1,0,NA,NA,NA,NA,1,statements,Other trials such as that for thalidomide that were rushed provide an example of why i should be hesitant to get a jab so soon,1,17/05/2021 12:20,17/05/2021 12:39,1161,Rarely,A few times a year,35,Female,-99,"Undergraduate degree (BSc, BA)",71,3,Against,Against
44,1658860000000,26/07/2022 18:16,1658860000000,1,26/07/2022 19:16,93981,5,task-net4,NA,23317828,6842817,NA,complete,NA,62e02e519ac60fe92ca5b744,computer,Desktop or Laptop,Mac OS 10.15.7,Chrome 103.0.0.0,1440x900,1409x707,NA,ITT Ratings,3,against,8,NA,NA,NA,NA,NA,NA,ACCEPT,NA,NA,NA,batch8hes,batch8hes,18,42,1,Screen 1,continueButton,response_rating_scale_likert_active,1358.3,NA,NA,Strongly Agree,1,0,1,0,NA,NA,NA,NA,1,statements,people have died after having the vaccine,1,17/05/2021 12:24,17/05/2021 12:44,1203,A few times a year,Rarely,28,Female,-99,A levels,73,3,Against,Against
58,1658860000000,26/07/2022 18:17,1658860000000,1,26/07/2022 19:17,93981,5,task-net4,NA,23317828,6842817,NA,complete,NA,62e02e519ac60fe92ca5b744,computer,Desktop or Laptop,Mac OS 10.15.7,Chrome 103.0.0.0,1440x900,1409x707,NA,ITT Ratings,3,against,8,NA,NA,NA,NA,NA,NA,ACCEPT,NA,NA,NA,batch8hes,batch8hes,59,56,1,Screen 1,continueButton,response_rating_scale_likert_active,4682.3,NA,NA,Agree,1,0,1,0,NA,NA,NA,NA,1,statements,pharmaceutical companies and government want to get rich and control us,1,##########,##########,1258,Most weeks,Most weeks,37,Female,-99,"Undergraduate degree (BSc, BA)",80,2,Against,Against
38,1658860000000,26/07/2022 18:15,1658860000000,1,26/07/2022 19:15,93981,5,task-net4,NA,23317828,6842817,NA,complete,NA,62e02e519ac60fe92ca5b744,computer,Desktop or Laptop,Mac OS 10.15.7,Chrome 103.0.0.0,1440x900,1409x707,NA,ITT Ratings,3,against,8,NA,NA,NA,NA,NA,NA,ACCEPT,NA,NA,NA,batch8hes,batch8hes,34,36,1,Screen 1,continueButton,response_rating_scale_likert_active,2294,NA,NA,Strongly Agree,1,0,1,0,NA,NA,NA,NA,1,statements,Questions on infertility.,1,17/05/2021 12:38,17/05/2021 12:53,872,Rarely,Never,23,Female,-99,A levels,76,1,Against,Against
22,1658860000000,26/07/2022 18:14,1658860000000,1,26/07/2022 19:14,93981,5,task-net4,NA,23317828,6842817,NA,complete,NA,62e02e519ac60fe92ca5b744,computer,Desktop or Laptop,Mac OS 10.15.7,Chrome 103.0.0.0,1440x900,1409x707,NA,ITT Ratings,3,against,8,NA,NA,NA,NA,NA,NA,ACCEPT,NA,NA,NA,batch8hes,batch8hes,39,20,1,Screen 1,continueButton,response_rating_scale_likert_active,2319.1,NA,NA,Strongly Agree,1,0,1,0,NA,NA,NA,NA,1,statements,Risk of getting virus is low.,1,17/05/2021 12:38,17/05/2021 12:53,872,Rarely,Never,23,Female,-99,A levels,76,3,Against,For
26,1658860000000,26/07/2022 18:14,1658860000000,1,26/07/2022 19:14,93981,5,task-net4,NA,23317828,6842817,NA,complete,NA,62e02e519ac60fe92ca5b744,computer,Desktop or Laptop,Mac OS 10.15.7,Chrome 103.0.0.0,1440x900,1409x707,NA,ITT Ratings,3,against,8,NA,NA,NA,NA,NA,NA,ACCEPT,NA,NA,NA,batch8hes,batch8hes,50,24,1,Screen 1,continueButton,response_rating_scale_likert_active,5094.6,NA,NA,Somewhat Agree,1,0,1,0,NA,NA,NA,NA,1,statements,the are a carer or around elderly people,1,17/05/2021 12:39,17/05/2021 12:54,901,Most months,Rarely,46,Female,-99,Vocational Training / Apprenticeship,78,2,Against,For
14,1658860000000,26/07/2022 18:13,1658860000000,1,26/07/2022 19:13,93981,5,task-net4,NA,23317828,6842817,NA,complete,NA,62e02e519ac60fe92ca5b744,computer,Desktop or Laptop,Mac OS 10.15.7,Chrome 103.0.0.0,1440x900,1409x707,NA,ITT Ratings,3,against,8,NA,NA,NA,NA,NA,NA,ACCEPT,NA,NA,NA,batch8hes,batch8hes,10,12,1,Screen 1,continueButton,response_rating_scale_likert_active,8259.8,NA,NA,Strongly Agree,1,0,1,0,NA,NA,NA,NA,1,statements,"The vaccine received emergency approval, and consequently there is limited long-term data available.",1,17/05/2021 12:04,17/05/2021 12:41,2201,Most weeks,Rarely,22,Male,-99,"Undergraduate degree (BSc, BA)",72,1,Against,Against
12,1658860000000,26/07/2022 18:13,1658860000000,1,26/07/2022 19:13,93981,5,task-net4,NA,23317828,6842817,NA,complete,NA,62e02e519ac60fe92ca5b744,computer,Desktop or Laptop,Mac OS 10.15.7,Chrome 103.0.0.0,1440x900,1409x707,NA,ITT Ratings,3,against,8,NA,NA,NA,NA,NA,NA,ACCEPT,NA,NA,NA,batch8hes,batch8hes,61,10,1,Screen 1,continueButton,response_rating_scale_likert_active,3024.6,NA,NA,Strongly Disagree,1,0,1,0,NA,NA,NA,NA,1,statements,the vaccine will help protect the entire population of the planet,1,##########,##########,1258,Most weeks,Most weeks,37,Female,-99,"Undergraduate degree (BSc, BA)",80,1,Against,For
39,1658860000000,26/07/2022 18:15,1658860000000,1,26/07/2022 19:15,93981,5,task-net4,NA,23317828,6842817,NA,complete,NA,62e02e519ac60fe92ca5b744,computer,Desktop or Laptop,Mac OS 10.15.7,Chrome 103.0.0.0,1440x900,1409x707,NA,ITT Ratings,3,against,8,NA,NA,NA,NA,NA,NA,ACCEPT,NA,NA,NA,batch8hes,batch8hes,11,37,1,Screen 1,continueButton,response_rating_scale_likert_active,15272.1,NA,NA,Somewhat Agree,1,0,1,0,NA,NA,NA,NA,1,statements,"The vaccines that use mRNA and involve genetically modified primates are a new technique, compared to vaccines that use weakened or deactivated pathogens.",1,17/05/2021 12:04,17/05/2021 12:41,2201,Most weeks,Rarely,22,Male,-99,"Undergraduate degree (BSc, BA)",72,2,Against,Against
18,1658860000000,26/07/2022 18:14,1658860000000,1,26/07/2022 19:14,93981,5,task-net4,NA,23317828,6842817,NA,complete,NA,62e02e519ac60fe92ca5b744,computer,Desktop or Laptop,Mac OS 10.15.7,Chrome 103.0.0.0,1440x900,1409x707,NA,ITT Ratings,3,against,8,NA,NA,NA,NA,NA,NA,ACCEPT,NA,NA,NA,batch8hes,batch8hes,60,16,1,Screen 1,continueButton,response_rating_scale_likert_active,4323.3,NA,NA,Strongly Agree,1,0,1,0,NA,NA,NA,NA,1,statements,the virus mutates and existing vaccines are not effective,1,##########,##########,1258,Most weeks,Most weeks,37,Female,-99,"Undergraduate degree (BSc, BA)",80,3,Against,Against
28,1658860000000,26/07/2022 18:14,1658860000000,1,26/07/2022 19:14,93981,5,task-net4,NA,23317828,6842817,NA,complete,NA,62e02e519ac60fe92ca5b744,computer,Desktop or Laptop,Mac OS 10.15.7,Chrome 103.0.0.0,1440x900,1409x707,NA,ITT Ratings,3,against,8,NA,NA,NA,NA,NA,NA,ACCEPT,NA,NA,NA,batch8hes,batch8hes,7,26,1,Screen 1,continueButton,response_rating_scale_likert_active,4966.5,NA,NA,Disagree,1,0,1,0,NA,NA,NA,NA,1,statements,"There have not been many particularly negative side effects reported yet, therefor its absolutely safe.",1,17/05/2021 12:20,17/05/2021 12:39,1161,Rarely,A few times a year,35,Female,-99,"Undergraduate degree (BSc, BA)",71,1,Against,For
3,1658860000000,26/07/2022 18:12,1658860000000,1,26/07/2022 19:12,93981,5,task-net4,NA,23317828,6842817,NA,complete,NA,62e02e519ac60fe92ca5b744,computer,Desktop or Laptop,Mac OS 10.15.7,Chrome 103.0.0.0,1440x900,1409x707,NA,ITT Ratings,3,against,8,NA,NA,NA,NA,NA,NA,ACCEPT,NA,NA,NA,batch8hes,batch8hes,14,1,1,Screen 1,continueButton,response_rating_scale_likert_active,8797.2,NA,NA,Disagree,1,0,1,0,NA,NA,NA,NA,1,statements,There haven't been widespread visible side effects several months after the introduction of the vaccines.,1,17/05/2021 12:04,17/05/2021 12:41,2201,Most weeks,Rarely,22,Male,-99,"Undergraduate degree (BSc, BA)",72,2,Against,For
20,1658860000000,26/07/2022 18:14,1658860000000,1,26/07/2022 19:14,93981,5,task-net4,NA,23317828,6842817,NA,complete,NA,62e02e519ac60fe92ca5b744,computer,Desktop or Laptop,Mac OS 10.15.7,Chrome 103.0.0.0,1440x900,1409x707,NA,ITT Ratings,3,against,8,NA,NA,NA,NA,NA,NA,ACCEPT,NA,NA,NA,batch8hes,batch8hes,52,18,1,Screen 1,continueButton,response_rating_scale_likert_active,3991.1,NA,NA,Somewhat Agree,1,0,1,0,NA,NA,NA,NA,1,statements,There is history of thrombosis in my family,1,17/05/2021 12:41,17/05/2021 12:54,805,Most weeks,Most weeks,55,Female,-99,A levels,79,1,Against,Against
24,1658860000000,26/07/2022 18:14,1658860000000,1,26/07/2022 19:14,93981,5,task-net4,NA,23317828,6842817,NA,complete,NA,62e02e519ac60fe92ca5b744,computer,Desktop or Laptop,Mac OS 10.15.7,Chrome 103.0.0.0,1440x900,1409x707,NA,ITT Ratings,3,against,8,NA,NA,NA,NA,NA,NA,ACCEPT,NA,NA,NA,batch8hes,batch8hes,58,22,1,Screen 1,continueButton,response_rating_scale_likert_active,2623.7,NA,NA,Strongly Agree,1,0,1,0,NA,NA,NA,NA,1,statements,vaccine is not safe (a lot of deaths or strong reactions on astrazaneca or pfiser),1,##########,##########,1258,Most weeks,Most weeks,37,Female,-99,"Undergraduate degree (BSc, BA)",80,1,Against,Against
51,1658860000000,26/07/2022 18:16,1658860000000,1,26/07/2022 19:16,93981,5,task-net4,NA,23317828,6842817,NA,complete,NA,62e02e519ac60fe92ca5b744,computer,Desktop or Laptop,Mac OS 10.15.7,Chrome 103.0.0.0,1440x900,1409x707,NA,ITT Ratings,3,against,8,NA,NA,NA,NA,NA,NA,ACCEPT,NA,NA,NA,batch8hes,batch8hes,62,49,1,Screen 1,continueButton,response_rating_scale_likert_active,2780,NA,NA,Strongly Disagree,1,0,1,0,NA,NA,NA,NA,1,statements,vaccines were tested and safe,1,##########,##########,1258,Most weeks,Most weeks,37,Female,-99,"Undergraduate degree (BSc, BA)",80,2,Against,For
5,1658860000000,26/07/2022 18:12,1658860000000,1,26/07/2022 19:12,93981,5,task-net4,NA,23317828,6842817,NA,complete,NA,62e02e519ac60fe92ca5b744,computer,Desktop or Laptop,Mac OS 10.15.7,Chrome 103.0.0.0,1440x900,1409x707,NA,ITT Ratings,3,against,8,NA,NA,NA,NA,NA,NA,ACCEPT,NA,NA,NA,batch8hes,batch8hes,2,3,1,Screen 1,continueButton,response_rating_scale_likert_active,4403.3,NA,NA,Somewhat Agree,1,0,1,0,NA,NA,NA,NA,1,statements,We would like to check you are reading each argument carefully. Please select 'Somewhat Agree' for this answer,1,NA,NA,NA,NA,NA,NA,NA,NA,NA,NA,check1,NA,NA
59,1658860000000,26/07/2022 18:17,1658860000000,1,26/07/2022 19:17,93981,5,task-net4,NA,23317828,6842817,NA,complete,NA,62e02e519ac60fe92ca5b744,computer,Desktop or Laptop,Mac OS 10.15.7,Chrome 103.0.0.0,1440x900,1409x707,NA,ITT Ratings,3,against,8,NA,NA,NA,NA,NA,NA,ACCEPT,NA,NA,NA,batch8hes,batch8hes,3,57,1,Screen 1,continueButton,response_rating_scale_likert_active,2963.9,NA,NA,Somewhat Disagree,1,0,1,0,NA,NA,NA,NA,1,statements,We would like to check you are reading each argument carefully. Please select 'Somewhat Disagree' for this answer,1,NA,NA,NA,NA,NA,NA,NA,NA,NA,NA,check2,NA,NA
1,1658860000000,26/07/2022 18:12,1658860000000,1,26/07/2022 19:12,93981,5,task-net4,NA,23317828,6842817,NA,complete,NA,62e02e519ac60fe92ca5b744,computer,Desktop or Laptop,Mac OS 10.15.7,Chrome 103.0.0.0,1440x900,1409x707,NA,ITT Ratings,3,against,8,NA,NA,NA,NA,NA,NA,ACCEPT,NA,NA,NA,batch8hes,NA,NA,BEGIN TASK,NA,NA,NA,NA,NA,NA,NA,NA,NA,0,1,0,NA,NA,NA,NA,NA,NA,NA,NA,NA,NA,NA,NA,NA,NA,NA,NA,NA,NA,NA,NA,NA
65,1658860000000,26/07/2022 18:18,1658860000000,1,26/07/2022 19:18,93981,5,task-net4,NA,23317828,6842817,NA,complete,NA,62e02e519ac60fe92ca5b744,computer,Desktop or Laptop,Mac OS 10.15.7,Chrome 103.0.0.0,1440x900,1409x707,NA,ITT Ratings,3,against,8,NA,NA,NA,NA,NA,NA,ACCEPT,NA,NA,NA,batch8hes,NA,NA,END TASK,NA,NA,NA,NA,346364,NA,NA,NA,NA,0,1,0,NA,NA,NA,NA,NA,NA,NA,NA,NA,NA,NA,NA,NA,NA,NA,NA,NA,NA,NA,NA,NA
57,1658860000000,26/07/2022 18:16,1658860000000,1,26/07/2022 19:16,93981,5,task-net4,NA,23317843,6842823,NA,complete,NA,62e02e77435178f124a5b76f,tablet,Apple iPad,iOS 15.5,Chrome 103.0.5060.63,834x1194,1194x715,NA,ITT Ratings,3,against,8,NA,NA,NA,NA,NA,NA,ACCEPT,NA,NA,NA,batch8hes,batch8hes,38,55,1,Screen 1,continueButton,response_rating_scale_likert_active,1482,NA,NA,Strongly Disagree,1,0,1,0,NA,NA,NA,NA,1,statements,Ability to travel in the future.,1,17/05/2021 12:38,17/05/2021 12:53,872,Rarely,Never,23,Female,-99,A levels,76,2,Against,For
42,1658860000000,26/07/2022 18:15,1658860000000,1,26/07/2022 19:15,93981,5,task-net4,NA,23317843,6842823,NA,complete,NA,62e02e77435178f124a5b76f,tablet,Apple iPad,iOS 15.5,Chrome 103.0.5060.63,834x1194,1194x715,NA,ITT Ratings,3,against,8,NA,NA,NA,NA,NA,NA,ACCEPT,NA,NA,NA,batch8hes,batch8hes,4,40,1,Screen 1,continueButton,response_rating_scale_likert_active,9637,NA,NA,Neither Agree nor Disagree,1,0,1,0,NA,NA,NA,NA,1,statements,"Aby possible long term effects are still not apparent, those trialling the vaccine are monitored for 2 years to keep an eye out for anything untoward occurring.",1,17/05/2021 12:20,17/05/2021 12:39,1161,Rarely,A few times a year,35,Female,-99,"Undergraduate degree (BSc, BA)",71,1,Against,Against
56,1658860000000,26/07/2022 18:16,1658860000000,1,26/07/2022 19:16,93981,5,task-net4,NA,23317843,6842823,NA,complete,NA,62e02e77435178f124a5b76f,tablet,Apple iPad,iOS 15.5,Chrome 103.0.5060.63,834x1194,1194x715,NA,ITT Ratings,3,against,8,NA,NA,NA,NA,NA,NA,ACCEPT,NA,NA,NA,batch8hes,batch8hes,46,54,1,Screen 1,continueButton,response_rating_scale_likert_active,2033,NA,NA,Strongly Disagree,1,0,1,0,NA,NA,NA,NA,1,statements,Because I have an autoimmune disease and cant have it,1,17/05/2021 12:39,17/05/2021 12:54,901,Most months,Rarely,46,Female,-99,Vocational Training / Apprenticeship,78,1,Against,Against
32,1658860000000,26/07/2022 18:14,1658860000000,1,26/07/2022 19:14,93981,5,task-net4,NA,23317843,6842823,NA,complete,NA,62e02e77435178f124a5b76f,tablet,Apple iPad,iOS 15.5,Chrome 103.0.5060.63,834x1194,1194x715,NA,ITT Ratings,3,against,8,NA,NA,NA,NA,NA,NA,ACCEPT,NA,NA,NA,batch8hes,batch8hes,63,30,1,Screen 1,continueButton,response_rating_scale_likert_active,5994,NA,NA,Somewhat Disagree,1,0,1,0,NA,NA,NA,NA,1,statements,consequences after covid19 are more serious than side effects after vaccine,1,##########,##########,1258,Most weeks,Most weeks,37,Female,-99,"Undergraduate degree (BSc, BA)",80,3,Against,For
3,1658860000000,26/07/2022 18:12,1658860000000,1,26/07/2022 19:12,93981,5,task-net4,NA,23317843,6842823,NA,complete,NA,62e02e77435178f124a5b76f,tablet,Apple iPad,iOS 15.5,Chrome 103.0.5060.63,834x1194,1194x715,NA,ITT Ratings,3,against,8,NA,NA,NA,NA,NA,NA,ACCEPT,NA,NA,NA,batch8hes,batch8hes,12,1,1,Screen 1,continueButton,response_rating_scale_likert_active,5570,NA,NA,Strongly Agree,1,0,1,0,NA,NA,NA,NA,1,statements,"COVID-19 has an extraordinarily low mortality rate in healthy young people, so it is not worth taking the vaccine unless one is elderly or has conditions such as an autoimmune disease.",1,17/05/2021 12:04,17/05/2021 12:41,2201,Most weeks,Rarely,22,Male,-99,"Undergraduate degree (BSc, BA)",72,3,Against,Against
59,1658860000000,26/07/2022 18:16,1658860000000,1,26/07/2022 19:16,93981,5,task-net4,NA,23317843,6842823,NA,complete,NA,62e02e77435178f124a5b76f,tablet,Apple iPad,iOS 15.5,Chrome 103.0.5060.63,834x1194,1194x715,NA,ITT Ratings,3,against,8,NA,NA,NA,NA,NA,NA,ACCEPT,NA,NA,NA,batch8hes,batch8hes,36,57,1,Screen 1,continueButton,response_rating_scale_likert_active,3693,NA,NA,Agree,1,0,1,0,NA,NA,NA,NA,1,statements,Enough evidence it even works?,1,17/05/2021 12:38,17/05/2021 12:53,872,Rarely,Never,23,Female,-99,A levels,76,3,Against,Against
53,1658860000000,26/07/2022 18:16,1658860000000,1,26/07/2022 19:16,93981,5,task-net4,NA,23317843,6842823,NA,complete,NA,62e02e77435178f124a5b76f,tablet,Apple iPad,iOS 15.5,Chrome 103.0.5060.63,834x1194,1194x715,NA,ITT Ratings,3,against,8,NA,NA,NA,NA,NA,NA,ACCEPT,NA,NA,NA,batch8hes,batch8hes,15,51,1,Screen 1,continueButton,response_rating_scale_likert_active,3802,NA,NA,Strongly Disagree,1,0,1,0,NA,NA,NA,NA,1,statements,"Even if one is not vulnerable to the virus, getting vaccinated will reduce community transmission and therefore protect those who are.",1,17/05/2021 12:04,17/05/2021 12:41,2201,Most weeks,Rarely,22,Male,-99,"Undergraduate degree (BSc, BA)",72,3,Against,For
51,1658860000000,26/07/2022 18:15,1658860000000,1,26/07/2022 19:15,93981,5,task-net4,NA,23317843,6842823,NA,complete,NA,62e02e77435178f124a5b76f,tablet,Apple iPad,iOS 15.5,Chrome 103.0.5060.63,834x1194,1194x715,NA,ITT Ratings,3,against,8,NA,NA,NA,NA,NA,NA,ACCEPT,NA,NA,NA,batch8hes,batch8hes,31,49,1,Screen 1,continueButton,response_rating_scale_likert_active,4256,NA,NA,Strongly Disagree,1,0,1,0,NA,NA,NA,NA,1,statements,"I  want it if it stops me getting covid then ill have it, I can't see my relative in a nursing home",1,17/05/2021 12:22,17/05/2021 12:47,1508,A few times a year,Never,54,Female,-99,Vocational Training / Apprenticeship,75,1,Against,For
37,1658860000000,26/07/2022 18:15,1658860000000,1,26/07/2022 19:15,93981,5,task-net4,NA,23317843,6842823,NA,complete,NA,62e02e77435178f124a5b76f,tablet,Apple iPad,iOS 15.5,Chrome 103.0.5060.63,834x1194,1194x715,NA,ITT Ratings,3,against,8,NA,NA,NA,NA,NA,NA,ACCEPT,NA,NA,NA,batch8hes,batch8hes,21,35,1,Screen 1,continueButton,response_rating_scale_likert_active,3432,NA,NA,Strongly Disagree,1,0,1,0,NA,NA,NA,NA,1,statements,I am afraid of catching covid and becoming very ill or possibly dying from the virus,1,17/05/2021 12:24,17/05/2021 12:44,1203,A few times a year,Rarely,28,Female,-99,A levels,73,3,Against,For
39,1658860000000,26/07/2022 18:15,1658860000000,1,26/07/2022 19:15,93981,5,task-net4,NA,23317843,6842823,NA,complete,NA,62e02e77435178f124a5b76f,tablet,Apple iPad,iOS 15.5,Chrome 103.0.5060.63,834x1194,1194x715,NA,ITT Ratings,3,against,8,NA,NA,NA,NA,NA,NA,ACCEPT,NA,NA,NA,batch8hes,batch8hes,55,37,1,Screen 1,continueButton,response_rating_scale_likert_active,1798,NA,NA,Strongly Disagree,1,0,1,0,NA,NA,NA,NA,1,statements,I can go back to work,1,17/05/2021 12:41,17/05/2021 12:54,805,Most weeks,Most weeks,55,Female,-99,A levels,79,1,Against,For
61,1658860000000,26/07/2022 18:16,1658860000000,1,26/07/2022 19:16,93981,5,task-net4,NA,23317843,6842823,NA,complete,NA,62e02e77435178f124a5b76f,tablet,Apple iPad,iOS 15.5,Chrome 103.0.5060.63,834x1194,1194x715,NA,ITT Ratings,3,against,8,NA,NA,NA,NA,NA,NA,ACCEPT,NA,NA,NA,batch8hes,batch8hes,5,59,1,Screen 1,continueButton,response_rating_scale_likert_active,3665,NA,NA,Strongly Disagree,1,0,1,0,NA,NA,NA,NA,1,statements,"I can wait as the rest of the population gets one, group immunity will help protect me too.",1,17/05/2021 12:20,17/05/2021 12:39,1161,Rarely,A few times a year,35,Female,-99,"Undergraduate degree (BSc, BA)",71,2,Against,Against
48,1658860000000,26/07/2022 18:15,1658860000000,1,26/07/2022 19:15,93981,5,task-net4,NA,23317843,6842823,NA,complete,NA,62e02e77435178f124a5b76f,tablet,Apple iPad,iOS 15.5,Chrome 103.0.5060.63,834x1194,1194x715,NA,ITT Ratings,3,against,8,NA,NA,NA,NA,NA,NA,ACCEPT,NA,NA,NA,batch8hes,batch8hes,16,46,1,Screen 1,continueButton,response_rating_scale_likert_active,2662,NA,NA,Strongly Agree,1,0,1,0,NA,NA,NA,NA,1,statements,I do not trust the vaccine,1,17/05/2021 12:24,17/05/2021 12:44,1203,A few times a year,Rarely,28,Female,-99,A levels,73,1,Against,Against
44,1658860000000,26/07/2022 18:15,1658860000000,1,26/07/2022 19:15,93981,5,task-net4,NA,23317843,6842823,NA,complete,NA,62e02e77435178f124a5b76f,tablet,Apple iPad,iOS 15.5,Chrome 103.0.5060.63,834x1194,1194x715,NA,ITT Ratings,3,against,8,NA,NA,NA,NA,NA,NA,ACCEPT,NA,NA,NA,batch8hes,batch8hes,24,42,1,Screen 1,continueButton,response_rating_scale_likert_active,2258,NA,NA,Strongly Agree,1,0,1,0,NA,NA,NA,NA,1,statements,I don't like being forced to do something.,1,17/05/2021 12:14,17/05/2021 12:45,1854,Most weeks,Most days,38,Female,-99,"Vocational Training / Apprenticeship,A levels",74,3,Against,Against
38,1658860000000,26/07/2022 18:15,1658860000000,1,26/07/2022 19:15,93981,5,task-net4,NA,23317843,6842823,NA,complete,NA,62e02e77435178f124a5b76f,tablet,Apple iPad,iOS 15.5,Chrome 103.0.5060.63,834x1194,1194x715,NA,ITT Ratings,3,against,8,NA,NA,NA,NA,NA,NA,ACCEPT,NA,NA,NA,batch8hes,batch8hes,23,36,1,Screen 1,continueButton,response_rating_scale_likert_active,3794,NA,NA,Somewhat Disagree,1,0,1,0,NA,NA,NA,NA,1,statements,I don't trust whats in it,1,17/05/2021 12:14,17/05/2021 12:45,1854,Most weeks,Most days,38,Female,-99,"Vocational Training / Apprenticeship,A levels",74,2,Against,Against
34,1658860000000,26/07/2022 18:14,1658860000000,1,26/07/2022 19:14,93981,5,task-net4,NA,23317843,6842823,NA,complete,NA,62e02e77435178f124a5b76f,tablet,Apple iPad,iOS 15.5,Chrome 103.0.5060.63,834x1194,1194x715,NA,ITT Ratings,3,against,8,NA,NA,NA,NA,NA,NA,ACCEPT,NA,NA,NA,batch8hes,batch8hes,17,32,1,Screen 1,continueButton,response_rating_scale_likert_active,5729,NA,NA,Neither Agree nor Disagree,1,0,1,0,NA,NA,NA,NA,1,statements,I dont feel I have had enough time to develop the vaccine,1,17/05/2021 12:24,17/05/2021 12:44,1203,A few times a year,Rarely,28,Female,-99,A levels,73,2,Against,Against
30,1658860000000,26/07/2022 18:14,1658860000000,1,26/07/2022 19:14,93981,5,task-net4,NA,23317843,6842823,NA,complete,NA,62e02e77435178f124a5b76f,tablet,Apple iPad,iOS 15.5,Chrome 103.0.5060.63,834x1194,1194x715,NA,ITT Ratings,3,against,8,NA,NA,NA,NA,NA,NA,ACCEPT,NA,NA,NA,batch8hes,batch8hes,40,28,1,Screen 1,continueButton,response_rating_scale_likert_active,3048,NA,NA,Agree,1,0,1,0,NA,NA,NA,NA,1,statements,i dont want a vaccine as i dont trust it,1,17/05/2021 12:43,17/05/2021 12:54,646,Rarely,Never,58,Female,-99,GCSEs,77,1,Against,Against
5,1658860000000,26/07/2022 18:13,1658860000000,1,26/07/2022 19:13,93981,5,task-net4,NA,23317843,6842823,NA,complete,NA,62e02e77435178f124a5b76f,tablet,Apple iPad,iOS 15.5,Chrome 103.0.5060.63,834x1194,1194x715,NA,ITT Ratings,3,against,8,NA,NA,NA,NA,NA,NA,ACCEPT,NA,NA,NA,batch8hes,batch8hes,56,3,1,Screen 1,continueButton,response_rating_scale_likert_active,2105,NA,NA,Strongly Agree,1,0,1,0,NA,NA,NA,NA,1,statements,I dont want to wear a mask,1,17/05/2021 12:41,17/05/2021 12:54,805,Most weeks,Most weeks,55,Female,-99,A levels,79,2,Against,For
26,1658860000000,26/07/2022 18:14,1658860000000,1,26/07/2022 19:14,93981,5,task-net4,NA,23317843,6842823,NA,complete,NA,62e02e77435178f124a5b76f,tablet,Apple iPad,iOS 15.5,Chrome 103.0.5060.63,834x1194,1194x715,NA,ITT Ratings,3,against,8,NA,NA,NA,NA,NA,NA,ACCEPT,NA,NA,NA,batch8hes,batch8hes,47,24,1,Screen 1,continueButton,response_rating_scale_likert_active,2497,NA,NA,Neither Agree nor Disagree,1,0,1,0,NA,NA,NA,NA,1,statements,I have an allergy to one of the ingredients,1,17/05/2021 12:39,17/05/2021 12:54,901,Most months,Rarely,46,Female,-99,Vocational Training / Apprenticeship,78,2,Against,Against
40,1658860000000,26/07/2022 18:15,1658860000000,1,26/07/2022 19:15,93981,5,task-net4,NA,23317843,6842823,NA,complete,NA,62e02e77435178f124a5b76f,tablet,Apple iPad,iOS 15.5,Chrome 103.0.5060.63,834x1194,1194x715,NA,ITT Ratings,3,against,8,NA,NA,NA,NA,NA,NA,ACCEPT,NA,NA,NA,batch8hes,batch8hes,28,38,1,Screen 1,continueButton,response_rating_scale_likert_active,2874,NA,NA,Somewhat Agree,1,0,1,0,NA,NA,NA,NA,1,statements,I have seen videos of people who have had reactions to the vacine,1,17/05/2021 12:22,17/05/2021 12:47,1508,A few times a year,Never,54,Female,-99,Vocational Training / Apprenticeship,75,1,Against,Against
10,1658860000000,26/07/2022 18:13,1658860000000,1,26/07/2022 19:13,93981,5,task-net4,NA,23317843,6842823,NA,complete,NA,62e02e77435178f124a5b76f,tablet,Apple iPad,iOS 15.5,Chrome 103.0.5060.63,834x1194,1194x715,NA,ITT Ratings,3,against,8,NA,NA,NA,NA,NA,NA,ACCEPT,NA,NA,NA,batch8hes,batch8hes,48,8,1,Screen 1,continueButton,response_rating_scale_likert_active,4280,NA,NA,Disagree,1,0,1,0,NA,NA,NA,NA,1,statements,I just don't want it because I don't agree with it and I have a phobia of needles,1,17/05/2021 12:39,17/05/2021 12:54,901,Most months,Rarely,46,Female,-99,Vocational Training / Apprenticeship,78,3,Against,Against
54,1658860000000,26/07/2022 18:16,1658860000000,1,26/07/2022 19:16,93981,5,task-net4,NA,23317843,6842823,NA,complete,NA,62e02e77435178f124a5b76f,tablet,Apple iPad,iOS 15.5,Chrome 103.0.5060.63,834x1194,1194x715,NA,ITT Ratings,3,against,8,NA,NA,NA,NA,NA,NA,ACCEPT,NA,NA,NA,batch8hes,batch8hes,51,52,1,Screen 1,continueButton,response_rating_scale_likert_active,1676,NA,NA,Strongly Disagree,1,0,1,0,NA,NA,NA,NA,1,statements,I just want to do my bit,1,17/05/2021 12:39,17/05/2021 12:54,901,Most months,Rarely,46,Female,-99,Vocational Training / Apprenticeship,78,3,Against,For
35,1658860000000,26/07/2022 18:15,1658860000000,1,26/07/2022 19:15,93981,5,task-net4,NA,23317843,6842823,NA,complete,NA,62e02e77435178f124a5b76f,tablet,Apple iPad,iOS 15.5,Chrome 103.0.5060.63,834x1194,1194x715,NA,ITT Ratings,3,against,8,NA,NA,NA,NA,NA,NA,ACCEPT,NA,NA,NA,batch8hes,batch8hes,9,33,1,Screen 1,continueButton,response_rating_scale_likert_active,4065,NA,NA,Strongly Disagree,1,0,1,0,NA,NA,NA,NA,1,statements,"I may as well get it or i won't be permitted to travel abroad, the government or even my workplace might also pose other restrictions on me if i'm not vaccinated.",1,17/05/2021 12:20,17/05/2021 12:39,1161,Rarely,A few times a year,35,Female,-99,"Undergraduate degree (BSc, BA)",71,3,Against,For
41,1658860000000,26/07/2022 18:15,1658860000000,1,26/07/2022 19:15,93981,5,task-net4,NA,23317843,6842823,NA,complete,NA,62e02e77435178f124a5b76f,tablet,Apple iPad,iOS 15.5,Chrome 103.0.5060.63,834x1194,1194x715,NA,ITT Ratings,3,against,8,NA,NA,NA,NA,NA,NA,ACCEPT,NA,NA,NA,batch8hes,batch8hes,33,39,1,Screen 1,continueButton,response_rating_scale_likert_active,1999,NA,NA,Strongly Disagree,1,0,1,0,NA,NA,NA,NA,1,statements,"I need it to be able to go into pubs, go on holiday , go.to cinema etc, go to a restaurant",1,17/05/2021 12:22,17/05/2021 12:47,1508,A few times a year,Never,54,Female,-99,Vocational Training / Apprenticeship,75,3,Against,For
55,1658860000000,26/07/2022 18:16,1658860000000,1,26/07/2022 19:16,93981,5,task-net4,NA,23317843,6842823,NA,complete,NA,62e02e77435178f124a5b76f,tablet,Apple iPad,iOS 15.5,Chrome 103.0.5060.63,834x1194,1194x715,NA,ITT Ratings,3,against,8,NA,NA,NA,NA,NA,NA,ACCEPT,NA,NA,NA,batch8hes,batch8hes,32,53,1,Screen 1,continueButton,response_rating_scale_likert_active,2249,NA,NA,Strongly Disagree,1,0,1,0,NA,NA,NA,NA,1,statements,"I need it to work , my company is insisting that we must have it. I don't want to get the sack",1,17/05/2021 12:22,17/05/2021 12:47,1508,A few times a year,Never,54,Female,-99,Vocational Training / Apprenticeship,75,2,Against,For
36,1658860000000,26/07/2022 18:15,1658860000000,1,26/07/2022 19:15,93981,5,task-net4,NA,23317843,6842823,NA,complete,NA,62e02e77435178f124a5b76f,tablet,Apple iPad,iOS 15.5,Chrome 103.0.5060.63,834x1194,1194x715,NA,ITT Ratings,3,against,8,NA,NA,NA,NA,NA,NA,ACCEPT,NA,NA,NA,batch8hes,batch8hes,30,34,1,Screen 1,continueButton,response_rating_scale_likert_active,4617,NA,NA,Strongly Disagree,1,0,1,0,NA,NA,NA,NA,1,statements,I saw a video from a woman doctor/scientist who stated the vacine changes your DNA and destroys your immune system months after you have had it,1,17/05/2021 12:22,17/05/2021 12:47,1508,A few times a year,Never,54,Female,-99,Vocational Training / Apprenticeship,75,3,Against,Against
28,1658860000000,26/07/2022 18:14,1658860000000,1,26/07/2022 19:14,93981,5,task-net4,NA,23317843,6842823,NA,complete,NA,62e02e77435178f124a5b76f,tablet,Apple iPad,iOS 15.5,Chrome 103.0.5060.63,834x1194,1194x715,NA,ITT Ratings,3,against,8,NA,NA,NA,NA,NA,NA,ACCEPT,NA,NA,NA,batch8hes,batch8hes,57,26,1,Screen 1,continueButton,response_rating_scale_likert_active,2792,NA,NA,Strongly Disagree,1,0,1,0,NA,NA,NA,NA,1,statements,I think i will get it if i dont get a vaccination,1,17/05/2021 12:41,17/05/2021 12:54,805,Most weeks,Most weeks,55,Female,-99,A levels,79,3,Against,For
47,1658860000000,26/07/2022 18:15,1658860000000,1,26/07/2022 19:15,93981,5,task-net4,NA,23317843,6842823,NA,complete,NA,62e02e77435178f124a5b76f,tablet,Apple iPad,iOS 15.5,Chrome 103.0.5060.63,834x1194,1194x715,NA,ITT Ratings,3,against,8,NA,NA,NA,NA,NA,NA,ACCEPT,NA,NA,NA,batch8hes,batch8hes,25,45,1,Screen 1,continueButton,response_rating_scale_likert_active,1948,NA,NA,Strongly Disagree,1,0,1,0,NA,NA,NA,NA,1,statements,I think it will protect me from the covid19 virus,1,17/05/2021 12:14,17/05/2021 12:45,1854,Most weeks,Most days,38,Female,-99,"Vocational Training / Apprenticeship,A levels",74,1,Against,For
46,1658860000000,26/07/2022 18:15,1658860000000,1,26/07/2022 19:15,93981,5,task-net4,NA,23317843,6842823,NA,complete,NA,62e02e77435178f124a5b76f,tablet,Apple iPad,iOS 15.5,Chrome 103.0.5060.63,834x1194,1194x715,NA,ITT Ratings,3,against,8,NA,NA,NA,NA,NA,NA,ACCEPT,NA,NA,NA,batch8hes,batch8hes,19,44,1,Screen 1,continueButton,response_rating_scale_likert_active,1431,NA,NA,Strongly Disagree,1,0,1,0,NA,NA,NA,NA,1,statements,I trust the vaccine,1,17/05/2021 12:24,17/05/2021 12:44,1203,A few times a year,Rarely,28,Female,-99,A levels,73,1,Against,For
29,1658860000000,26/07/2022 18:14,1658860000000,1,26/07/2022 19:14,93981,5,task-net4,NA,23317843,6842823,NA,complete,NA,62e02e77435178f124a5b76f,tablet,Apple iPad,iOS 15.5,Chrome 103.0.5060.63,834x1194,1194x715,NA,ITT Ratings,3,against,8,NA,NA,NA,NA,NA,NA,ACCEPT,NA,NA,NA,batch8hes,batch8hes,45,27,1,Screen 1,continueButton,response_rating_scale_likert_active,1993,NA,NA,Strongly Disagree,1,0,1,0,NA,NA,NA,NA,1,statements,i want life back to normal so will take it,1,17/05/2021 12:43,17/05/2021 12:54,646,Rarely,Never,58,Female,-99,GCSEs,77,3,Against,For
14,1658860000000,26/07/2022 18:13,1658860000000,1,26/07/2022 19:13,93981,5,task-net4,NA,23317843,6842823,NA,complete,NA,62e02e77435178f124a5b76f,tablet,Apple iPad,iOS 15.5,Chrome 103.0.5060.63,834x1194,1194x715,NA,ITT Ratings,3,against,8,NA,NA,NA,NA,NA,NA,ACCEPT,NA,NA,NA,batch8hes,batch8hes,49,12,1,Screen 1,continueButton,response_rating_scale_likert_active,2900,NA,NA,Disagree,1,0,1,0,NA,NA,NA,NA,1,statements,I want to be able to go out to places where I need a vaccine password,1,17/05/2021 12:39,17/05/2021 12:54,901,Most months,Rarely,46,Female,-99,Vocational Training / Apprenticeship,78,1,Against,For
