Event.Index,UTC.Timestamp,UTC.Date,Local.Timestamp,Local.Timezone,Local.Date,Experiment.ID,Experiment.Version,Tree.Node.Key,Repeat.Key,Schedule.ID,Participant.Private.ID,Participant.Starting.Group,Participant.Status,Participant.Completion.Code,Participant.External.Session.ID,Participant.Device.Type,Participant.Device,Participant.OS,Participant.Browser,Participant.Monitor.Size,Participant.Viewport.Size,Checkpoint,Task.Name,Task.Version,branch.69an,randomiser.8vg2,quota.bqtt,quota.rycs,quota.wtfi,quota.usve,quota.zgic,quota.f3yz,quota.r9vy,quota.tfqq,quota.3dga,quota.dtj6,Spreadsheet,Spreadsheet.Name,Spreadsheet.Row,Trial.Number,Screen.Number,Screen.Name,Zone.Name,Zone.Type,Reaction.Time,Reaction.Onset,Response.Type,Response,Attempt,Correct,Incorrect,Dishonest,X.Coordinate,Y.Coordinate,Timed.Out,randomise_blocks,randomise_trials,display,Arguments,ShowProgressBar,StartDate,EndDate,Duration,discuss_1,read_1,age,gender,gender_4_TEXT,edu,ID,arg_ID,Position,Arg_Position
1,1658857851010,26/07/2022 17:50:51,1658857850820,1,26/07/2022 18:50:50,93981,5,task-an6x,NA,23317299,6842664,NA,complete,NA,62e0290f0c684fdd45ba3692,mobile,Apple iPhone,iOS 15.5,Mobile Safari 15.5,414x896,800x331,NA,ITT Ratings,3,against,1,NA,NA,NA,NA,NA,NA,NA,NA,NA,ACCEPT,batch1hes,NA,NA,BEGIN TASK,NA,NA,NA,NA,NA,NA,NA,NA,NA,0,1,0,NA,NA,NA,NA,NA,NA,NA,NA,NA,NA,NA,NA,NA,NA,NA,NA,NA,NA,NA,NA,NA
2,1658857853551,26/07/2022 17:50:53,1658857853436,1,26/07/2022 18:50:53,93981,5,task-an6x,NA,23317299,6842664,NA,complete,NA,62e0290f0c684fdd45ba3692,mobile,Apple iPhone,iOS 15.5,Mobile Safari 15.5,414x896,800x331,NA,ITT Ratings,3,against,1,NA,NA,NA,NA,NA,NA,NA,NA,NA,ACCEPT,batch1hes,NA,NA,BEGIN TASK,NA,NA,NA,NA,NA,NA,NA,NA,NA,0,1,0,NA,NA,NA,NA,NA,NA,NA,NA,NA,NA,NA,NA,NA,NA,NA,NA,NA,NA,NA,NA,NA
3,1658857860505,26/07/2022 17:51:00,1658857860294,1,26/07/2022 18:51:00,93981,5,task-an6x,NA,23317299,6842664,NA,complete,NA,62e0290f0c684fdd45ba3692,mobile,Apple iPhone,iOS 15.5,Mobile Safari 15.5,414x896,800x331,NA,ITT Ratings,3,against,1,NA,NA,NA,NA,NA,NA,NA,NA,NA,ACCEPT,batch1hes,batch1hes,1,1,1,Screen 1,advancementZone,continue_button,6825,NA,NA,NA,NA,0,1,0,NA,NA,NA,NA,NA,instructions,NA,NA,NA,NA,NA,NA,NA,NA,NA,NA,NA,NA,NA,NA,NA
4,1658857860675,26/07/2022 17:51:00,1658857860547,1,26/07/2022 18:51:00,93981,5,task-an6x,NA,23317299,6842664,NA,complete,NA,62e0290f0c684fdd45ba3692,mobile,Apple iPhone,iOS 15.5,Mobile Safari 15.5,414x896,800x331,NA,ITT Ratings,3,against,1,NA,NA,NA,NA,NA,NA,NA,NA,NA,ACCEPT,batch1hes,batch1hes,26,1,1,Screen 1,continueButton,response_rating_scale_likert_active,235.9999999999991,NA,NA,Somewhat Agree,1,0,1,0,NA,NA,NA,NA,1,statements,It is important to receive the vaccine to protect your health and the health of others.,1,17/05/2021 11:04,17/05/2021 11:12,483,Most days,Most weeks,31,Female,-99,GCSEs,4,2,Against,For
5,1658857865595,26/07/2022 17:51:05,1658857865495,1,26/07/2022 18:51:05,93981,5,task-an6x,NA,23317299,6842664,NA,complete,NA,62e0290f0c684fdd45ba3692,mobile,Apple iPhone,iOS 15.5,Mobile Safari 15.5,414x896,800x331,NA,ITT Ratings,3,against,1,NA,NA,NA,NA,NA,NA,NA,NA,NA,ACCEPT,batch1hes,batch1hes,15,2,1,Screen 1,continueButton,response_rating_scale_likert_active,4932,NA,NA,Strongly Disagree,1,0,1,0,NA,NA,NA,NA,1,statements,Protects others around you from catching the virus?,1,17/05/2021 10:56,17/05/2021 11:11,875,Most days,Most weeks,24,Female,-99,"Undergraduate degree (BSc, BA)",2,3,Against,For
6,1658857869171,26/07/2022 17:51:09,1658857869057,1,26/07/2022 18:51:09,93981,5,task-an6x,NA,23317299,6842664,NA,complete,NA,62e0290f0c684fdd45ba3692,mobile,Apple iPhone,iOS 15.5,Mobile Safari 15.5,414x896,800x331,NA,ITT Ratings,3,against,1,NA,NA,NA,NA,NA,NA,NA,NA,NA,ACCEPT,batch1hes,batch1hes,8,3,1,Screen 1,continueButton,response_rating_scale_likert_active,3544,NA,NA,Strongly Disagree,1,0,1,0,NA,NA,NA,NA,1,statements,there are a load of people receiving the vaccine it's safe.,1,17/05/2021 10:58,17/05/2021 11:09,624,Most days,Most months,32,Female,-99,A levels,1,2,Against,For
7,1658857872884,26/07/2022 17:51:12,1658857872756,1,26/07/2022 18:51:12,93981,5,task-an6x,NA,23317299,6842664,NA,complete,NA,62e0290f0c684fdd45ba3692,mobile,Apple iPhone,iOS 15.5,Mobile Safari 15.5,414x896,800x331,NA,ITT Ratings,3,against,1,NA,NA,NA,NA,NA,NA,NA,NA,NA,ACCEPT,batch1hes,batch1hes,35,4,1,Screen 1,continueButton,response_rating_scale_likert_active,3681.000000000002,NA,NA,Strongly Agree,1,0,1,0,NA,NA,NA,NA,1,statements,The vaccine hasn't been tested for long enough to ensure its safety and effectiveness,1,17/05/2021 10:58,17/05/2021 11:12,875,Most weeks,Most days,32,Female,-99,A levels,6,2,Against,Against
8,1658857875748,26/07/2022 17:51:15,1658857875580,1,26/07/2022 18:51:15,93981,5,task-an6x,NA,23317299,6842664,NA,complete,NA,62e0290f0c684fdd45ba3692,mobile,Apple iPhone,iOS 15.5,Mobile Safari 15.5,414x896,800x331,NA,ITT Ratings,3,against,1,NA,NA,NA,NA,NA,NA,NA,NA,NA,ACCEPT,batch1hes,batch1hes,24,5,1,Screen 1,continueButton,response_rating_scale_likert_active,2810,NA,NA,Strongly Agree,1,0,1,0,NA,NA,NA,NA,1,statements,It will have serious consequences on peoples health.,1,17/05/2021 11:04,17/05/2021 11:12,483,Most days,Most weeks,31,Female,-99,GCSEs,4,3,Against,Against
9,1658857884972,26/07/2022 17:51:24,1658857884742,1,26/07/2022 18:51:24,93981,5,task-an6x,NA,23317299,6842664,NA,complete,NA,62e0290f0c684fdd45ba3692,mobile,Apple iPhone,iOS 15.5,Mobile Safari 15.5,414x896,800x331,NA,ITT Ratings,3,against,1,NA,NA,NA,NA,NA,NA,NA,NA,NA,ACCEPT,batch1hes,batch1hes,30,6,1,Screen 1,continueButton,response_rating_scale_likert_active,9148,NA,NA,Neither Agree nor Disagree,1,0,1,0,NA,NA,NA,NA,1,statements,I don't even know anyone who has had Covid never mind anyone who has been hospitalised or died from it.,1,17/05/2021 10:35,17/05/2021 11:12,2227,A few times a year,A few times a year,32,Female,-99,A levels,5,3,Against,Against
10,1658857887682,26/07/2022 17:51:27,1658857887553,1,26/07/2022 18:51:27,93981,5,task-an6x,NA,23317299,6842664,NA,complete,NA,62e0290f0c684fdd45ba3692,mobile,Apple iPhone,iOS 15.5,Mobile Safari 15.5,414x896,800x331,NA,ITT Ratings,3,against,1,NA,NA,NA,NA,NA,NA,NA,NA,NA,ACCEPT,batch1hes,batch1hes,60,7,1,Screen 1,continueButton,response_rating_scale_likert_active,2793.9999999999964,NA,NA,Strongly Agree,1,0,1,0,NA,NA,NA,NA,1,statements,The vaccine was man made,1,17/05/2021 11:06,17/05/2021 11:14,491,Once or twice a year,Most months,34,Male,-99,GCSEs,10,3,Against,Against
11,1658857892087,26/07/2022 17:51:32,1658857891930,1,26/07/2022 18:51:31,93981,5,task-an6x,NA,23317299,6842664,NA,complete,NA,62e0290f0c684fdd45ba3692,mobile,Apple iPhone,iOS 15.5,Mobile Safari 15.5,414x896,800x331,NA,ITT Ratings,3,against,1,NA,NA,NA,NA,NA,NA,NA,NA,NA,ACCEPT,batch1hes,batch1hes,22,8,1,Screen 1,continueButton,response_rating_scale_likert_active,4352.999999999993,NA,NA,Strongly Agree,1,0,1,0,NA,NA,NA,NA,1,statements,The vaccine is not safe to receive.,1,17/05/2021 11:04,17/05/2021 11:12,483,Most days,Most weeks,31,Female,-99,GCSEs,4,1,Against,Against
12,1658857893660,26/07/2022 17:51:33,1658857893563,1,26/07/2022 18:51:33,93981,5,task-an6x,NA,23317299,6842664,NA,complete,NA,62e0290f0c684fdd45ba3692,mobile,Apple iPhone,iOS 15.5,Mobile Safari 15.5,414x896,800x331,NA,ITT Ratings,3,against,1,NA,NA,NA,NA,NA,NA,NA,NA,NA,ACCEPT,batch1hes,batch1hes,21,9,1,Screen 1,continueButton,response_rating_scale_likert_active,1619,NA,NA,Strongly Disagree,1,0,1,0,NA,NA,NA,NA,1,statements,It protects everyone,1,17/05/2021 10:56,17/05/2021 11:12,973,Most weeks,Most weeks,49,Female,-99,GCSEs,3,3,Against,For
13,1658857896739,26/07/2022 17:51:36,1658857896563,1,26/07/2022 18:51:36,93981,5,task-an6x,NA,23317299,6842664,NA,complete,NA,62e0290f0c684fdd45ba3692,mobile,Apple iPhone,iOS 15.5,Mobile Safari 15.5,414x896,800x331,NA,ITT Ratings,3,against,1,NA,NA,NA,NA,NA,NA,NA,NA,NA,ACCEPT,batch1hes,batch1hes,31,10,1,Screen 1,continueButton,response_rating_scale_likert_active,2982.9999999999927,NA,NA,Strongly Disagree,1,0,1,0,NA,NA,NA,NA,1,statements,The more people who get vaccinated the sooner the restrictions will be lifted.,1,17/05/2021 10:35,17/05/2021 11:12,2227,A few times a year,A few times a year,32,Female,-99,A levels,5,1,Against,For
14,1658857902553,26/07/2022 17:51:42,1658857902443,1,26/07/2022 18:51:42,93981,5,task-an6x,NA,23317299,6842664,NA,complete,NA,62e0290f0c684fdd45ba3692,mobile,Apple iPhone,iOS 15.5,Mobile Safari 15.5,414x896,800x331,NA,ITT Ratings,3,against,1,NA,NA,NA,NA,NA,NA,NA,NA,NA,ACCEPT,batch1hes,batch1hes,41,11,1,Screen 1,continueButton,response_rating_scale_likert_active,5849,NA,NA,Strongly Agree,1,0,1,0,NA,NA,NA,NA,1,statements,I believe one of the vaccine companies is been taken to court in the USA because of people getting cancer from one it's other products.,1,17/05/2021 10:47,17/05/2021 11:13,1550,Most months,Most months,49,Male,-99,Vocational Training / Apprenticeship,7,2,Against,Against
15,1658857904992,26/07/2022 17:51:44,1658857904890,1,26/07/2022 18:51:44,93981,5,task-an6x,NA,23317299,6842664,NA,complete,NA,62e0290f0c684fdd45ba3692,mobile,Apple iPhone,iOS 15.5,Mobile Safari 15.5,414x896,800x331,NA,ITT Ratings,3,against,1,NA,NA,NA,NA,NA,NA,NA,NA,NA,ACCEPT,batch1hes,batch1hes,19,12,1,Screen 1,continueButton,response_rating_scale_likert_active,2433.9999999999927,NA,NA,Strongly Disagree,1,0,1,0,NA,NA,NA,NA,1,statements,Its the only way to stop the spread of the virus,1,17/05/2021 10:56,17/05/2021 11:12,973,Most weeks,Most weeks,49,Female,-99,GCSEs,3,1,Against,For
16,1658857907592,26/07/2022 17:51:47,1658857907474,1,26/07/2022 18:51:47,93981,5,task-an6x,NA,23317299,6842664,NA,complete,NA,62e0290f0c684fdd45ba3692,mobile,Apple iPhone,iOS 15.5,Mobile Safari 15.5,414x896,800x331,NA,ITT Ratings,3,against,1,NA,NA,NA,NA,NA,NA,NA,NA,NA,ACCEPT,batch1hes,batch1hes,16,13,1,Screen 1,continueButton,response_rating_scale_likert_active,2556,NA,NA,Strongly Agree,1,0,1,0,NA,NA,NA,NA,1,statements,It hasnt been tested for long enough,1,17/05/2021 10:56,17/05/2021 11:12,973,Most weeks,Most weeks,49,Female,-99,GCSEs,3,1,Against,Against
17,1658857913541,26/07/2022 17:51:53,1658857913433,1,26/07/2022 18:51:53,93981,5,task-an6x,NA,23317299,6842664,NA,complete,NA,62e0290f0c684fdd45ba3692,mobile,Apple iPhone,iOS 15.5,Mobile Safari 15.5,414x896,800x331,NA,ITT Ratings,3,against,1,NA,NA,NA,NA,NA,NA,NA,NA,NA,ACCEPT,batch1hes,batch1hes,2,14,1,Screen 1,continueButton,response_rating_scale_likert_active,5939,NA,NA,Somewhat Agree,1,0,1,0,NA,NA,NA,NA,1,statements,We would like to check you are reading each argument carefully. Please select 'Somewhat Agree' for this answer,1,NA,NA,NA,NA,NA,NA,NA,NA,NA,NA,check1,NA,NA
18,1658857917847,26/07/2022 17:51:57,1658857917734,1,26/07/2022 18:51:57,93981,5,task-an6x,NA,23317299,6842664,NA,complete,NA,62e0290f0c684fdd45ba3692,mobile,Apple iPhone,iOS 15.5,Mobile Safari 15.5,414x896,800x331,NA,ITT Ratings,3,against,1,NA,NA,NA,NA,NA,NA,NA,NA,NA,ACCEPT,batch1hes,batch1hes,49,15,1,Screen 1,continueButton,response_rating_scale_likert_active,4284,NA,NA,Strongly Disagree,1,0,1,0,NA,NA,NA,NA,1,statements,To protect me from becoming seriously ill if I caught Covid,1,17/05/2021 10:47,17/05/2021 11:14,1618,Most days,Most days,54,Male,-99,Vocational Training / Apprenticeship,8,1,Against,For
19,1658857922083,26/07/2022 17:52:02,1658857921915,1,26/07/2022 18:52:01,93981,5,task-an6x,NA,23317299,6842664,NA,complete,NA,62e0290f0c684fdd45ba3692,mobile,Apple iPhone,iOS 15.5,Mobile Safari 15.5,414x896,800x331,NA,ITT Ratings,3,against,1,NA,NA,NA,NA,NA,NA,NA,NA,NA,ACCEPT,batch1hes,batch1hes,18,16,1,Screen 1,continueButton,response_rating_scale_likert_active,4152,NA,NA,Somewhat Agree,1,0,1,0,NA,NA,NA,NA,1,statements,Im unsure of the long term affects,1,17/05/2021 10:56,17/05/2021 11:12,973,Most weeks,Most weeks,49,Female,-99,GCSEs,3,3,Against,Against
20,1658857924863,26/07/2022 17:52:04,1658857924678,1,26/07/2022 18:52:04,93981,5,task-an6x,NA,23317299,6842664,NA,complete,NA,62e0290f0c684fdd45ba3692,mobile,Apple iPhone,iOS 15.5,Mobile Safari 15.5,414x896,800x331,NA,ITT Ratings,3,against,1,NA,NA,NA,NA,NA,NA,NA,NA,NA,ACCEPT,batch1hes,batch1hes,57,17,1,Screen 1,continueButton,response_rating_scale_likert_active,2747,NA,NA,Strongly Disagree,1,0,1,0,NA,NA,NA,NA,1,statements,the long term benefits outweigh the temporary side-effects,1,17/05/2021 11:08,17/05/2021 11:14,344,Rarely,Most months,27,Male,-99,"Undergraduate degree (BSc, BA)",9,3,Against,For
21,1658857930146,26/07/2022 17:52:10,1658857929982,1,26/07/2022 18:52:09,93981,5,task-an6x,NA,23317299,6842664,NA,complete,NA,62e0290f0c684fdd45ba3692,mobile,Apple iPhone,iOS 15.5,Mobile Safari 15.5,414x896,800x331,NA,ITT Ratings,3,against,1,NA,NA,NA,NA,NA,NA,NA,NA,NA,ACCEPT,batch1hes,batch1hes,34,18,1,Screen 1,continueButton,response_rating_scale_likert_active,5292,NA,NA,Strongly Agree,1,0,1,0,NA,NA,NA,NA,1,statements,The rate of death from covid-19 is very low and a vaccine isn't needed,1,17/05/2021 10:58,17/05/2021 11:12,875,Most weeks,Most days,32,Female,-99,A levels,6,1,Against,Against
22,1658857936076,26/07/2022 17:52:16,1658857935943,1,26/07/2022 18:52:15,93981,5,task-an6x,NA,23317299,6842664,NA,complete,NA,62e0290f0c684fdd45ba3692,mobile,Apple iPhone,iOS 15.5,Mobile Safari 15.5,414x896,800x331,NA,ITT Ratings,3,against,1,NA,NA,NA,NA,NA,NA,NA,NA,NA,ACCEPT,batch1hes,batch1hes,53,19,1,Screen 1,continueButton,response_rating_scale_likert_active,5948,NA,NA,Neither Agree nor Disagree,1,0,1,0,NA,NA,NA,NA,1,statements,I am living in a country where the outbreak has been managed well/practically non-existent,1,17/05/2021 11:08,17/05/2021 11:14,344,Rarely,Most months,27,Male,-99,"Undergraduate degree (BSc, BA)",9,2,Against,Against
23,1658857944062,26/07/2022 17:52:24,1658857943942,1,26/07/2022 18:52:23,93981,5,task-an6x,NA,23317299,6842664,NA,complete,NA,62e0290f0c684fdd45ba3692,mobile,Apple iPhone,iOS 15.5,Mobile Safari 15.5,414x896,800x331,NA,ITT Ratings,3,against,1,NA,NA,NA,NA,NA,NA,NA,NA,NA,ACCEPT,batch1hes,batch1hes,52,20,1,Screen 1,continueButton,response_rating_scale_likert_active,7982,NA,NA,Somewhat Agree,1,0,1,0,NA,NA,NA,NA,1,statements,"If enough people get a vaccine, whether I do or not is inconsequential",1,17/05/2021 11:08,17/05/2021 11:14,344,Rarely,Most months,27,Male,-99,"Undergraduate degree (BSc, BA)",9,1,Against,Against
24,1658857945807,26/07/2022 17:52:25,1658857945658,1,26/07/2022 18:52:25,93981,5,task-an6x,NA,23317299,6842664,NA,complete,NA,62e0290f0c684fdd45ba3692,mobile,Apple iPhone,iOS 15.5,Mobile Safari 15.5,414x896,800x331,NA,ITT Ratings,3,against,1,NA,NA,NA,NA,NA,NA,NA,NA,NA,ACCEPT,batch1hes,batch1hes,55,21,1,Screen 1,continueButton,response_rating_scale_likert_active,1701,NA,NA,Strongly Disagree,1,0,1,0,NA,NA,NA,NA,1,statements,better for everyone else,1,17/05/2021 11:08,17/05/2021 11:14,344,Rarely,Most months,27,Male,-99,"Undergraduate degree (BSc, BA)",9,1,Against,For
25,1658857953167,26/07/2022 17:52:33,1658857952959,1,26/07/2022 18:52:32,93981,5,task-an6x,NA,23317299,6842664,NA,complete,NA,62e0290f0c684fdd45ba3692,mobile,Apple iPhone,iOS 15.5,Mobile Safari 15.5,414x896,800x331,NA,ITT Ratings,3,against,1,NA,NA,NA,NA,NA,NA,NA,NA,NA,ACCEPT,batch1hes,batch1hes,7,22,1,Screen 1,continueButton,response_rating_scale_likert_active,7278,NA,NA,Neither Agree nor Disagree,1,0,1,0,NA,NA,NA,NA,1,statements,i was fine are a few days.,1,17/05/2021 10:58,17/05/2021 11:09,624,Most days,Most months,32,Female,-99,A levels,1,1,Against,For
26,1658857959536,26/07/2022 17:52:39,1658857959365,1,26/07/2022 18:52:39,93981,5,task-an6x,NA,23317299,6842664,NA,complete,NA,62e0290f0c684fdd45ba3692,mobile,Apple iPhone,iOS 15.5,Mobile Safari 15.5,414x896,800x331,NA,ITT Ratings,3,against,1,NA,NA,NA,NA,NA,NA,NA,NA,NA,ACCEPT,batch1hes,batch1hes,29,23,1,Screen 1,continueButton,response_rating_scale_likert_active,6382,NA,NA,Strongly Agree,1,0,1,0,NA,NA,NA,NA,1,statements,I am unsure about any long-term side effects that might arise from the vaccine in years to come due to how quickly the testing phase was carried out.,1,17/05/2021 10:35,17/05/2021 11:12,2227,A few times a year,A few times a year,32,Female,-99,A levels,5,2,Against,Against
27,1658857962131,26/07/2022 17:52:42,1658857961950,1,26/07/2022 18:52:41,93981,5,task-an6x,NA,23317299,6842664,NA,complete,NA,62e0290f0c684fdd45ba3692,mobile,Apple iPhone,iOS 15.5,Mobile Safari 15.5,414x896,800x331,NA,ITT Ratings,3,against,1,NA,NA,NA,NA,NA,NA,NA,NA,NA,ACCEPT,batch1hes,batch1hes,27,24,1,Screen 1,continueButton,response_rating_scale_likert_active,2567,NA,NA,Strongly Disagree,1,0,1,0,NA,NA,NA,NA,1,statements,We must have the vaccine in order to return to normality.,1,17/05/2021 11:04,17/05/2021 11:12,483,Most days,Most weeks,31,Female,-99,GCSEs,4,3,Against,For
28,1658857968759,26/07/2022 17:52:48,1658857968570,1,26/07/2022 18:52:48,93981,5,task-an6x,NA,23317299,6842664,NA,complete,NA,62e0290f0c684fdd45ba3692,mobile,Apple iPhone,iOS 15.5,Mobile Safari 15.5,414x896,800x331,NA,ITT Ratings,3,against,1,NA,NA,NA,NA,NA,NA,NA,NA,NA,ACCEPT,batch1hes,batch1hes,10,25,1,Screen 1,continueButton,response_rating_scale_likert_active,6605,NA,NA,Strongly Agree,1,0,1,0,NA,NA,NA,NA,1,statements,I'm worried about the side effects from the vaccine especially if I have underlying health conditions that can be affected through the vaccine.,1,17/05/2021 10:56,17/05/2021 11:11,875,Most days,Most weeks,24,Female,-99,"Undergraduate degree (BSc, BA)",2,1,Against,Against
29,1658857972474,26/07/2022 17:52:52,1658857972300,1,26/07/2022 18:52:52,93981,5,task-an6x,NA,23317299,6842664,NA,complete,NA,62e0290f0c684fdd45ba3692,mobile,Apple iPhone,iOS 15.5,Mobile Safari 15.5,414x896,800x331,NA,ITT Ratings,3,against,1,NA,NA,NA,NA,NA,NA,NA,NA,NA,ACCEPT,batch1hes,batch1hes,63,26,1,Screen 1,continueButton,response_rating_scale_likert_active,3717,NA,NA,Neither Agree nor Disagree,1,0,1,0,NA,NA,NA,NA,1,statements,Im doing my bit to help,1,17/05/2021 11:06,17/05/2021 11:14,491,Once or twice a year,Most months,34,Male,-99,GCSEs,10,3,Against,For
30,1658857978491,26/07/2022 17:52:58,1658857978311,1,26/07/2022 18:52:58,93981,5,task-an6x,NA,23317299,6842664,NA,complete,NA,62e0290f0c684fdd45ba3692,mobile,Apple iPhone,iOS 15.5,Mobile Safari 15.5,414x896,800x331,NA,ITT Ratings,3,against,1,NA,NA,NA,NA,NA,NA,NA,NA,NA,ACCEPT,batch1hes,batch1hes,40,27,1,Screen 1,continueButton,response_rating_scale_likert_active,5998,NA,NA,Strongly Agree,1,0,1,0,NA,NA,NA,NA,1,statements,I don't think have taken enough time to test the vaccine properly.,1,17/05/2021 10:47,17/05/2021 11:13,1550,Most months,Most months,49,Male,-99,Vocational Training / Apprenticeship,7,1,Against,Against
31,1658857983013,26/07/2022 17:53:03,1658857982841,1,26/07/2022 18:53:02,93981,5,task-an6x,NA,23317299,6842664,NA,complete,NA,62e0290f0c684fdd45ba3692,mobile,Apple iPhone,iOS 15.5,Mobile Safari 15.5,414x896,800x331,NA,ITT Ratings,3,against,1,NA,NA,NA,NA,NA,NA,NA,NA,NA,ACCEPT,batch1hes,batch1hes,50,28,1,Screen 1,continueButton,response_rating_scale_likert_active,4515,NA,NA,Strongly Disagree,1,0,1,0,NA,NA,NA,NA,1,statements,Because I am old and therefore at a higher risk of dying if I caught Covid,1,17/05/2021 10:47,17/05/2021 11:14,1618,Most days,Most days,54,Male,-99,Vocational Training / Apprenticeship,8,2,Against,For
32,1658857995148,26/07/2022 17:53:15,1658857994973,1,26/07/2022 18:53:14,93981,5,task-an6x,NA,23317299,6842664,NA,complete,NA,62e0290f0c684fdd45ba3692,mobile,Apple iPhone,iOS 15.5,Mobile Safari 15.5,414x896,800x331,NA,ITT Ratings,3,against,1,NA,NA,NA,NA,NA,NA,NA,NA,NA,ACCEPT,batch1hes,batch1hes,45,29,1,Screen 1,continueButton,response_rating_scale_likert_active,12115,NA,NA,Strongly Disagree,1,0,1,0,NA,NA,NA,NA,1,statements,It will stop me from getting covid.,1,17/05/2021 10:47,17/05/2021 11:13,1550,Most months,Most months,49,Male,-99,Vocational Training / Apprenticeship,7,3,Against,For
33,1658857997836,26/07/2022 17:53:17,1658857997648,1,26/07/2022 18:53:17,93981,5,task-an6x,NA,23317299,6842664,NA,complete,NA,62e0290f0c684fdd45ba3692,mobile,Apple iPhone,iOS 15.5,Mobile Safari 15.5,414x896,800x331,NA,ITT Ratings,3,against,1,NA,NA,NA,NA,NA,NA,NA,NA,NA,ACCEPT,batch1hes,batch1hes,42,30,1,Screen 1,continueButton,response_rating_scale_likert_active,2653.999999999971,NA,NA,Strongly Agree,1,0,1,0,NA,NA,NA,NA,1,statements,I might be the one who gets the blood clots.,1,17/05/2021 10:47,17/05/2021 11:13,1550,Most months,Most months,49,Male,-99,Vocational Training / Apprenticeship,7,3,Against,Against
34,1658857999619,26/07/2022 17:53:19,1658857999469,1,26/07/2022 18:53:19,93981,5,task-an6x,NA,23317299,6842664,NA,complete,NA,62e0290f0c684fdd45ba3692,mobile,Apple iPhone,iOS 15.5,Mobile Safari 15.5,414x896,800x331,NA,ITT Ratings,3,against,1,NA,NA,NA,NA,NA,NA,NA,NA,NA,ACCEPT,batch1hes,batch1hes,39,31,1,Screen 1,continueButton,response_rating_scale_likert_active,1801,NA,NA,Strongly Disagree,1,0,1,0,NA,NA,NA,NA,1,statements,To be able to go on holiday,1,17/05/2021 10:58,17/05/2021 11:12,875,Most weeks,Most days,32,Female,-99,A levels,6,3,Against,For
35,1658858001777,26/07/2022 17:53:21,1658858001609,1,26/07/2022 18:53:21,93981,5,task-an6x,NA,23317299,6842664,NA,complete,NA,62e0290f0c684fdd45ba3692,mobile,Apple iPhone,iOS 15.5,Mobile Safari 15.5,414x896,800x331,NA,ITT Ratings,3,against,1,NA,NA,NA,NA,NA,NA,NA,NA,NA,ACCEPT,batch1hes,batch1hes,14,32,1,Screen 1,continueButton,response_rating_scale_likert_active,2122,NA,NA,Strongly Disagree,1,0,1,0,NA,NA,NA,NA,1,statements,Prevents you from catching the virus or getting severe symptoms.,1,17/05/2021 10:56,17/05/2021 11:11,875,Most days,Most weeks,24,Female,-99,"Undergraduate degree (BSc, BA)",2,2,Against,For
36,1658858005819,26/07/2022 17:53:25,1658858005628,1,26/07/2022 18:53:25,93981,5,task-an6x,NA,23317299,6842664,NA,complete,NA,62e0290f0c684fdd45ba3692,mobile,Apple iPhone,iOS 15.5,Mobile Safari 15.5,414x896,800x331,NA,ITT Ratings,3,against,1,NA,NA,NA,NA,NA,NA,NA,NA,NA,ACCEPT,batch1hes,batch1hes,51,33,1,Screen 1,continueButton,response_rating_scale_likert_active,4004,NA,NA,Strongly Disagree,1,0,1,0,NA,NA,NA,NA,1,statements,Because in the end everyone will be forced to have the vaccine if they want to go on holiday or go to certain events,1,17/05/2021 10:47,17/05/2021 11:14,1618,Most days,Most days,54,Male,-99,Vocational Training / Apprenticeship,8,3,Against,For
37,1658858011642,26/07/2022 17:53:31,1658858011459,1,26/07/2022 18:53:31,93981,5,task-an6x,NA,23317299,6842664,NA,complete,NA,62e0290f0c684fdd45ba3692,mobile,Apple iPhone,iOS 15.5,Mobile Safari 15.5,414x896,800x331,NA,ITT Ratings,3,against,1,NA,NA,NA,NA,NA,NA,NA,NA,NA,ACCEPT,batch1hes,batch1hes,12,34,1,Screen 1,continueButton,response_rating_scale_likert_active,5815,NA,NA,Strongly Agree,1,0,1,0,NA,NA,NA,NA,1,statements,"Theories about how the vaccine has been produced, the ingredients of it, seems suspicious and doesn't seem to be effective either.",1,17/05/2021 10:56,17/05/2021 11:11,875,Most days,Most weeks,24,Female,-99,"Undergraduate degree (BSc, BA)",2,3,Against,Against
38,1658858015527,26/07/2022 17:53:35,1658858015296,1,26/07/2022 18:53:35,93981,5,task-an6x,NA,23317299,6842664,NA,complete,NA,62e0290f0c684fdd45ba3692,mobile,Apple iPhone,iOS 15.5,Mobile Safari 15.5,414x896,800x331,NA,ITT Ratings,3,against,1,NA,NA,NA,NA,NA,NA,NA,NA,NA,ACCEPT,batch1hes,batch1hes,23,35,1,Screen 1,continueButton,response_rating_scale_likert_active,3821,NA,NA,Strongly Agree,1,0,1,0,NA,NA,NA,NA,1,statements,Its not been developed for long enough.,1,17/05/2021 11:04,17/05/2021 11:12,483,Most days,Most weeks,31,Female,-99,GCSEs,4,2,Against,Against
39,1658858022395,26/07/2022 17:53:42,1658858022212,1,26/07/2022 18:53:42,93981,5,task-an6x,NA,23317299,6842664,NA,complete,NA,62e0290f0c684fdd45ba3692,mobile,Apple iPhone,iOS 15.5,Mobile Safari 15.5,414x896,800x331,NA,ITT Ratings,3,against,1,NA,NA,NA,NA,NA,NA,NA,NA,NA,ACCEPT,batch1hes,batch1hes,11,36,1,Screen 1,continueButton,response_rating_scale_likert_active,6897,NA,NA,Strongly Agree,1,0,1,0,NA,NA,NA,NA,1,statements,Doesn't seem trustworthy as the process to make the vaccine has been rushed in order to keep up with demands from the world to release a vaccine out soon.,1,17/05/2021 10:56,17/05/2021 11:11,875,Most days,Most weeks,24,Female,-99,"Undergraduate degree (BSc, BA)",2,2,Against,Against
40,1658858028122,26/07/2022 17:53:48,1658858027955,1,26/07/2022 18:53:47,93981,5,task-an6x,NA,23317299,6842664,NA,complete,NA,62e0290f0c684fdd45ba3692,mobile,Apple iPhone,iOS 15.5,Mobile Safari 15.5,414x896,800x331,NA,ITT Ratings,3,against,1,NA,NA,NA,NA,NA,NA,NA,NA,NA,ACCEPT,batch1hes,batch1hes,3,37,1,Screen 1,continueButton,response_rating_scale_likert_active,5727,NA,NA,Somewhat Disagree,1,0,1,0,NA,NA,NA,NA,1,statements,We would like to check you are reading each argument carefully. Please select 'Somewhat Disagree' for this answer,1,NA,NA,NA,NA,NA,NA,NA,NA,NA,NA,check2,NA,NA
41,1658858036209,26/07/2022 17:53:56,1658858036032,1,26/07/2022 18:53:56,93981,5,task-an6x,NA,23317299,6842664,NA,complete,NA,62e0290f0c684fdd45ba3692,mobile,Apple iPhone,iOS 15.5,Mobile Safari 15.5,414x896,800x331,NA,ITT Ratings,3,against,1,NA,NA,NA,NA,NA,NA,NA,NA,NA,ACCEPT,batch1hes,batch1hes,47,38,1,Screen 1,continueButton,response_rating_scale_likert_active,8057,NA,NA,Strongly Agree,1,0,1,0,NA,NA,NA,NA,1,statements,"I would like to see the figures for people who have died within 28 days of having a vaccine, not just the number of deaths after having a positive test",1,17/05/2021 10:47,17/05/2021 11:14,1618,Most days,Most days,54,Male,-99,Vocational Training / Apprenticeship,8,2,Against,Against
42,1658858040113,26/07/2022 17:54:00,1658858039892,1,26/07/2022 18:53:59,93981,5,task-an6x,NA,23317299,6842664,NA,complete,NA,62e0290f0c684fdd45ba3692,mobile,Apple iPhone,iOS 15.5,Mobile Safari 15.5,414x896,800x331,NA,ITT Ratings,3,against,1,NA,NA,NA,NA,NA,NA,NA,NA,NA,ACCEPT,batch1hes,batch1hes,48,39,1,Screen 1,continueButton,response_rating_scale_likert_active,3844,NA,NA,Strongly Disagree,1,0,1,0,NA,NA,NA,NA,1,statements,I am undergoing treatment for cancer,1,17/05/2021 10:47,17/05/2021 11:14,1618,Most days,Most days,54,Male,-99,Vocational Training / Apprenticeship,8,3,Against,Against
43,1658858042161,26/07/2022 17:54:02,1658858041955,1,26/07/2022 18:54:01,93981,5,task-an6x,NA,23317299,6842664,NA,complete,NA,62e0290f0c684fdd45ba3692,mobile,Apple iPhone,iOS 15.5,Mobile Safari 15.5,414x896,800x331,NA,ITT Ratings,3,against,1,NA,NA,NA,NA,NA,NA,NA,NA,NA,ACCEPT,batch1hes,batch1hes,56,40,1,Screen 1,continueButton,response_rating_scale_likert_active,2052,NA,NA,Strongly Disagree,1,0,1,0,NA,NA,NA,NA,1,statements,better for travelling abroad,1,17/05/2021 11:08,17/05/2021 11:14,344,Rarely,Most months,27,Male,-99,"Undergraduate degree (BSc, BA)",9,2,Against,For
44,1658858047972,26/07/2022 17:54:07,1658858047752,1,26/07/2022 18:54:07,93981,5,task-an6x,NA,23317299,6842664,NA,complete,NA,62e0290f0c684fdd45ba3692,mobile,Apple iPhone,iOS 15.5,Mobile Safari 15.5,414x896,800x331,NA,ITT Ratings,3,against,1,NA,NA,NA,NA,NA,NA,NA,NA,NA,ACCEPT,batch1hes,batch1hes,28,41,1,Screen 1,continueButton,response_rating_scale_likert_active,5784,NA,NA,Strongly Agree,1,0,1,0,NA,NA,NA,NA,1,statements,The risk of dying from Covid is only 0.03% unless you have an underlying health problem.,1,17/05/2021 10:35,17/05/2021 11:12,2227,A few times a year,A few times a year,32,Female,-99,A levels,5,1,Against,Against
45,1658858049965,26/07/2022 17:54:09,1658858049766,1,26/07/2022 18:54:09,93981,5,task-an6x,NA,23317299,6842664,NA,complete,NA,62e0290f0c684fdd45ba3692,mobile,Apple iPhone,iOS 15.5,Mobile Safari 15.5,414x896,800x331,NA,ITT Ratings,3,against,1,NA,NA,NA,NA,NA,NA,NA,NA,NA,ACCEPT,batch1hes,batch1hes,33,42,1,Screen 1,continueButton,response_rating_scale_likert_active,1997,NA,NA,Strongly Disagree,1,0,1,0,NA,NA,NA,NA,1,statements,I want to be able to fly for holidays this summer.,1,17/05/2021 10:35,17/05/2021 11:12,2227,A few times a year,A few times a year,32,Female,-99,A levels,5,3,Against,For
46,1658858056903,26/07/2022 17:54:16,1658858056738,1,26/07/2022 18:54:16,93981,5,task-an6x,NA,23317299,6842664,NA,complete,NA,62e0290f0c684fdd45ba3692,mobile,Apple iPhone,iOS 15.5,Mobile Safari 15.5,414x896,800x331,NA,ITT Ratings,3,against,1,NA,NA,NA,NA,NA,NA,NA,NA,NA,ACCEPT,batch1hes,batch1hes,46,43,1,Screen 1,continueButton,response_rating_scale_likert_active,6956.000000000029,NA,NA,Strongly Agree,1,0,1,0,NA,NA,NA,NA,1,statements,I would rather wait to see if there are any negative effect in people who have had the vaccine before I make up my mind,1,17/05/2021 10:47,17/05/2021 11:14,1618,Most days,Most days,54,Male,-99,Vocational Training / Apprenticeship,8,1,Against,Against
47,1658858068462,26/07/2022 17:54:28,1658858068249,1,26/07/2022 18:54:28,93981,5,task-an6x,NA,23317299,6842664,NA,complete,NA,62e0290f0c684fdd45ba3692,mobile,Apple iPhone,iOS 15.5,Mobile Safari 15.5,414x896,800x331,NA,ITT Ratings,3,against,1,NA,NA,NA,NA,NA,NA,NA,NA,NA,ACCEPT,batch1hes,batch1hes,13,44,1,Screen 1,continueButton,response_rating_scale_likert_active,11494,NA,NA,Strongly Disagree,1,0,1,0,NA,NA,NA,NA,1,statements,Protects you against the virus so that you have immunity against it,1,17/05/2021 10:56,17/05/2021 11:11,875,Most days,Most weeks,24,Female,-99,"Undergraduate degree (BSc, BA)",2,1,Against,For
48,1658858070713,26/07/2022 17:54:30,1658858070514,1,26/07/2022 18:54:30,93981,5,task-an6x,NA,23317299,6842664,NA,complete,NA,62e0290f0c684fdd45ba3692,mobile,Apple iPhone,iOS 15.5,Mobile Safari 15.5,414x896,800x331,NA,ITT Ratings,3,against,1,NA,NA,NA,NA,NA,NA,NA,NA,NA,ACCEPT,batch1hes,batch1hes,43,45,1,Screen 1,continueButton,response_rating_scale_likert_active,2252,NA,NA,Strongly Disagree,1,0,1,0,NA,NA,NA,NA,1,statements,It's safe the government said so.,1,17/05/2021 10:47,17/05/2021 11:13,1550,Most months,Most months,49,Male,-99,Vocational Training / Apprenticeship,7,1,Against,For
49,1658858070844,26/07/2022 17:54:30,1658858070576,1,26/07/2022 18:54:30,93981,5,task-an6x,NA,23317299,6842664,NA,complete,NA,62e0290f0c684fdd45ba3692,mobile,Apple iPhone,iOS 15.5,Mobile Safari 15.5,414x896,800x331,NA,ITT Ratings,3,against,1,NA,NA,NA,NA,NA,NA,NA,NA,NA,ACCEPT,batch1hes,batch1hes,54,46,1,Screen 1,continueButton,response_rating_scale_likert_active,51.999999999970896,NA,NA,Strongly Disagree,1,0,1,0,NA,NA,NA,NA,1,statements,I get tested all the time and can afford to self-isolate,1,17/05/2021 11:08,17/05/2021 11:14,344,Rarely,Most months,27,Male,-99,"Undergraduate degree (BSc, BA)",9,3,Against,Against
50,1658858079667,26/07/2022 17:54:39,1658858079464,1,26/07/2022 18:54:39,93981,5,task-an6x,NA,23317299,6842664,NA,complete,NA,62e0290f0c684fdd45ba3692,mobile,Apple iPhone,iOS 15.5,Mobile Safari 15.5,414x896,800x331,NA,ITT Ratings,3,against,1,NA,NA,NA,NA,NA,NA,NA,NA,NA,ACCEPT,batch1hes,batch1hes,37,47,1,Screen 1,continueButton,response_rating_scale_likert_active,8878,NA,NA,Neither Agree nor Disagree,1,0,1,0,NA,NA,NA,NA,1,statements,I want to get my freedoms back,1,17/05/2021 10:58,17/05/2021 11:12,875,Most weeks,Most days,32,Female,-99,A levels,6,1,Against,For
51,1658858081519,26/07/2022 17:54:41,1658858081291,1,26/07/2022 18:54:41,93981,5,task-an6x,NA,23317299,6842664,NA,complete,NA,62e0290f0c684fdd45ba3692,mobile,Apple iPhone,iOS 15.5,Mobile Safari 15.5,414x896,800x331,NA,ITT Ratings,3,against,1,NA,NA,NA,NA,NA,NA,NA,NA,NA,ACCEPT,batch1hes,batch1hes,4,48,1,Screen 1,continueButton,response_rating_scale_likert_active,1813.999999999971,NA,NA,Strongly Agree,1,0,1,0,NA,NA,NA,NA,1,statements,"the vaccine has side effects.

",1,17/05/2021 10:58,17/05/2021 11:09,624,Most days,Most months,32,Female,-99,A levels,1,1,Against,Against
52,1658858084659,26/07/2022 17:54:44,1658858084463,1,26/07/2022 18:54:44,93981,5,task-an6x,NA,23317299,6842664,NA,complete,NA,62e0290f0c684fdd45ba3692,mobile,Apple iPhone,iOS 15.5,Mobile Safari 15.5,414x896,800x331,NA,ITT Ratings,3,against,1,NA,NA,NA,NA,NA,NA,NA,NA,NA,ACCEPT,batch1hes,batch1hes,38,49,1,Screen 1,continueButton,response_rating_scale_likert_active,3152,NA,NA,Strongly Disagree,1,0,1,0,NA,NA,NA,NA,1,statements,Everyone has to have one so life can go back to normal,1,17/05/2021 10:58,17/05/2021 11:12,875,Most weeks,Most days,32,Female,-99,A levels,6,2,Against,For
53,1658858089761,26/07/2022 17:54:49,1658858089580,1,26/07/2022 18:54:49,93981,5,task-an6x,NA,23317299,6842664,NA,complete,NA,62e0290f0c684fdd45ba3692,mobile,Apple iPhone,iOS 15.5,Mobile Safari 15.5,414x896,800x331,NA,ITT Ratings,3,against,1,NA,NA,NA,NA,NA,NA,NA,NA,NA,ACCEPT,batch1hes,batch1hes,17,50,1,Screen 1,continueButton,response_rating_scale_likert_active,5100,NA,NA,Strongly Disagree,1,0,1,0,NA,NA,NA,NA,1,statements,Im not mixing with other people,1,17/05/2021 10:56,17/05/2021 11:12,973,Most weeks,Most weeks,49,Female,-99,GCSEs,3,2,Against,Against
54,1658858091683,26/07/2022 17:54:51,1658858091579,1,26/07/2022 18:54:51,93981,5,task-an6x,NA,23317299,6842664,NA,complete,NA,62e0290f0c684fdd45ba3692,mobile,Apple iPhone,iOS 15.5,Mobile Safari 15.5,414x896,800x331,NA,ITT Ratings,3,against,1,NA,NA,NA,NA,NA,NA,NA,NA,NA,ACCEPT,batch1hes,batch1hes,9,51,1,Screen 1,continueButton,response_rating_scale_likert_active,1988,NA,NA,Strongly Disagree,1,0,1,0,NA,NA,NA,NA,1,statements,it will help you protect yourself.,1,17/05/2021 10:58,17/05/2021 11:09,624,Most days,Most months,32,Female,-99,A levels,1,3,Against,For
55,1658858095613,26/07/2022 17:54:55,1658858095434,1,26/07/2022 18:54:55,93981,5,task-an6x,NA,23317299,6842664,NA,complete,NA,62e0290f0c684fdd45ba3692,mobile,Apple iPhone,iOS 15.5,Mobile Safari 15.5,414x896,800x331,NA,ITT Ratings,3,against,1,NA,NA,NA,NA,NA,NA,NA,NA,NA,ACCEPT,batch1hes,batch1hes,59,52,1,Screen 1,continueButton,response_rating_scale_likert_active,3843.999999999971,NA,NA,Somewhat Disagree,1,0,1,0,NA,NA,NA,NA,1,statements,I've never had a vaccine and never will,1,17/05/2021 11:06,17/05/2021 11:14,491,Once or twice a year,Most months,34,Male,-99,GCSEs,10,2,Against,Against
56,1658858100435,26/07/2022 17:55:00,1658858100294,1,26/07/2022 18:55:00,93981,5,task-an6x,NA,23317299,6842664,NA,complete,NA,62e0290f0c684fdd45ba3692,mobile,Apple iPhone,iOS 15.5,Mobile Safari 15.5,414x896,800x331,NA,ITT Ratings,3,against,1,NA,NA,NA,NA,NA,NA,NA,NA,NA,ACCEPT,batch1hes,batch1hes,62,53,1,Screen 1,continueButton,response_rating_scale_likert_active,4849,NA,NA,Disagree,1,0,1,0,NA,NA,NA,NA,1,statements,The news said its effective,1,17/05/2021 11:06,17/05/2021 11:14,491,Once or twice a year,Most months,34,Male,-99,GCSEs,10,2,Against,For
57,1658858105535,26/07/2022 17:55:05,1658858105366,1,26/07/2022 18:55:05,93981,5,task-an6x,NA,23317299,6842664,NA,complete,NA,62e0290f0c684fdd45ba3692,mobile,Apple iPhone,iOS 15.5,Mobile Safari 15.5,414x896,800x331,NA,ITT Ratings,3,against,1,NA,NA,NA,NA,NA,NA,NA,NA,NA,ACCEPT,batch1hes,batch1hes,20,54,1,Screen 1,continueButton,response_rating_scale_likert_active,5060.999999999971,NA,NA,Strongly Disagree,1,0,1,0,NA,NA,NA,NA,1,statements,It has been thoroughly tested,1,17/05/2021 10:56,17/05/2021 11:12,973,Most weeks,Most weeks,49,Female,-99,GCSEs,3,2,Against,For
58,1658858108606,26/07/2022 17:55:08,1658858108444,1,26/07/2022 18:55:08,93981,5,task-an6x,NA,23317299,6842664,NA,complete,NA,62e0290f0c684fdd45ba3692,mobile,Apple iPhone,iOS 15.5,Mobile Safari 15.5,414x896,800x331,NA,ITT Ratings,3,against,1,NA,NA,NA,NA,NA,NA,NA,NA,NA,ACCEPT,batch1hes,batch1hes,25,55,1,Screen 1,continueButton,response_rating_scale_likert_active,3066,NA,NA,Strongly Disagree,1,0,1,0,NA,NA,NA,NA,1,statements,The vaccine is perfectly safe and better versions have already been produced.,1,17/05/2021 11:04,17/05/2021 11:12,483,Most days,Most weeks,31,Female,-99,GCSEs,4,1,Against,For
59,1658858115126,26/07/2022 17:55:15,1658858114783,1,26/07/2022 18:55:14,93981,5,task-an6x,NA,23317299,6842664,NA,complete,NA,62e0290f0c684fdd45ba3692,mobile,Apple iPhone,iOS 15.5,Mobile Safari 15.5,414x896,800x331,NA,ITT Ratings,3,against,1,NA,NA,NA,NA,NA,NA,NA,NA,NA,ACCEPT,batch1hes,batch1hes,36,56,1,Screen 1,continueButton,response_rating_scale_likert_active,6326.000000000029,NA,NA,Strongly Agree,1,0,1,0,NA,NA,NA,NA,1,statements,It is a new technology that was considered unethical before thats why it was never passed,1,17/05/2021 10:58,17/05/2021 11:12,875,Most weeks,Most days,32,Female,-99,A levels,6,3,Against,Against
60,1658858117458,26/07/2022 17:55:17,1658858117357,1,26/07/2022 18:55:17,93981,5,task-an6x,NA,23317299,6842664,NA,complete,NA,62e0290f0c684fdd45ba3692,mobile,Apple iPhone,iOS 15.5,Mobile Safari 15.5,414x896,800x331,NA,ITT Ratings,3,against,1,NA,NA,NA,NA,NA,NA,NA,NA,NA,ACCEPT,batch1hes,batch1hes,6,57,1,Screen 1,continueButton,response_rating_scale_likert_active,2559.999999999971,NA,NA,Strongly Agree,1,0,1,0,NA,NA,NA,NA,1,statements,it's still in its trial stages.,1,17/05/2021 10:58,17/05/2021 11:09,624,Most days,Most months,32,Female,-99,A levels,1,3,Against,Against
61,1658858121710,26/07/2022 17:55:21,1658858121524,1,26/07/2022 18:55:21,93981,5,task-an6x,NA,23317299,6842664,NA,complete,NA,62e0290f0c684fdd45ba3692,mobile,Apple iPhone,iOS 15.5,Mobile Safari 15.5,414x896,800x331,NA,ITT Ratings,3,against,1,NA,NA,NA,NA,NA,NA,NA,NA,NA,ACCEPT,batch1hes,batch1hes,58,58,1,Screen 1,continueButton,response_rating_scale_likert_active,4148,NA,NA,Strongly Agree,1,0,1,0,NA,NA,NA,NA,1,statements,I don't know what's in it,1,17/05/2021 11:06,17/05/2021 11:14,491,Once or twice a year,Most months,34,Male,-99,GCSEs,10,1,Against,Against
62,1658858127162,26/07/2022 17:55:27,1658858127001,1,26/07/2022 18:55:27,93981,5,task-an6x,NA,23317299,6842664,NA,complete,NA,62e0290f0c684fdd45ba3692,mobile,Apple iPhone,iOS 15.5,Mobile Safari 15.5,414x896,800x331,NA,ITT Ratings,3,against,1,NA,NA,NA,NA,NA,NA,NA,NA,NA,ACCEPT,batch1hes,batch1hes,44,59,1,Screen 1,continueButton,response_rating_scale_likert_active,5461,NA,NA,Neither Agree nor Disagree,1,0,1,0,NA,NA,NA,NA,1,statements,Only a few people have died from it.,1,17/05/2021 10:47,17/05/2021 11:13,1550,Most months,Most months,49,Male,-99,Vocational Training / Apprenticeship,7,2,Against,For
63,1658858132075,26/07/2022 17:55:32,1658858131927,1,26/07/2022 18:55:31,93981,5,task-an6x,NA,23317299,6842664,NA,complete,NA,62e0290f0c684fdd45ba3692,mobile,Apple iPhone,iOS 15.5,Mobile Safari 15.5,414x896,800x331,NA,ITT Ratings,3,against,1,NA,NA,NA,NA,NA,NA,NA,NA,NA,ACCEPT,batch1hes,batch1hes,5,60,1,Screen 1,continueButton,response_rating_scale_likert_active,4913,NA,NA,Neither Agree nor Disagree,1,0,1,0,NA,NA,NA,NA,1,statements,if you were to have covid you would have already.,1,17/05/2021 10:58,17/05/2021 11:09,624,Most days,Most months,32,Female,-99,A levels,1,2,Against,Against
64,1658858134517,26/07/2022 17:55:34,1658858134371,1,26/07/2022 18:55:34,93981,5,task-an6x,NA,23317299,6842664,NA,complete,NA,62e0290f0c684fdd45ba3692,mobile,Apple iPhone,iOS 15.5,Mobile Safari 15.5,414x896,800x331,NA,ITT Ratings,3,against,1,NA,NA,NA,NA,NA,NA,NA,NA,NA,ACCEPT,batch1hes,batch1hes,32,61,1,Screen 1,continueButton,response_rating_scale_likert_active,2435,NA,NA,Neither Agree nor Disagree,1,0,1,0,NA,NA,NA,NA,1,statements,Everyone else is getting vaccinated.,1,17/05/2021 10:35,17/05/2021 11:12,2227,A few times a year,A few times a year,32,Female,-99,A levels,5,2,Against,For
65,1658858135913,26/07/2022 17:55:35,1658858135792,1,26/07/2022 18:55:35,93981,5,task-an6x,NA,23317299,6842664,NA,complete,NA,62e0290f0c684fdd45ba3692,mobile,Apple iPhone,iOS 15.5,Mobile Safari 15.5,414x896,800x331,NA,ITT Ratings,3,against,1,NA,NA,NA,NA,NA,NA,NA,NA,NA,ACCEPT,batch1hes,batch1hes,61,62,1,Screen 1,continueButton,response_rating_scale_likert_active,1412,NA,NA,Strongly Disagree,1,0,1,0,NA,NA,NA,NA,1,statements,The government said it safe,1,17/05/2021 11:06,17/05/2021 11:14,491,Once or twice a year,Most months,34,Male,-99,GCSEs,10,1,Against,For
66,1658858136059,26/07/2022 17:55:36,1658858135802,1,26/07/2022 18:55:35,93981,5,task-an6x,NA,23317299,6842664,NA,complete,NA,62e0290f0c684fdd45ba3692,mobile,Apple iPhone,iOS 15.5,Mobile Safari 15.5,414x896,800x331,NA,ITT Ratings,3,against,1,NA,NA,NA,NA,NA,NA,NA,NA,NA,ACCEPT,batch1hes,NA,NA,END TASK,NA,NA,NA,NA,282366,NA,NA,NA,NA,0,1,0,NA,NA,NA,NA,NA,NA,NA,NA,NA,NA,NA,NA,NA,NA,NA,NA,NA,NA,NA,NA,NA
1,1658859846647,26/07/2022 18:24:06,1658859846668,1,26/07/2022 19:24:06,93981,5,task-an6x,NA,23318089,6842894,NA,complete,NA,62e030fa5712b2dfb96c1890,computer,Desktop or Laptop,Windows 10,Chrome 103.0.0.0,1280x1024,1280x891,NA,ITT Ratings,3,against,1,NA,NA,NA,NA,NA,NA,NA,NA,NA,ACCEPT,batch1hes,NA,NA,BEGIN TASK,NA,NA,NA,NA,NA,NA,NA,NA,NA,0,1,0,NA,NA,NA,NA,NA,NA,NA,NA,NA,NA,NA,NA,NA,NA,NA,NA,NA,NA,NA,NA,NA
2,1658859853581,26/07/2022 18:24:13,1658859853656,1,26/07/2022 19:24:13,93981,5,task-an6x,NA,23318089,6842894,NA,complete,NA,62e030fa5712b2dfb96c1890,computer,Desktop or Laptop,Windows 10,Chrome 103.0.0.0,1280x1024,1280x891,NA,ITT Ratings,3,against,1,NA,NA,NA,NA,NA,NA,NA,NA,NA,ACCEPT,batch1hes,batch1hes,1,1,1,Screen 1,advancementZone,continue_button,6943.600000023842,NA,NA,NA,NA,0,1,0,NA,NA,NA,NA,NA,instructions,NA,NA,NA,NA,NA,NA,NA,NA,NA,NA,NA,NA,NA,NA,NA
3,1658859877764,26/07/2022 18:24:37,1658859877833,1,26/07/2022 19:24:37,93981,5,task-an6x,NA,23318089,6842894,NA,complete,NA,62e030fa5712b2dfb96c1890,computer,Desktop or Laptop,Windows 10,Chrome 103.0.0.0,1280x1024,1280x891,NA,ITT Ratings,3,against,1,NA,NA,NA,NA,NA,NA,NA,NA,NA,ACCEPT,batch1hes,batch1hes,7,1,1,Screen 1,continueButton,response_rating_scale_likert_active,24163,NA,NA,Somewhat Disagree,1,0,1,0,NA,NA,NA,NA,1,statements,i was fine are a few days.,1,17/05/2021 10:58,17/05/2021 11:09,624,Most days,Most months,32,Female,-99,A levels,1,1,Against,For
4,1658859886374,26/07/2022 18:24:46,1658859886432,1,26/07/2022 19:24:46,93981,5,task-an6x,NA,23318089,6842894,NA,complete,NA,62e030fa5712b2dfb96c1890,computer,Desktop or Laptop,Windows 10,Chrome 103.0.0.0,1280x1024,1280x891,NA,ITT Ratings,3,against,1,NA,NA,NA,NA,NA,NA,NA,NA,NA,ACCEPT,batch1hes,batch1hes,16,2,1,Screen 1,continueButton,response_rating_scale_likert_active,8580.399999976158,NA,NA,Agree,1,0,1,0,NA,NA,NA,NA,1,statements,It hasnt been tested for long enough,1,17/05/2021 10:56,17/05/2021 11:12,973,Most weeks,Most weeks,49,Female,-99,GCSEs,3,1,Against,Against
5,1658859894959,26/07/2022 18:24:54,1658859895041,1,26/07/2022 19:24:55,93981,5,task-an6x,NA,23318089,6842894,NA,complete,NA,62e030fa5712b2dfb96c1890,computer,Desktop or Laptop,Windows 10,Chrome 103.0.0.0,1280x1024,1280x891,NA,ITT Ratings,3,against,1,NA,NA,NA,NA,NA,NA,NA,NA,NA,ACCEPT,batch1hes,batch1hes,40,3,1,Screen 1,continueButton,response_rating_scale_likert_active,8599.600000023842,NA,NA,Agree,1,0,1,0,NA,NA,NA,NA,1,statements,I don't think have taken enough time to test the vaccine properly.,1,17/05/2021 10:47,17/05/2021 11:13,1550,Most months,Most months,49,Male,-99,Vocational Training / Apprenticeship,7,1,Against,Against
6,1658859899282,26/07/2022 18:24:59,1658859899357,1,26/07/2022 19:24:59,93981,5,task-an6x,NA,23318089,6842894,NA,complete,NA,62e030fa5712b2dfb96c1890,computer,Desktop or Laptop,Windows 10,Chrome 103.0.0.0,1280x1024,1280x891,NA,ITT Ratings,3,against,1,NA,NA,NA,NA,NA,NA,NA,NA,NA,ACCEPT,batch1hes,batch1hes,18,4,1,Screen 1,continueButton,response_rating_scale_likert_active,4302,NA,NA,Agree,1,0,1,0,NA,NA,NA,NA,1,statements,Im unsure of the long term affects,1,17/05/2021 10:56,17/05/2021 11:12,973,Most weeks,Most weeks,49,Female,-99,GCSEs,3,3,Against,Against
7,1658859903425,26/07/2022 18:25:03,1658859903510,1,26/07/2022 19:25:03,93981,5,task-an6x,NA,23318089,6842894,NA,complete,NA,62e030fa5712b2dfb96c1890,computer,Desktop or Laptop,Windows 10,Chrome 103.0.0.0,1280x1024,1280x891,NA,ITT Ratings,3,against,1,NA,NA,NA,NA,NA,NA,NA,NA,NA,ACCEPT,batch1hes,batch1hes,35,5,1,Screen 1,continueButton,response_rating_scale_likert_active,4143.299999952316,NA,NA,Agree,1,0,1,0,NA,NA,NA,NA,1,statements,The vaccine hasn't been tested for long enough to ensure its safety and effectiveness,1,17/05/2021 10:58,17/05/2021 11:12,875,Most weeks,Most days,32,Female,-99,A levels,6,2,Against,Against
8,1658859907800,26/07/2022 18:25:07,1658859907886,1,26/07/2022 19:25:07,93981,5,task-an6x,NA,23318089,6842894,NA,complete,NA,62e030fa5712b2dfb96c1890,computer,Desktop or Laptop,Windows 10,Chrome 103.0.0.0,1280x1024,1280x891,NA,ITT Ratings,3,against,1,NA,NA,NA,NA,NA,NA,NA,NA,NA,ACCEPT,batch1hes,batch1hes,24,6,1,Screen 1,continueButton,response_rating_scale_likert_active,4367.800000071526,NA,NA,Strongly Agree,1,0,1,0,NA,NA,NA,NA,1,statements,It will have serious consequences on peoples health.,1,17/05/2021 11:04,17/05/2021 11:12,483,Most days,Most weeks,31,Female,-99,GCSEs,4,3,Against,Against
9,1658859912052,26/07/2022 18:25:12,1658859912118,1,26/07/2022 19:25:12,93981,5,task-an6x,NA,23318089,6842894,NA,complete,NA,62e030fa5712b2dfb96c1890,computer,Desktop or Laptop,Windows 10,Chrome 103.0.0.0,1280x1024,1280x891,NA,ITT Ratings,3,against,1,NA,NA,NA,NA,NA,NA,NA,NA,NA,ACCEPT,batch1hes,batch1hes,56,7,1,Screen 1,continueButton,response_rating_scale_likert_active,4220.899999976158,NA,NA,Agree,1,0,1,0,NA,NA,NA,NA,1,statements,better for travelling abroad,1,17/05/2021 11:08,17/05/2021 11:14,344,Rarely,Most months,27,Male,-99,"Undergraduate degree (BSc, BA)",9,2,Against,For
10,1658859916338,26/07/2022 18:25:16,1658859916422,1,26/07/2022 19:25:16,93981,5,task-an6x,NA,23318089,6842894,NA,complete,NA,62e030fa5712b2dfb96c1890,computer,Desktop or Laptop,Windows 10,Chrome 103.0.0.0,1280x1024,1280x891,NA,ITT Ratings,3,against,1,NA,NA,NA,NA,NA,NA,NA,NA,NA,ACCEPT,batch1hes,batch1hes,55,8,1,Screen 1,continueButton,response_rating_scale_likert_active,4296,NA,NA,Disagree,1,0,1,0,NA,NA,NA,NA,1,statements,better for everyone else,1,17/05/2021 11:08,17/05/2021 11:14,344,Rarely,Most months,27,Male,-99,"Undergraduate degree (BSc, BA)",9,1,Against,For
11,1658859926079,26/07/2022 18:25:26,1658859926165,1,26/07/2022 19:25:26,93981,5,task-an6x,NA,23318089,6842894,NA,complete,NA,62e030fa5712b2dfb96c1890,computer,Desktop or Laptop,Windows 10,Chrome 103.0.0.0,1280x1024,1280x891,NA,ITT Ratings,3,against,1,NA,NA,NA,NA,NA,NA,NA,NA,NA,ACCEPT,batch1hes,batch1hes,49,9,1,Screen 1,continueButton,response_rating_scale_likert_active,9734.5,NA,NA,Somewhat Agree,1,0,1,0,NA,NA,NA,NA,1,statements,To protect me from becoming seriously ill if I caught Covid,1,17/05/2021 10:47,17/05/2021 11:14,1618,Most days,Most days,54,Male,-99,Vocational Training / Apprenticeship,8,1,Against,For
12,1658859937848,26/07/2022 18:25:37,1658859937934,1,26/07/2022 19:25:37,93981,5,task-an6x,NA,23318089,6842894,NA,complete,NA,62e030fa5712b2dfb96c1890,computer,Desktop or Laptop,Windows 10,Chrome 103.0.0.0,1280x1024,1280x891,NA,ITT Ratings,3,against,1,NA,NA,NA,NA,NA,NA,NA,NA,NA,ACCEPT,batch1hes,batch1hes,5,10,1,Screen 1,continueButton,response_rating_scale_likert_active,11759.700000047684,NA,NA,Somewhat Agree,1,0,1,0,NA,NA,NA,NA,1,statements,if you were to have covid you would have already.,1,17/05/2021 10:58,17/05/2021 11:09,624,Most days,Most months,32,Female,-99,A levels,1,2,Against,Against
13,1658859942932,26/07/2022 18:25:42,1658859943013,1,26/07/2022 19:25:43,93981,5,task-an6x,NA,23318089,6842894,NA,complete,NA,62e030fa5712b2dfb96c1890,computer,Desktop or Laptop,Windows 10,Chrome 103.0.0.0,1280x1024,1280x891,NA,ITT Ratings,3,against,1,NA,NA,NA,NA,NA,NA,NA,NA,NA,ACCEPT,batch1hes,batch1hes,61,11,1,Screen 1,continueButton,response_rating_scale_likert_active,5069,NA,NA,Disagree,1,0,1,0,NA,NA,NA,NA,1,statements,The government said it safe,1,17/05/2021 11:06,17/05/2021 11:14,491,Once or twice a year,Most months,34,Male,-99,GCSEs,10,1,Against,For
14,1658859951476,26/07/2022 18:25:51,1658859951558,1,26/07/2022 19:25:51,93981,5,task-an6x,NA,23318089,6842894,NA,complete,NA,62e030fa5712b2dfb96c1890,computer,Desktop or Laptop,Windows 10,Chrome 103.0.0.0,1280x1024,1280x891,NA,ITT Ratings,3,against,1,NA,NA,NA,NA,NA,NA,NA,NA,NA,ACCEPT,batch1hes,batch1hes,38,12,1,Screen 1,continueButton,response_rating_scale_likert_active,8536.400000095367,NA,NA,Disagree,1,0,1,0,NA,NA,NA,NA,1,statements,Everyone has to have one so life can go back to normal,1,17/05/2021 10:58,17/05/2021 11:12,875,Most weeks,Most days,32,Female,-99,A levels,6,2,Against,For
15,1658859958369,26/07/2022 18:25:58,1658859958453,1,26/07/2022 19:25:58,93981,5,task-an6x,NA,23318089,6842894,NA,complete,NA,62e030fa5712b2dfb96c1890,computer,Desktop or Laptop,Windows 10,Chrome 103.0.0.0,1280x1024,1280x891,NA,ITT Ratings,3,against,1,NA,NA,NA,NA,NA,NA,NA,NA,NA,ACCEPT,batch1hes,batch1hes,25,13,1,Screen 1,continueButton,response_rating_scale_likert_active,6887.899999976158,NA,NA,Disagree,1,0,1,0,NA,NA,NA,NA,1,statements,The vaccine is perfectly safe and better versions have already been produced.,1,17/05/2021 11:04,17/05/2021 11:12,483,Most days,Most weeks,31,Female,-99,GCSEs,4,1,Against,For
16,1658859972965,26/07/2022 18:26:12,1658859973038,1,26/07/2022 19:26:13,93981,5,task-an6x,NA,23318089,6842894,NA,complete,NA,62e030fa5712b2dfb96c1890,computer,Desktop or Laptop,Windows 10,Chrome 103.0.0.0,1280x1024,1280x891,NA,ITT Ratings,3,against,1,NA,NA,NA,NA,NA,NA,NA,NA,NA,ACCEPT,batch1hes,batch1hes,51,14,1,Screen 1,continueButton,response_rating_scale_likert_active,14577.199999928474,NA,NA,Strongly Disagree,1,0,1,0,NA,NA,NA,NA,1,statements,Because in the end everyone will be forced to have the vaccine if they want to go on holiday or go to certain events,1,17/05/2021 10:47,17/05/2021 11:14,1618,Most days,Most days,54,Male,-99,Vocational Training / Apprenticeship,8,3,Against,For
17,1658859980626,26/07/2022 18:26:20,1658859980701,1,26/07/2022 19:26:20,93981,5,task-an6x,NA,23318089,6842894,NA,complete,NA,62e030fa5712b2dfb96c1890,computer,Desktop or Laptop,Windows 10,Chrome 103.0.0.0,1280x1024,1280x891,NA,ITT Ratings,3,against,1,NA,NA,NA,NA,NA,NA,NA,NA,NA,ACCEPT,batch1hes,batch1hes,33,15,1,Screen 1,continueButton,response_rating_scale_likert_active,7653.399999976158,NA,NA,Somewhat Disagree,1,0,1,0,NA,NA,NA,NA,1,statements,I want to be able to fly for holidays this summer.,1,17/05/2021 10:35,17/05/2021 11:12,2227,A few times a year,A few times a year,32,Female,-99,A levels,5,3,Against,For
18,1658859992365,26/07/2022 18:26:32,1658859992445,1,26/07/2022 19:26:32,93981,5,task-an6x,NA,23318089,6842894,NA,complete,NA,62e030fa5712b2dfb96c1890,computer,Desktop or Laptop,Windows 10,Chrome 103.0.0.0,1280x1024,1280x891,NA,ITT Ratings,3,against,1,NA,NA,NA,NA,NA,NA,NA,NA,NA,ACCEPT,batch1hes,batch1hes,8,16,1,Screen 1,continueButton,response_rating_scale_likert_active,11735.5,NA,NA,Neither Agree nor Disagree,1,0,1,0,NA,NA,NA,NA,1,statements,there are a load of people receiving the vaccine it's safe.,1,17/05/2021 10:58,17/05/2021 11:09,624,Most days,Most months,32,Female,-99,A levels,1,2,Against,For
19,1658860002210,26/07/2022 18:26:42,1658860002269,1,26/07/2022 19:26:42,93981,5,task-an6x,NA,23318089,6842894,NA,complete,NA,62e030fa5712b2dfb96c1890,computer,Desktop or Laptop,Windows 10,Chrome 103.0.0.0,1280x1024,1280x891,NA,ITT Ratings,3,against,1,NA,NA,NA,NA,NA,NA,NA,NA,NA,ACCEPT,batch1hes,batch1hes,29,17,1,Screen 1,continueButton,response_rating_scale_likert_active,9816.099999904633,NA,NA,Agree,1,0,1,0,NA,NA,NA,NA,1,statements,I am unsure about any long-term side effects that might arise from the vaccine in years to come due to how quickly the testing phase was carried out.,1,17/05/2021 10:35,17/05/2021 11:12,2227,A few times a year,A few times a year,32,Female,-99,A levels,5,2,Against,Against
20,1658860009605,26/07/2022 18:26:49,1658860009685,1,26/07/2022 19:26:49,93981,5,task-an6x,NA,23318089,6842894,NA,complete,NA,62e030fa5712b2dfb96c1890,computer,Desktop or Laptop,Windows 10,Chrome 103.0.0.0,1280x1024,1280x891,NA,ITT Ratings,3,against,1,NA,NA,NA,NA,NA,NA,NA,NA,NA,ACCEPT,batch1hes,batch1hes,12,18,1,Screen 1,continueButton,response_rating_scale_likert_active,7408,NA,NA,Somewhat Agree,1,0,1,0,NA,NA,NA,NA,1,statements,"Theories about how the vaccine has been produced, the ingredients of it, seems suspicious and doesn't seem to be effective either.",1,17/05/2021 10:56,17/05/2021 11:11,875,Most days,Most weeks,24,Female,-99,"Undergraduate degree (BSc, BA)",2,3,Against,Against
21,1658860022761,26/07/2022 18:27:02,1658860022838,1,26/07/2022 19:27:02,93981,5,task-an6x,NA,23318089,6842894,NA,complete,NA,62e030fa5712b2dfb96c1890,computer,Desktop or Laptop,Windows 10,Chrome 103.0.0.0,1280x1024,1280x891,NA,ITT Ratings,3,against,1,NA,NA,NA,NA,NA,NA,NA,NA,NA,ACCEPT,batch1hes,batch1hes,3,19,1,Screen 1,continueButton,response_rating_scale_likert_active,13143.299999952316,NA,NA,Somewhat Agree,1,0,1,0,NA,NA,NA,NA,1,statements,We would like to check you are reading each argument carefully. Please select 'Somewhat Disagree' for this answer,1,NA,NA,NA,NA,NA,NA,NA,NA,NA,NA,check2,NA,NA
22,1658860030601,26/07/2022 18:27:10,1658860030670,1,26/07/2022 19:27:10,93981,5,task-an6x,NA,23318089,6842894,NA,complete,NA,62e030fa5712b2dfb96c1890,computer,Desktop or Laptop,Windows 10,Chrome 103.0.0.0,1280x1024,1280x891,NA,ITT Ratings,3,against,1,NA,NA,NA,NA,NA,NA,NA,NA,NA,ACCEPT,batch1hes,batch1hes,60,20,1,Screen 1,continueButton,response_rating_scale_likert_active,7823,NA,NA,Agree,1,0,1,0,NA,NA,NA,NA,1,statements,The vaccine was man made,1,17/05/2021 11:06,17/05/2021 11:14,491,Once or twice a year,Most months,34,Male,-99,GCSEs,10,3,Against,Against
23,1658860038281,26/07/2022 18:27:18,1658860038357,1,26/07/2022 19:27:18,93981,5,task-an6x,NA,23318089,6842894,NA,complete,NA,62e030fa5712b2dfb96c1890,computer,Desktop or Laptop,Windows 10,Chrome 103.0.0.0,1280x1024,1280x891,NA,ITT Ratings,3,against,1,NA,NA,NA,NA,NA,NA,NA,NA,NA,ACCEPT,batch1hes,batch1hes,45,21,1,Screen 1,continueButton,response_rating_scale_likert_active,7678.600000023842,NA,NA,Strongly Disagree,1,0,1,0,NA,NA,NA,NA,1,statements,It will stop me from getting covid.,1,17/05/2021 10:47,17/05/2021 11:13,1550,Most months,Most months,49,Male,-99,Vocational Training / Apprenticeship,7,3,Against,For
24,1658860043188,26/07/2022 18:27:23,1658860043262,1,26/07/2022 19:27:23,93981,5,task-an6x,NA,23318089,6842894,NA,complete,NA,62e030fa5712b2dfb96c1890,computer,Desktop or Laptop,Windows 10,Chrome 103.0.0.0,1280x1024,1280x891,NA,ITT Ratings,3,against,1,NA,NA,NA,NA,NA,NA,NA,NA,NA,ACCEPT,batch1hes,batch1hes,31,22,1,Screen 1,continueButton,response_rating_scale_likert_active,4896.799999952316,NA,NA,Agree,1,0,1,0,NA,NA,NA,NA,1,statements,The more people who get vaccinated the sooner the restrictions will be lifted.,1,17/05/2021 10:35,17/05/2021 11:12,2227,A few times a year,A few times a year,32,Female,-99,A levels,5,1,Against,For
25,1658860048116,26/07/2022 18:27:28,1658860048190,1,26/07/2022 19:27:28,93981,5,task-an6x,NA,23318089,6842894,NA,complete,NA,62e030fa5712b2dfb96c1890,computer,Desktop or Laptop,Windows 10,Chrome 103.0.0.0,1280x1024,1280x891,NA,ITT Ratings,3,against,1,NA,NA,NA,NA,NA,NA,NA,NA,NA,ACCEPT,batch1hes,batch1hes,48,23,1,Screen 1,continueButton,response_rating_scale_likert_active,4919.399999976158,NA,NA,Strongly Disagree,1,0,1,0,NA,NA,NA,NA,1,statements,I am undergoing treatment for cancer,1,17/05/2021 10:47,17/05/2021 11:14,1618,Most days,Most days,54,Male,-99,Vocational Training / Apprenticeship,8,3,Against,Against
26,1658860052089,26/07/2022 18:27:32,1658860052166,1,26/07/2022 19:27:32,93981,5,task-an6x,NA,23318089,6842894,NA,complete,NA,62e030fa5712b2dfb96c1890,computer,Desktop or Laptop,Windows 10,Chrome 103.0.0.0,1280x1024,1280x891,NA,ITT Ratings,3,against,1,NA,NA,NA,NA,NA,NA,NA,NA,NA,ACCEPT,batch1hes,batch1hes,27,24,1,Screen 1,continueButton,response_rating_scale_likert_active,3968.6999999284744,NA,NA,Strongly Disagree,1,0,1,0,NA,NA,NA,NA,1,statements,We must have the vaccine in order to return to normality.,1,17/05/2021 11:04,17/05/2021 11:12,483,Most days,Most weeks,31,Female,-99,GCSEs,4,3,Against,For
27,1658860057228,26/07/2022 18:27:37,1658860057302,1,26/07/2022 19:27:37,93981,5,task-an6x,NA,23318089,6842894,NA,complete,NA,62e030fa5712b2dfb96c1890,computer,Desktop or Laptop,Windows 10,Chrome 103.0.0.0,1280x1024,1280x891,NA,ITT Ratings,3,against,1,NA,NA,NA,NA,NA,NA,NA,NA,NA,ACCEPT,batch1hes,batch1hes,20,25,1,Screen 1,continueButton,response_rating_scale_likert_active,5128.5,NA,NA,Disagree,1,0,1,0,NA,NA,NA,NA,1,statements,It has been thoroughly tested,1,17/05/2021 10:56,17/05/2021 11:12,973,Most weeks,Most weeks,49,Female,-99,GCSEs,3,2,Against,For
28,1658860060680,26/07/2022 18:27:40,1658860060766,1,26/07/2022 19:27:40,93981,5,task-an6x,NA,23318089,6842894,NA,complete,NA,62e030fa5712b2dfb96c1890,computer,Desktop or Laptop,Windows 10,Chrome 103.0.0.0,1280x1024,1280x891,NA,ITT Ratings,3,against,1,NA,NA,NA,NA,NA,NA,NA,NA,NA,ACCEPT,batch1hes,batch1hes,59,26,1,Screen 1,continueButton,response_rating_scale_likert_active,3455.7999999523163,NA,NA,Agree,1,0,1,0,NA,NA,NA,NA,1,statements,I've never had a vaccine and never will,1,17/05/2021 11:06,17/05/2021 11:14,491,Once or twice a year,Most months,34,Male,-99,GCSEs,10,2,Against,Against
29,1658860072009,26/07/2022 18:27:52,1658860072094,1,26/07/2022 19:27:52,93981,5,task-an6x,NA,23318089,6842894,NA,complete,NA,62e030fa5712b2dfb96c1890,computer,Desktop or Laptop,Windows 10,Chrome 103.0.0.0,1280x1024,1280x891,NA,ITT Ratings,3,against,1,NA,NA,NA,NA,NA,NA,NA,NA,NA,ACCEPT,batch1hes,batch1hes,57,27,1,Screen 1,continueButton,response_rating_scale_likert_active,11318.899999976158,NA,NA,Disagree,1,0,1,0,NA,NA,NA,NA,1,statements,the long term benefits outweigh the temporary side-effects,1,17/05/2021 11:08,17/05/2021 11:14,344,Rarely,Most months,27,Male,-99,"Undergraduate degree (BSc, BA)",9,3,Against,For
30,1658860079938,26/07/2022 18:27:59,1658860079981,1,26/07/2022 19:27:59,93981,5,task-an6x,NA,23318089,6842894,NA,complete,NA,62e030fa5712b2dfb96c1890,computer,Desktop or Laptop,Windows 10,Chrome 103.0.0.0,1280x1024,1280x891,NA,ITT Ratings,3,against,1,NA,NA,NA,NA,NA,NA,NA,NA,NA,ACCEPT,batch1hes,batch1hes,2,28,1,Screen 1,continueButton,response_rating_scale_likert_active,7880,NA,NA,Somewhat Agree,1,0,1,0,NA,NA,NA,NA,1,statements,We would like to check you are reading each argument carefully. Please select 'Somewhat Agree' for this answer,1,NA,NA,NA,NA,NA,NA,NA,NA,NA,NA,check1,NA,NA
31,1658860086422,26/07/2022 18:28:06,1658860086493,1,26/07/2022 19:28:06,93981,5,task-an6x,NA,23318089,6842894,NA,complete,NA,62e030fa5712b2dfb96c1890,computer,Desktop or Laptop,Windows 10,Chrome 103.0.0.0,1280x1024,1280x891,NA,ITT Ratings,3,against,1,NA,NA,NA,NA,NA,NA,NA,NA,NA,ACCEPT,batch1hes,batch1hes,46,29,1,Screen 1,continueButton,response_rating_scale_likert_active,6505,NA,NA,Agree,1,0,1,0,NA,NA,NA,NA,1,statements,I would rather wait to see if there are any negative effect in people who have had the vaccine before I make up my mind,1,17/05/2021 10:47,17/05/2021 11:14,1618,Most days,Most days,54,Male,-99,Vocational Training / Apprenticeship,8,1,Against,Against
32,1658860093325,26/07/2022 18:28:13,1658860093405,1,26/07/2022 19:28:13,93981,5,task-an6x,NA,23318089,6842894,NA,complete,NA,62e030fa5712b2dfb96c1890,computer,Desktop or Laptop,Windows 10,Chrome 103.0.0.0,1280x1024,1280x891,NA,ITT Ratings,3,against,1,NA,NA,NA,NA,NA,NA,NA,NA,NA,ACCEPT,batch1hes,batch1hes,54,30,1,Screen 1,continueButton,response_rating_scale_likert_active,6902.800000071526,NA,NA,Disagree,1,0,1,0,NA,NA,NA,NA,1,statements,I get tested all the time and can afford to self-isolate,1,17/05/2021 11:08,17/05/2021 11:14,344,Rarely,Most months,27,Male,-99,"Undergraduate degree (BSc, BA)",9,3,Against,Against
33,1658860097454,26/07/2022 18:28:17,1658860097525,1,26/07/2022 19:28:17,93981,5,task-an6x,NA,23318089,6842894,NA,complete,NA,62e030fa5712b2dfb96c1890,computer,Desktop or Laptop,Windows 10,Chrome 103.0.0.0,1280x1024,1280x891,NA,ITT Ratings,3,against,1,NA,NA,NA,NA,NA,NA,NA,NA,NA,ACCEPT,batch1hes,batch1hes,44,31,1,Screen 1,continueButton,response_rating_scale_likert_active,4113.699999928474,NA,NA,Disagree,1,0,1,0,NA,NA,NA,NA,1,statements,Only a few people have died from it.,1,17/05/2021 10:47,17/05/2021 11:13,1550,Most months,Most months,49,Male,-99,Vocational Training / Apprenticeship,7,2,Against,For
34,1658860105758,26/07/2022 18:28:25,1658860105829,1,26/07/2022 19:28:25,93981,5,task-an6x,NA,23318089,6842894,NA,complete,NA,62e030fa5712b2dfb96c1890,computer,Desktop or Laptop,Windows 10,Chrome 103.0.0.0,1280x1024,1280x891,NA,ITT Ratings,3,against,1,NA,NA,NA,NA,NA,NA,NA,NA,NA,ACCEPT,batch1hes,batch1hes,6,32,1,Screen 1,continueButton,response_rating_scale_likert_active,8297.100000023842,NA,NA,Agree,1,0,1,0,NA,NA,NA,NA,1,statements,it's still in its trial stages.,1,17/05/2021 10:58,17/05/2021 11:09,624,Most days,Most months,32,Female,-99,A levels,1,3,Against,Against
35,1658860109035,26/07/2022 18:28:29,1658860109109,1,26/07/2022 19:28:29,93981,5,task-an6x,NA,23318089,6842894,NA,complete,NA,62e030fa5712b2dfb96c1890,computer,Desktop or Laptop,Windows 10,Chrome 103.0.0.0,1280x1024,1280x891,NA,ITT Ratings,3,against,1,NA,NA,NA,NA,NA,NA,NA,NA,NA,ACCEPT,batch1hes,batch1hes,4,33,1,Screen 1,continueButton,response_rating_scale_likert_active,3271,NA,NA,Strongly Agree,1,0,1,0,NA,NA,NA,NA,1,statements,"the vaccine has side effects.

",1,17/05/2021 10:58,17/05/2021 11:09,624,Most days,Most months,32,Female,-99,A levels,1,1,Against,Against
36,1658860114850,26/07/2022 18:28:34,1658860114917,1,26/07/2022 19:28:34,93981,5,task-an6x,NA,23318089,6842894,NA,complete,NA,62e030fa5712b2dfb96c1890,computer,Desktop or Laptop,Windows 10,Chrome 103.0.0.0,1280x1024,1280x891,NA,ITT Ratings,3,against,1,NA,NA,NA,NA,NA,NA,NA,NA,NA,ACCEPT,batch1hes,batch1hes,10,34,1,Screen 1,continueButton,response_rating_scale_likert_active,5800.299999952316,NA,NA,Strongly Agree,1,0,1,0,NA,NA,NA,NA,1,statements,I'm worried about the side effects from the vaccine especially if I have underlying health conditions that can be affected through the vaccine.,1,17/05/2021 10:56,17/05/2021 11:11,875,Most days,Most weeks,24,Female,-99,"Undergraduate degree (BSc, BA)",2,1,Against,Against
37,1658860121593,26/07/2022 18:28:41,1658860121677,1,26/07/2022 19:28:41,93981,5,task-an6x,NA,23318089,6842894,NA,complete,NA,62e030fa5712b2dfb96c1890,computer,Desktop or Laptop,Windows 10,Chrome 103.0.0.0,1280x1024,1280x891,NA,ITT Ratings,3,against,1,NA,NA,NA,NA,NA,NA,NA,NA,NA,ACCEPT,batch1hes,batch1hes,30,35,1,Screen 1,continueButton,response_rating_scale_likert_active,6752.200000047684,NA,NA,Disagree,1,0,1,0,NA,NA,NA,NA,1,statements,I don't even know anyone who has had Covid never mind anyone who has been hospitalised or died from it.,1,17/05/2021 10:35,17/05/2021 11:12,2227,A few times a year,A few times a year,32,Female,-99,A levels,5,3,Against,Against
38,1658860129098,26/07/2022 18:28:49,1658860129181,1,26/07/2022 19:28:49,93981,5,task-an6x,NA,23318089,6842894,NA,complete,NA,62e030fa5712b2dfb96c1890,computer,Desktop or Laptop,Windows 10,Chrome 103.0.0.0,1280x1024,1280x891,NA,ITT Ratings,3,against,1,NA,NA,NA,NA,NA,NA,NA,NA,NA,ACCEPT,batch1hes,batch1hes,39,36,1,Screen 1,continueButton,response_rating_scale_likert_active,7496.899999976158,NA,NA,Agree,1,0,1,0,NA,NA,NA,NA,1,statements,To be able to go on holiday,1,17/05/2021 10:58,17/05/2021 11:12,875,Most weeks,Most days,32,Female,-99,A levels,6,3,Against,For
39,1658860142199,26/07/2022 18:29:02,1658860142270,1,26/07/2022 19:29:02,93981,5,task-an6x,NA,23318089,6842894,NA,complete,NA,62e030fa5712b2dfb96c1890,computer,Desktop or Laptop,Windows 10,Chrome 103.0.0.0,1280x1024,1280x891,NA,ITT Ratings,3,against,1,NA,NA,NA,NA,NA,NA,NA,NA,NA,ACCEPT,batch1hes,batch1hes,62,37,1,Screen 1,continueButton,response_rating_scale_likert_active,13080.399999976158,NA,NA,Somewhat Agree,1,0,1,0,NA,NA,NA,NA,1,statements,The news said its effective,1,17/05/2021 11:06,17/05/2021 11:14,491,Once or twice a year,Most months,34,Male,-99,GCSEs,10,2,Against,For
40,1658860146797,26/07/2022 18:29:06,1658860146878,1,26/07/2022 19:29:06,93981,5,task-an6x,NA,23318089,6842894,NA,complete,NA,62e030fa5712b2dfb96c1890,computer,Desktop or Laptop,Windows 10,Chrome 103.0.0.0,1280x1024,1280x891,NA,ITT Ratings,3,against,1,NA,NA,NA,NA,NA,NA,NA,NA,NA,ACCEPT,batch1hes,batch1hes,43,38,1,Screen 1,continueButton,response_rating_scale_likert_active,4599,NA,NA,Disagree,1,0,1,0,NA,NA,NA,NA,1,statements,It's safe the government said so.,1,17/05/2021 10:47,17/05/2021 11:13,1550,Most months,Most months,49,Male,-99,Vocational Training / Apprenticeship,7,1,Against,For
41,1658860148878,26/07/2022 18:29:08,1658860148958,1,26/07/2022 19:29:08,93981,5,task-an6x,NA,23318089,6842894,NA,complete,NA,62e030fa5712b2dfb96c1890,computer,Desktop or Laptop,Windows 10,Chrome 103.0.0.0,1280x1024,1280x891,NA,ITT Ratings,3,against,1,NA,NA,NA,NA,NA,NA,NA,NA,NA,ACCEPT,batch1hes,batch1hes,21,39,1,Screen 1,continueButton,response_rating_scale_likert_active,2072.1999999284744,NA,NA,Disagree,1,0,1,0,NA,NA,NA,NA,1,statements,It protects everyone,1,17/05/2021 10:56,17/05/2021 11:12,973,Most weeks,Most weeks,49,Female,-99,GCSEs,3,3,Against,For
42,1658860154053,26/07/2022 18:29:14,1658860154134,1,26/07/2022 19:29:14,93981,5,task-an6x,NA,23318089,6842894,NA,complete,NA,62e030fa5712b2dfb96c1890,computer,Desktop or Laptop,Windows 10,Chrome 103.0.0.0,1280x1024,1280x891,NA,ITT Ratings,3,against,1,NA,NA,NA,NA,NA,NA,NA,NA,NA,ACCEPT,batch1hes,batch1hes,50,40,1,Screen 1,continueButton,response_rating_scale_likert_active,5168,NA,NA,Agree,1,0,1,0,NA,NA,NA,NA,1,statements,Because I am old and therefore at a higher risk of dying if I caught Covid,1,17/05/2021 10:47,17/05/2021 11:14,1618,Most days,Most days,54,Male,-99,Vocational Training / Apprenticeship,8,2,Against,For
43,1658860157123,26/07/2022 18:29:17,1658860157198,1,26/07/2022 19:29:17,93981,5,task-an6x,NA,23318089,6842894,NA,complete,NA,62e030fa5712b2dfb96c1890,computer,Desktop or Laptop,Windows 10,Chrome 103.0.0.0,1280x1024,1280x891,NA,ITT Ratings,3,against,1,NA,NA,NA,NA,NA,NA,NA,NA,NA,ACCEPT,batch1hes,batch1hes,37,41,1,Screen 1,continueButton,response_rating_scale_likert_active,3055.2999999523163,NA,NA,Strongly Agree,1,0,1,0,NA,NA,NA,NA,1,statements,I want to get my freedoms back,1,17/05/2021 10:58,17/05/2021 11:12,875,Most weeks,Most days,32,Female,-99,A levels,6,1,Against,For
44,1658860160958,26/07/2022 18:29:20,1658860160958,1,26/07/2022 19:29:20,93981,5,task-an6x,NA,23318089,6842894,NA,complete,NA,62e030fa5712b2dfb96c1890,computer,Desktop or Laptop,Windows 10,Chrome 103.0.0.0,1280x1024,1280x891,NA,ITT Ratings,3,against,1,NA,NA,NA,NA,NA,NA,NA,NA,NA,ACCEPT,batch1hes,batch1hes,19,42,1,Screen 1,continueButton,response_rating_scale_likert_active,3751.5,NA,NA,Disagree,1,0,1,0,NA,NA,NA,NA,1,statements,Its the only way to stop the spread of the virus,1,17/05/2021 10:56,17/05/2021 11:12,973,Most weeks,Most weeks,49,Female,-99,GCSEs,3,1,Against,For
45,1658860165175,26/07/2022 18:29:25,1658860165254,1,26/07/2022 19:29:25,93981,5,task-an6x,NA,23318089,6842894,NA,complete,NA,62e030fa5712b2dfb96c1890,computer,Desktop or Laptop,Windows 10,Chrome 103.0.0.0,1280x1024,1280x891,NA,ITT Ratings,3,against,1,NA,NA,NA,NA,NA,NA,NA,NA,NA,ACCEPT,batch1hes,batch1hes,63,43,1,Screen 1,continueButton,response_rating_scale_likert_active,4286.399999976158,NA,NA,Agree,1,0,1,0,NA,NA,NA,NA,1,statements,Im doing my bit to help,1,17/05/2021 11:06,17/05/2021 11:14,491,Once or twice a year,Most months,34,Male,-99,GCSEs,10,3,Against,For
46,1658860180536,26/07/2022 18:29:40,1658860180614,1,26/07/2022 19:29:40,93981,5,task-an6x,NA,23318089,6842894,NA,complete,NA,62e030fa5712b2dfb96c1890,computer,Desktop or Laptop,Windows 10,Chrome 103.0.0.0,1280x1024,1280x891,NA,ITT Ratings,3,against,1,NA,NA,NA,NA,NA,NA,NA,NA,NA,ACCEPT,batch1hes,batch1hes,28,44,1,Screen 1,continueButton,response_rating_scale_likert_active,15352.600000023842,NA,NA,Somewhat Agree,1,0,1,0,NA,NA,NA,NA,1,statements,The risk of dying from Covid is only 0.03% unless you have an underlying health problem.,1,17/05/2021 10:35,17/05/2021 11:12,2227,A few times a year,A few times a year,32,Female,-99,A levels,5,1,Against,Against
47,1658860184511,26/07/2022 18:29:44,1658860184590,1,26/07/2022 19:29:44,93981,5,task-an6x,NA,23318089,6842894,NA,complete,NA,62e030fa5712b2dfb96c1890,computer,Desktop or Laptop,Windows 10,Chrome 103.0.0.0,1280x1024,1280x891,NA,ITT Ratings,3,against,1,NA,NA,NA,NA,NA,NA,NA,NA,NA,ACCEPT,batch1hes,batch1hes,23,45,1,Screen 1,continueButton,response_rating_scale_likert_active,3967.700000047684,NA,NA,Somewhat Agree,1,0,1,0,NA,NA,NA,NA,1,statements,Its not been developed for long enough.,1,17/05/2021 11:04,17/05/2021 11:12,483,Most days,Most weeks,31,Female,-99,GCSEs,4,2,Against,Against
48,1658860191796,26/07/2022 18:29:51,1658860191878,1,26/07/2022 19:29:51,93981,5,task-an6x,NA,23318089,6842894,NA,complete,NA,62e030fa5712b2dfb96c1890,computer,Desktop or Laptop,Windows 10,Chrome 103.0.0.0,1280x1024,1280x891,NA,ITT Ratings,3,against,1,NA,NA,NA,NA,NA,NA,NA,NA,NA,ACCEPT,batch1hes,batch1hes,26,46,1,Screen 1,continueButton,response_rating_scale_likert_active,7279,NA,NA,Somewhat Agree,1,0,1,0,NA,NA,NA,NA,1,statements,It is important to receive the vaccine to protect your health and the health of others.,1,17/05/2021 11:04,17/05/2021 11:12,483,Most days,Most weeks,31,Female,-99,GCSEs,4,2,Against,For
49,1658860197918,26/07/2022 18:29:57,1658860197997,1,26/07/2022 19:29:57,93981,5,task-an6x,NA,23318089,6842894,NA,complete,NA,62e030fa5712b2dfb96c1890,computer,Desktop or Laptop,Windows 10,Chrome 103.0.0.0,1280x1024,1280x891,NA,ITT Ratings,3,against,1,NA,NA,NA,NA,NA,NA,NA,NA,NA,ACCEPT,batch1hes,batch1hes,22,47,1,Screen 1,continueButton,response_rating_scale_likert_active,6111.300000071526,NA,NA,Neither Agree nor Disagree,1,0,1,0,NA,NA,NA,NA,1,statements,The vaccine is not safe to receive.,1,17/05/2021 11:04,17/05/2021 11:12,483,Most days,Most weeks,31,Female,-99,GCSEs,4,1,Against,Against
50,1658860209679,26/07/2022 18:30:09,1658860209757,1,26/07/2022 19:30:09,93981,5,task-an6x,NA,23318089,6842894,NA,complete,NA,62e030fa5712b2dfb96c1890,computer,Desktop or Laptop,Windows 10,Chrome 103.0.0.0,1280x1024,1280x891,NA,ITT Ratings,3,against,1,NA,NA,NA,NA,NA,NA,NA,NA,NA,ACCEPT,batch1hes,batch1hes,47,48,1,Screen 1,continueButton,response_rating_scale_likert_active,11750.399999976158,NA,NA,Agree,1,0,1,0,NA,NA,NA,NA,1,statements,"I would like to see the figures for people who have died within 28 days of having a vaccine, not just the number of deaths after having a positive test",1,17/05/2021 10:47,17/05/2021 11:14,1618,Most days,Most days,54,Male,-99,Vocational Training / Apprenticeship,8,2,Against,Against
51,1658860216604,26/07/2022 18:30:16,1658860216677,1,26/07/2022 19:30:16,93981,5,task-an6x,NA,23318089,6842894,NA,complete,NA,62e030fa5712b2dfb96c1890,computer,Desktop or Laptop,Windows 10,Chrome 103.0.0.0,1280x1024,1280x891,NA,ITT Ratings,3,against,1,NA,NA,NA,NA,NA,NA,NA,NA,NA,ACCEPT,batch1hes,batch1hes,15,49,1,Screen 1,continueButton,response_rating_scale_likert_active,6912.100000023842,NA,NA,Disagree,1,0,1,0,NA,NA,NA,NA,1,statements,Protects others around you from catching the virus?,1,17/05/2021 10:56,17/05/2021 11:11,875,Most days,Most weeks,24,Female,-99,"Undergraduate degree (BSc, BA)",2,3,Against,For
52,1658860219648,26/07/2022 18:30:19,1658860219733,1,26/07/2022 19:30:19,93981,5,task-an6x,NA,23318089,6842894,NA,complete,NA,62e030fa5712b2dfb96c1890,computer,Desktop or Laptop,Windows 10,Chrome 103.0.0.0,1280x1024,1280x891,NA,ITT Ratings,3,against,1,NA,NA,NA,NA,NA,NA,NA,NA,NA,ACCEPT,batch1hes,batch1hes,14,50,1,Screen 1,continueButton,response_rating_scale_likert_active,3048.899999976158,NA,NA,Disagree,1,0,1,0,NA,NA,NA,NA,1,statements,Prevents you from catching the virus or getting severe symptoms.,1,17/05/2021 10:56,17/05/2021 11:11,875,Most days,Most weeks,24,Female,-99,"Undergraduate degree (BSc, BA)",2,2,Against,For
53,1658860224597,26/07/2022 18:30:24,1658860224686,1,26/07/2022 19:30:24,93981,5,task-an6x,NA,23318089,6842894,NA,complete,NA,62e030fa5712b2dfb96c1890,computer,Desktop or Laptop,Windows 10,Chrome 103.0.0.0,1280x1024,1280x891,NA,ITT Ratings,3,against,1,NA,NA,NA,NA,NA,NA,NA,NA,NA,ACCEPT,batch1hes,batch1hes,41,51,1,Screen 1,continueButton,response_rating_scale_likert_active,4945.699999928474,NA,NA,Agree,1,0,1,0,NA,NA,NA,NA,1,statements,I believe one of the vaccine companies is been taken to court in the USA because of people getting cancer from one it's other products.,1,17/05/2021 10:47,17/05/2021 11:13,1550,Most months,Most months,49,Male,-99,Vocational Training / Apprenticeship,7,2,Against,Against
54,1658860230879,26/07/2022 18:30:30,1658860230958,1,26/07/2022 19:30:30,93981,5,task-an6x,NA,23318089,6842894,NA,complete,NA,62e030fa5712b2dfb96c1890,computer,Desktop or Laptop,Windows 10,Chrome 103.0.0.0,1280x1024,1280x891,NA,ITT Ratings,3,against,1,NA,NA,NA,NA,NA,NA,NA,NA,NA,ACCEPT,batch1hes,batch1hes,53,52,1,Screen 1,continueButton,response_rating_scale_likert_active,6261.900000095367,NA,NA,Neither Agree nor Disagree,1,0,1,0,NA,NA,NA,NA,1,statements,I am living in a country where the outbreak has been managed well/practically non-existent,1,17/05/2021 11:08,17/05/2021 11:14,344,Rarely,Most months,27,Male,-99,"Undergraduate degree (BSc, BA)",9,2,Against,Against
55,1658860235015,26/07/2022 18:30:35,1658860235094,1,26/07/2022 19:30:35,93981,5,task-an6x,NA,23318089,6842894,NA,complete,NA,62e030fa5712b2dfb96c1890,computer,Desktop or Laptop,Windows 10,Chrome 103.0.0.0,1280x1024,1280x891,NA,ITT Ratings,3,against,1,NA,NA,NA,NA,NA,NA,NA,NA,NA,ACCEPT,batch1hes,batch1hes,58,53,1,Screen 1,continueButton,response_rating_scale_likert_active,4127.199999928474,NA,NA,Agree,1,0,1,0,NA,NA,NA,NA,1,statements,I don't know what's in it,1,17/05/2021 11:06,17/05/2021 11:14,491,Once or twice a year,Most months,34,Male,-99,GCSEs,10,1,Against,Against
56,1658860240819,26/07/2022 18:30:40,1658860240901,1,26/07/2022 19:30:40,93981,5,task-an6x,NA,23318089,6842894,NA,complete,NA,62e030fa5712b2dfb96c1890,computer,Desktop or Laptop,Windows 10,Chrome 103.0.0.0,1280x1024,1280x891,NA,ITT Ratings,3,against,1,NA,NA,NA,NA,NA,NA,NA,NA,NA,ACCEPT,batch1hes,batch1hes,17,54,1,Screen 1,continueButton,response_rating_scale_likert_active,5799,NA,NA,Somewhat Disagree,1,0,1,0,NA,NA,NA,NA,1,statements,Im not mixing with other people,1,17/05/2021 10:56,17/05/2021 11:12,973,Most weeks,Most weeks,49,Female,-99,GCSEs,3,2,Against,Against
57,1658860252216,26/07/2022 18:30:52,1658860252286,1,26/07/2022 19:30:52,93981,5,task-an6x,NA,23318089,6842894,NA,complete,NA,62e030fa5712b2dfb96c1890,computer,Desktop or Laptop,Windows 10,Chrome 103.0.0.0,1280x1024,1280x891,NA,ITT Ratings,3,against,1,NA,NA,NA,NA,NA,NA,NA,NA,NA,ACCEPT,batch1hes,batch1hes,13,55,1,Screen 1,continueButton,response_rating_scale_likert_active,11376.399999976158,NA,NA,Disagree,1,0,1,0,NA,NA,NA,NA,1,statements,Protects you against the virus so that you have immunity against it,1,17/05/2021 10:56,17/05/2021 11:11,875,Most days,Most weeks,24,Female,-99,"Undergraduate degree (BSc, BA)",2,1,Against,For
58,1658860254360,26/07/2022 18:30:54,1658860254445,1,26/07/2022 19:30:54,93981,5,task-an6x,NA,23318089,6842894,NA,complete,NA,62e030fa5712b2dfb96c1890,computer,Desktop or Laptop,Windows 10,Chrome 103.0.0.0,1280x1024,1280x891,NA,ITT Ratings,3,against,1,NA,NA,NA,NA,NA,NA,NA,NA,NA,ACCEPT,batch1hes,batch1hes,32,56,1,Screen 1,continueButton,response_rating_scale_likert_active,2149.399999976158,NA,NA,Disagree,1,0,1,0,NA,NA,NA,NA,1,statements,Everyone else is getting vaccinated.,1,17/05/2021 10:35,17/05/2021 11:12,2227,A few times a year,A few times a year,32,Female,-99,A levels,5,2,Against,For
59,1658860263415,26/07/2022 18:31:03,1658860263493,1,26/07/2022 19:31:03,93981,5,task-an6x,NA,23318089,6842894,NA,complete,NA,62e030fa5712b2dfb96c1890,computer,Desktop or Laptop,Windows 10,Chrome 103.0.0.0,1280x1024,1280x891,NA,ITT Ratings,3,against,1,NA,NA,NA,NA,NA,NA,NA,NA,NA,ACCEPT,batch1hes,batch1hes,34,57,1,Screen 1,continueButton,response_rating_scale_likert_active,9041.699999928474,NA,NA,Disagree,1,0,1,0,NA,NA,NA,NA,1,statements,The rate of death from covid-19 is very low and a vaccine isn't needed,1,17/05/2021 10:58,17/05/2021 11:12,875,Most weeks,Most days,32,Female,-99,A levels,6,1,Against,Against
60,1658860271930,26/07/2022 18:31:11,1658860271957,1,26/07/2022 19:31:11,93981,5,task-an6x,NA,23318089,6842894,NA,complete,NA,62e030fa5712b2dfb96c1890,computer,Desktop or Laptop,Windows 10,Chrome 103.0.0.0,1280x1024,1280x891,NA,ITT Ratings,3,against,1,NA,NA,NA,NA,NA,NA,NA,NA,NA,ACCEPT,batch1hes,batch1hes,42,58,1,Screen 1,continueButton,response_rating_scale_likert_active,8456.399999976158,NA,NA,Agree,1,0,1,0,NA,NA,NA,NA,1,statements,I might be the one who gets the blood clots.,1,17/05/2021 10:47,17/05/2021 11:13,1550,Most months,Most months,49,Male,-99,Vocational Training / Apprenticeship,7,3,Against,Against
61,1658860279278,26/07/2022 18:31:19,1658860279357,1,26/07/2022 19:31:19,93981,5,task-an6x,NA,23318089,6842894,NA,complete,NA,62e030fa5712b2dfb96c1890,computer,Desktop or Laptop,Windows 10,Chrome 103.0.0.0,1280x1024,1280x891,NA,ITT Ratings,3,against,1,NA,NA,NA,NA,NA,NA,NA,NA,NA,ACCEPT,batch1hes,batch1hes,36,59,1,Screen 1,continueButton,response_rating_scale_likert_active,7391,NA,NA,Agree,1,0,1,0,NA,NA,NA,NA,1,statements,It is a new technology that was considered unethical before thats why it was never passed,1,17/05/2021 10:58,17/05/2021 11:12,875,Most weeks,Most days,32,Female,-99,A levels,6,3,Against,Against
62,1658860285518,26/07/2022 18:31:25,1658860285597,1,26/07/2022 19:31:25,93981,5,task-an6x,NA,23318089,6842894,NA,complete,NA,62e030fa5712b2dfb96c1890,computer,Desktop or Laptop,Windows 10,Chrome 103.0.0.0,1280x1024,1280x891,NA,ITT Ratings,3,against,1,NA,NA,NA,NA,NA,NA,NA,NA,NA,ACCEPT,batch1hes,batch1hes,11,60,1,Screen 1,continueButton,response_rating_scale_likert_active,6231.399999976158,NA,NA,Agree,1,0,1,0,NA,NA,NA,NA,1,statements,Doesn't seem trustworthy as the process to make the vaccine has been rushed in order to keep up with demands from the world to release a vaccine out soon.,1,17/05/2021 10:56,17/05/2021 11:11,875,Most days,Most weeks,24,Female,-99,"Undergraduate degree (BSc, BA)",2,2,Against,Against
63,1658860294434,26/07/2022 18:31:34,1658860294509,1,26/07/2022 19:31:34,93981,5,task-an6x,NA,23318089,6842894,NA,complete,NA,62e030fa5712b2dfb96c1890,computer,Desktop or Laptop,Windows 10,Chrome 103.0.0.0,1280x1024,1280x891,NA,ITT Ratings,3,against,1,NA,NA,NA,NA,NA,NA,NA,NA,NA,ACCEPT,batch1hes,batch1hes,9,61,1,Screen 1,continueButton,response_rating_scale_likert_active,8907.299999952316,NA,NA,Somewhat Agree,1,0,1,0,NA,NA,NA,NA,1,statements,it will help you protect yourself.,1,17/05/2021 10:58,17/05/2021 11:09,624,Most days,Most months,32,Female,-99,A levels,1,3,Against,For
64,1658860302920,26/07/2022 18:31:42,1658860302997,1,26/07/2022 19:31:42,93981,5,task-an6x,NA,23318089,6842894,NA,complete,NA,62e030fa5712b2dfb96c1890,computer,Desktop or Laptop,Windows 10,Chrome 103.0.0.0,1280x1024,1280x891,NA,ITT Ratings,3,against,1,NA,NA,NA,NA,NA,NA,NA,NA,NA,ACCEPT,batch1hes,batch1hes,52,62,1,Screen 1,continueButton,response_rating_scale_likert_active,8481.299999952316,NA,NA,Neither Agree nor Disagree,1,0,1,0,NA,NA,NA,NA,1,statements,"If enough people get a vaccine, whether I do or not is inconsequential",1,17/05/2021 11:08,17/05/2021 11:14,344,Rarely,Most months,27,Male,-99,"Undergraduate degree (BSc, BA)",9,1,Against,Against
65,1658860302982,26/07/2022 18:31:42,1658860303001,1,26/07/2022 19:31:43,93981,5,task-an6x,NA,23318089,6842894,NA,complete,NA,62e030fa5712b2dfb96c1890,computer,Desktop or Laptop,Windows 10,Chrome 103.0.0.0,1280x1024,1280x891,NA,ITT Ratings,3,against,1,NA,NA,NA,NA,NA,NA,NA,NA,NA,ACCEPT,batch1hes,NA,NA,END TASK,NA,NA,NA,NA,456333,NA,NA,NA,NA,0,1,0,NA,NA,NA,NA,NA,NA,NA,NA,NA,NA,NA,NA,NA,NA,NA,NA,NA,NA,NA,NA,NA
1,1658861293645,26/07/2022 18:48:13,1658861292787,1,26/07/2022 19:48:12,93981,5,task-an6x,NA,23318619,6843053,NA,complete,NA,62e036b764dddc8113785a31,tablet,Samsung SM-T590,Android 10,Chrome 103.0.0.0,1280x800,1280x632,NA,ITT Ratings,3,against,1,NA,NA,NA,NA,NA,NA,NA,NA,NA,ACCEPT,batch1hes,NA,NA,BEGIN TASK,NA,NA,NA,NA,NA,NA,NA,NA,NA,0,1,0,NA,NA,NA,NA,NA,NA,NA,NA,NA,NA,NA,NA,NA,NA,NA,NA,NA,NA,NA,NA,NA
2,1658861303419,26/07/2022 18:48:23,1658861302025,1,26/07/2022 19:48:22,93981,5,task-an6x,NA,23318619,6843053,NA,complete,NA,62e036b764dddc8113785a31,tablet,Samsung SM-T590,Android 10,Chrome 103.0.0.0,1280x800,1280x632,NA,ITT Ratings,3,against,1,NA,NA,NA,NA,NA,NA,NA,NA,NA,ACCEPT,batch1hes,batch1hes,1,1,1,Screen 1,advancementZone,continue_button,8958.90000000596,NA,NA,NA,NA,0,1,0,NA,NA,NA,NA,NA,instructions,NA,NA,NA,NA,NA,NA,NA,NA,NA,NA,NA,NA,NA,NA,NA
3,1658861310935,26/07/2022 18:48:30,1658861309848,1,26/07/2022 19:48:29,93981,5,task-an6x,NA,23318619,6843053,NA,complete,NA,62e036b764dddc8113785a31,tablet,Samsung SM-T590,Android 10,Chrome 103.0.0.0,1280x800,1280x632,NA,ITT Ratings,3,against,1,NA,NA,NA,NA,NA,NA,NA,NA,NA,ACCEPT,batch1hes,batch1hes,38,1,1,Screen 1,continueButton,response_rating_scale_likert_active,7733.299999982119,NA,NA,Strongly Disagree,1,0,1,0,NA,NA,NA,NA,1,statements,Everyone has to have one so life can go back to normal,1,17/05/2021 10:58,17/05/2021 11:12,875,Most weeks,Most days,32,Female,-99,A levels,6,2,Against,For
4,1658861313850,26/07/2022 18:48:33,1658861312936,1,26/07/2022 19:48:32,93981,5,task-an6x,NA,23318619,6843053,NA,complete,NA,62e036b764dddc8113785a31,tablet,Samsung SM-T590,Android 10,Chrome 103.0.0.0,1280x800,1280x632,NA,ITT Ratings,3,against,1,NA,NA,NA,NA,NA,NA,NA,NA,NA,ACCEPT,batch1hes,batch1hes,20,2,1,Screen 1,continueButton,response_rating_scale_likert_active,3007.2000000178814,NA,NA,Somewhat Disagree,1,0,1,0,NA,NA,NA,NA,1,statements,It has been thoroughly tested,1,17/05/2021 10:56,17/05/2021 11:12,973,Most weeks,Most weeks,49,Female,-99,GCSEs,3,2,Against,For
5,1658861317861,26/07/2022 18:48:37,1658861317056,1,26/07/2022 19:48:37,93981,5,task-an6x,NA,23318619,6843053,NA,complete,NA,62e036b764dddc8113785a31,tablet,Samsung SM-T590,Android 10,Chrome 103.0.0.0,1280x800,1280x632,NA,ITT Ratings,3,against,1,NA,NA,NA,NA,NA,NA,NA,NA,NA,ACCEPT,batch1hes,batch1hes,42,3,1,Screen 1,continueButton,response_rating_scale_likert_active,4048.300000011921,NA,NA,Strongly Agree,1,0,1,0,NA,NA,NA,NA,1,statements,I might be the one who gets the blood clots.,1,17/05/2021 10:47,17/05/2021 11:13,1550,Most months,Most months,49,Male,-99,Vocational Training / Apprenticeship,7,3,Against,Against
6,1658861321034,26/07/2022 18:48:41,1658861320174,1,26/07/2022 19:48:40,93981,5,task-an6x,NA,23318619,6843053,NA,complete,NA,62e036b764dddc8113785a31,tablet,Samsung SM-T590,Android 10,Chrome 103.0.0.0,1280x800,1280x632,NA,ITT Ratings,3,against,1,NA,NA,NA,NA,NA,NA,NA,NA,NA,ACCEPT,batch1hes,batch1hes,19,4,1,Screen 1,continueButton,response_rating_scale_likert_active,3046.9000000059605,NA,NA,Disagree,1,0,1,0,NA,NA,NA,NA,1,statements,Its the only way to stop the spread of the virus,1,17/05/2021 10:56,17/05/2021 11:12,973,Most weeks,Most weeks,49,Female,-99,GCSEs,3,1,Against,For
7,1658861325703,26/07/2022 18:48:45,1658861324680,1,26/07/2022 19:48:44,93981,5,task-an6x,NA,23318619,6843053,NA,complete,NA,62e036b764dddc8113785a31,tablet,Samsung SM-T590,Android 10,Chrome 103.0.0.0,1280x800,1280x632,NA,ITT Ratings,3,against,1,NA,NA,NA,NA,NA,NA,NA,NA,NA,ACCEPT,batch1hes,batch1hes,11,5,1,Screen 1,continueButton,response_rating_scale_likert_active,4438.0999999940395,NA,NA,Somewhat Agree,1,0,1,0,NA,NA,NA,NA,1,statements,Doesn't seem trustworthy as the process to make the vaccine has been rushed in order to keep up with demands from the world to release a vaccine out soon.,1,17/05/2021 10:56,17/05/2021 11:11,875,Most days,Most weeks,24,Female,-99,"Undergraduate degree (BSc, BA)",2,2,Against,Against
8,1658861327259,26/07/2022 18:48:47,1658861326452,1,26/07/2022 19:48:46,93981,5,task-an6x,NA,23318619,6843053,NA,complete,NA,62e036b764dddc8113785a31,tablet,Samsung SM-T590,Android 10,Chrome 103.0.0.0,1280x800,1280x632,NA,ITT Ratings,3,against,1,NA,NA,NA,NA,NA,NA,NA,NA,NA,ACCEPT,batch1hes,batch1hes,10,6,1,Screen 1,continueButton,response_rating_scale_likert_active,1701.5999999940395,NA,NA,Somewhat Agree,1,0,1,0,NA,NA,NA,NA,1,statements,I'm worried about the side effects from the vaccine especially if I have underlying health conditions that can be affected through the vaccine.,1,17/05/2021 10:56,17/05/2021 11:11,875,Most days,Most weeks,24,Female,-99,"Undergraduate degree (BSc, BA)",2,1,Against,Against
9,1658861332232,26/07/2022 18:48:52,1658861331333,1,26/07/2022 19:48:51,93981,5,task-an6x,NA,23318619,6843053,NA,complete,NA,62e036b764dddc8113785a31,tablet,Samsung SM-T590,Android 10,Chrome 103.0.0.0,1280x800,1280x632,NA,ITT Ratings,3,against,1,NA,NA,NA,NA,NA,NA,NA,NA,NA,ACCEPT,batch1hes,batch1hes,61,7,1,Screen 1,continueButton,response_rating_scale_likert_active,4811.200000017881,NA,NA,Neither Agree nor Disagree,1,0,1,0,NA,NA,NA,NA,1,statements,The government said it safe,1,17/05/2021 11:06,17/05/2021 11:14,491,Once or twice a year,Most months,34,Male,-99,GCSEs,10,1,Against,For
10,1658861335343,26/07/2022 18:48:55,1658861334467,1,26/07/2022 19:48:54,93981,5,task-an6x,NA,23318619,6843053,NA,complete,NA,62e036b764dddc8113785a31,tablet,Samsung SM-T590,Android 10,Chrome 103.0.0.0,1280x800,1280x632,NA,ITT Ratings,3,against,1,NA,NA,NA,NA,NA,NA,NA,NA,NA,ACCEPT,batch1hes,batch1hes,58,8,1,Screen 1,continueButton,response_rating_scale_likert_active,3062.300000011921,NA,NA,Strongly Agree,1,0,1,0,NA,NA,NA,NA,1,statements,I don't know what's in it,1,17/05/2021 11:06,17/05/2021 11:14,491,Once or twice a year,Most months,34,Male,-99,GCSEs,10,1,Against,Against
11,1658861345479,26/07/2022 18:49:05,1658861344680,1,26/07/2022 19:49:04,93981,5,task-an6x,NA,23318619,6843053,NA,complete,NA,62e036b764dddc8113785a31,tablet,Samsung SM-T590,Android 10,Chrome 103.0.0.0,1280x800,1280x632,NA,ITT Ratings,3,against,1,NA,NA,NA,NA,NA,NA,NA,NA,NA,ACCEPT,batch1hes,batch1hes,50,9,1,Screen 1,continueButton,response_rating_scale_likert_active,10143.80000001192,NA,NA,Somewhat Disagree,1,0,1,0,NA,NA,NA,NA,1,statements,Because I am old and therefore at a higher risk of dying if I caught Covid,1,17/05/2021 10:47,17/05/2021 11:14,1618,Most days,Most days,54,Male,-99,Vocational Training / Apprenticeship,8,2,Against,For
12,1658861349984,26/07/2022 18:49:09,1658861349179,1,26/07/2022 19:49:09,93981,5,task-an6x,NA,23318619,6843053,NA,complete,NA,62e036b764dddc8113785a31,tablet,Samsung SM-T590,Android 10,Chrome 103.0.0.0,1280x800,1280x632,NA,ITT Ratings,3,against,1,NA,NA,NA,NA,NA,NA,NA,NA,NA,ACCEPT,batch1hes,batch1hes,48,10,1,Screen 1,continueButton,response_rating_scale_likert_active,4426.300000011921,NA,NA,Neither Agree nor Disagree,1,0,1,0,NA,NA,NA,NA,1,statements,I am undergoing treatment for cancer,1,17/05/2021 10:47,17/05/2021 11:14,1618,Most days,Most days,54,Male,-99,Vocational Training / Apprenticeship,8,3,Against,Against
13,1658861353720,26/07/2022 18:49:13,1658861352814,1,26/07/2022 19:49:12,93981,5,task-an6x,NA,23318619,6843053,NA,complete,NA,62e036b764dddc8113785a31,tablet,Samsung SM-T590,Android 10,Chrome 103.0.0.0,1280x800,1280x632,NA,ITT Ratings,3,against,1,NA,NA,NA,NA,NA,NA,NA,NA,NA,ACCEPT,batch1hes,batch1hes,55,11,1,Screen 1,continueButton,response_rating_scale_likert_active,3568.5,NA,NA,Strongly Agree,1,0,1,0,NA,NA,NA,NA,1,statements,better for everyone else,1,17/05/2021 11:08,17/05/2021 11:14,344,Rarely,Most months,27,Male,-99,"Undergraduate degree (BSc, BA)",9,1,Against,For
14,1658861360104,26/07/2022 18:49:20,1658861359236,1,26/07/2022 19:49:19,93981,5,task-an6x,NA,23318619,6843053,NA,complete,NA,62e036b764dddc8113785a31,tablet,Samsung SM-T590,Android 10,Chrome 103.0.0.0,1280x800,1280x632,NA,ITT Ratings,3,against,1,NA,NA,NA,NA,NA,NA,NA,NA,NA,ACCEPT,batch1hes,batch1hes,8,12,1,Screen 1,continueButton,response_rating_scale_likert_active,6356,NA,NA,Somewhat Disagree,1,0,1,0,NA,NA,NA,NA,1,statements,there are a load of people receiving the vaccine it's safe.,1,17/05/2021 10:58,17/05/2021 11:09,624,Most days,Most months,32,Female,-99,A levels,1,2,Against,For
15,1658861362631,26/07/2022 18:49:22,1658861361805,1,26/07/2022 19:49:21,93981,5,task-an6x,NA,23318619,6843053,NA,complete,NA,62e036b764dddc8113785a31,tablet,Samsung SM-T590,Android 10,Chrome 103.0.0.0,1280x800,1280x632,NA,ITT Ratings,3,against,1,NA,NA,NA,NA,NA,NA,NA,NA,NA,ACCEPT,batch1hes,batch1hes,63,13,1,Screen 1,continueButton,response_rating_scale_likert_active,2494.600000023842,NA,NA,Strongly Agree,1,0,1,0,NA,NA,NA,NA,1,statements,Im doing my bit to help,1,17/05/2021 11:06,17/05/2021 11:14,491,Once or twice a year,Most months,34,Male,-99,GCSEs,10,3,Against,For
16,1658861369325,26/07/2022 18:49:29,1658861368461,1,26/07/2022 19:49:28,93981,5,task-an6x,NA,23318619,6843053,NA,complete,NA,62e036b764dddc8113785a31,tablet,Samsung SM-T590,Android 10,Chrome 103.0.0.0,1280x800,1280x632,NA,ITT Ratings,3,against,1,NA,NA,NA,NA,NA,NA,NA,NA,NA,ACCEPT,batch1hes,batch1hes,37,14,1,Screen 1,continueButton,response_rating_scale_likert_active,6586.4000000059605,NA,NA,Somewhat Disagree,1,0,1,0,NA,NA,NA,NA,1,statements,I want to get my freedoms back,1,17/05/2021 10:58,17/05/2021 11:12,875,Most weeks,Most days,32,Female,-99,A levels,6,1,Against,For
17,1658861374114,26/07/2022 18:49:34,1658861373256,1,26/07/2022 19:49:33,93981,5,task-an6x,NA,23318619,6843053,NA,complete,NA,62e036b764dddc8113785a31,tablet,Samsung SM-T590,Android 10,Chrome 103.0.0.0,1280x800,1280x632,NA,ITT Ratings,3,against,1,NA,NA,NA,NA,NA,NA,NA,NA,NA,ACCEPT,batch1hes,batch1hes,51,15,1,Screen 1,continueButton,response_rating_scale_likert_active,4729.699999988079,NA,NA,Strongly Disagree,1,0,1,0,NA,NA,NA,NA,1,statements,Because in the end everyone will be forced to have the vaccine if they want to go on holiday or go to certain events,1,17/05/2021 10:47,17/05/2021 11:14,1618,Most days,Most days,54,Male,-99,Vocational Training / Apprenticeship,8,3,Against,For
18,1658861383157,26/07/2022 18:49:43,1658861382257,1,26/07/2022 19:49:42,93981,5,task-an6x,NA,23318619,6843053,NA,complete,NA,62e036b764dddc8113785a31,tablet,Samsung SM-T590,Android 10,Chrome 103.0.0.0,1280x800,1280x632,NA,ITT Ratings,3,against,1,NA,NA,NA,NA,NA,NA,NA,NA,NA,ACCEPT,batch1hes,batch1hes,5,16,1,Screen 1,continueButton,response_rating_scale_likert_active,8935.5,NA,NA,Disagree,1,0,1,0,NA,NA,NA,NA,1,statements,if you were to have covid you would have already.,1,17/05/2021 10:58,17/05/2021 11:09,624,Most days,Most months,32,Female,-99,A levels,1,2,Against,Against
19,1658861387348,26/07/2022 18:49:47,1658861386373,1,26/07/2022 19:49:46,93981,5,task-an6x,NA,23318619,6843053,NA,complete,NA,62e036b764dddc8113785a31,tablet,Samsung SM-T590,Android 10,Chrome 103.0.0.0,1280x800,1280x632,NA,ITT Ratings,3,against,1,NA,NA,NA,NA,NA,NA,NA,NA,NA,ACCEPT,batch1hes,batch1hes,52,17,1,Screen 1,continueButton,response_rating_scale_likert_active,4051.599999994039,NA,NA,Neither Agree nor Disagree,1,0,1,0,NA,NA,NA,NA,1,statements,"If enough people get a vaccine, whether I do or not is inconsequential",1,17/05/2021 11:08,17/05/2021 11:14,344,Rarely,Most months,27,Male,-99,"Undergraduate degree (BSc, BA)",9,1,Against,Against
20,1658861390795,26/07/2022 18:49:50,1658861389927,1,26/07/2022 19:49:49,93981,5,task-an6x,NA,23318619,6843053,NA,complete,NA,62e036b764dddc8113785a31,tablet,Samsung SM-T590,Android 10,Chrome 103.0.0.0,1280x800,1280x632,NA,ITT Ratings,3,against,1,NA,NA,NA,NA,NA,NA,NA,NA,NA,ACCEPT,batch1hes,batch1hes,13,18,1,Screen 1,continueButton,response_rating_scale_likert_active,3489.5,NA,NA,Somewhat Disagree,1,0,1,0,NA,NA,NA,NA,1,statements,Protects you against the virus so that you have immunity against it,1,17/05/2021 10:56,17/05/2021 11:11,875,Most days,Most weeks,24,Female,-99,"Undergraduate degree (BSc, BA)",2,1,Against,For
21,1658861394999,26/07/2022 18:49:54,1658861394113,1,26/07/2022 19:49:54,93981,5,task-an6x,NA,23318619,6843053,NA,complete,NA,62e036b764dddc8113785a31,tablet,Samsung SM-T590,Android 10,Chrome 103.0.0.0,1280x800,1280x632,NA,ITT Ratings,3,against,1,NA,NA,NA,NA,NA,NA,NA,NA,NA,ACCEPT,batch1hes,batch1hes,30,19,1,Screen 1,continueButton,response_rating_scale_likert_active,4116.300000011921,NA,NA,Strongly Disagree,1,0,1,0,NA,NA,NA,NA,1,statements,I don't even know anyone who has had Covid never mind anyone who has been hospitalised or died from it.,1,17/05/2021 10:35,17/05/2021 11:12,2227,A few times a year,A few times a year,32,Female,-99,A levels,5,3,Against,Against
22,1658861400755,26/07/2022 18:50:00,1658861399922,1,26/07/2022 19:49:59,93981,5,task-an6x,NA,23318619,6843053,NA,complete,NA,62e036b764dddc8113785a31,tablet,Samsung SM-T590,Android 10,Chrome 103.0.0.0,1280x800,1280x632,NA,ITT Ratings,3,against,1,NA,NA,NA,NA,NA,NA,NA,NA,NA,ACCEPT,batch1hes,batch1hes,28,20,1,Screen 1,continueButton,response_rating_scale_likert_active,5744.4000000059605,NA,NA,Neither Agree nor Disagree,1,0,1,0,NA,NA,NA,NA,1,statements,The risk of dying from Covid is only 0.03% unless you have an underlying health problem.,1,17/05/2021 10:35,17/05/2021 11:12,2227,A few times a year,A few times a year,32,Female,-99,A levels,5,1,Against,Against
23,1658861404816,26/07/2022 18:50:04,1658861403898,1,26/07/2022 19:50:03,93981,5,task-an6x,NA,23318619,6843053,NA,complete,NA,62e036b764dddc8113785a31,tablet,Samsung SM-T590,Android 10,Chrome 103.0.0.0,1280x800,1280x632,NA,ITT Ratings,3,against,1,NA,NA,NA,NA,NA,NA,NA,NA,NA,ACCEPT,batch1hes,batch1hes,54,21,1,Screen 1,continueButton,response_rating_scale_likert_active,3910.300000011921,NA,NA,Somewhat Disagree,1,0,1,0,NA,NA,NA,NA,1,statements,I get tested all the time and can afford to self-isolate,1,17/05/2021 11:08,17/05/2021 11:14,344,Rarely,Most months,27,Male,-99,"Undergraduate degree (BSc, BA)",9,3,Against,Against
24,1658861410555,26/07/2022 18:50:10,1658861409630,1,26/07/2022 19:50:09,93981,5,task-an6x,NA,23318619,6843053,NA,complete,NA,62e036b764dddc8113785a31,tablet,Samsung SM-T590,Android 10,Chrome 103.0.0.0,1280x800,1280x632,NA,ITT Ratings,3,against,1,NA,NA,NA,NA,NA,NA,NA,NA,NA,ACCEPT,batch1hes,batch1hes,29,22,1,Screen 1,continueButton,response_rating_scale_likert_active,5667.800000011921,NA,NA,Strongly Agree,1,0,1,0,NA,NA,NA,NA,1,statements,I am unsure about any long-term side effects that might arise from the vaccine in years to come due to how quickly the testing phase was carried out.,1,17/05/2021 10:35,17/05/2021 11:12,2227,A few times a year,A few times a year,32,Female,-99,A levels,5,2,Against,Against
25,1658861412935,26/07/2022 18:50:12,1658861412145,1,26/07/2022 19:50:12,93981,5,task-an6x,NA,23318619,6843053,NA,complete,NA,62e036b764dddc8113785a31,tablet,Samsung SM-T590,Android 10,Chrome 103.0.0.0,1280x800,1280x632,NA,ITT Ratings,3,against,1,NA,NA,NA,NA,NA,NA,NA,NA,NA,ACCEPT,batch1hes,batch1hes,27,23,1,Screen 1,continueButton,response_rating_scale_likert_active,2449.4000000059605,NA,NA,Strongly Disagree,1,0,1,0,NA,NA,NA,NA,1,statements,We must have the vaccine in order to return to normality.,1,17/05/2021 11:04,17/05/2021 11:12,483,Most days,Most weeks,31,Female,-99,GCSEs,4,3,Against,For
26,1658861415715,26/07/2022 18:50:15,1658861414815,1,26/07/2022 19:50:14,93981,5,task-an6x,NA,23318619,6843053,NA,complete,NA,62e036b764dddc8113785a31,tablet,Samsung SM-T590,Android 10,Chrome 103.0.0.0,1280x800,1280x632,NA,ITT Ratings,3,against,1,NA,NA,NA,NA,NA,NA,NA,NA,NA,ACCEPT,batch1hes,batch1hes,33,24,1,Screen 1,continueButton,response_rating_scale_likert_active,2605.2999999821186,NA,NA,Strongly Disagree,1,0,1,0,NA,NA,NA,NA,1,statements,I want to be able to fly for holidays this summer.,1,17/05/2021 10:35,17/05/2021 11:12,2227,A few times a year,A few times a year,32,Female,-99,A levels,5,3,Against,For
27,1658861417733,26/07/2022 18:50:17,1658861416807,1,26/07/2022 19:50:16,93981,5,task-an6x,NA,23318619,6843053,NA,complete,NA,62e036b764dddc8113785a31,tablet,Samsung SM-T590,Android 10,Chrome 103.0.0.0,1280x800,1280x632,NA,ITT Ratings,3,against,1,NA,NA,NA,NA,NA,NA,NA,NA,NA,ACCEPT,batch1hes,batch1hes,18,25,1,Screen 1,continueButton,response_rating_scale_likert_active,1929.399999976158,NA,NA,Strongly Agree,1,0,1,0,NA,NA,NA,NA,1,statements,Im unsure of the long term affects,1,17/05/2021 10:56,17/05/2021 11:12,973,Most weeks,Most weeks,49,Female,-99,GCSEs,3,3,Against,Against
28,1658861418079,26/07/2022 18:50:18,1658861417075,1,26/07/2022 19:50:17,93981,5,task-an6x,NA,23318619,6843053,NA,complete,NA,62e036b764dddc8113785a31,tablet,Samsung SM-T590,Android 10,Chrome 103.0.0.0,1280x800,1280x632,NA,ITT Ratings,3,against,1,NA,NA,NA,NA,NA,NA,NA,NA,NA,ACCEPT,batch1hes,batch1hes,26,26,1,Screen 1,continueButton,response_rating_scale_likert_active,209.7999999821186,NA,NA,Strongly Agree,1,0,1,0,NA,NA,NA,NA,1,statements,It is important to receive the vaccine to protect your health and the health of others.,1,17/05/2021 11:04,17/05/2021 11:12,483,Most days,Most weeks,31,Female,-99,GCSEs,4,2,Against,For
29,1658861422089,26/07/2022 18:50:22,1658861421262,1,26/07/2022 19:50:21,93981,5,task-an6x,NA,23318619,6843053,NA,complete,NA,62e036b764dddc8113785a31,tablet,Samsung SM-T590,Android 10,Chrome 103.0.0.0,1280x800,1280x632,NA,ITT Ratings,3,against,1,NA,NA,NA,NA,NA,NA,NA,NA,NA,ACCEPT,batch1hes,batch1hes,44,27,1,Screen 1,continueButton,response_rating_scale_likert_active,4134.100000023842,NA,NA,Somewhat Disagree,1,0,1,0,NA,NA,NA,NA,1,statements,Only a few people have died from it.,1,17/05/2021 10:47,17/05/2021 11:13,1550,Most months,Most months,49,Male,-99,Vocational Training / Apprenticeship,7,2,Against,For
30,1658861425997,26/07/2022 18:50:25,1658861425157,1,26/07/2022 19:50:25,93981,5,task-an6x,NA,23318619,6843053,NA,complete,NA,62e036b764dddc8113785a31,tablet,Samsung SM-T590,Android 10,Chrome 103.0.0.0,1280x800,1280x632,NA,ITT Ratings,3,against,1,NA,NA,NA,NA,NA,NA,NA,NA,NA,ACCEPT,batch1hes,batch1hes,17,28,1,Screen 1,continueButton,response_rating_scale_likert_active,3831,NA,NA,Neither Agree nor Disagree,1,0,1,0,NA,NA,NA,NA,1,statements,Im not mixing with other people,1,17/05/2021 10:56,17/05/2021 11:12,973,Most weeks,Most weeks,49,Female,-99,GCSEs,3,2,Against,Against
31,1658861428660,26/07/2022 18:50:28,1658861427857,1,26/07/2022 19:50:27,93981,5,task-an6x,NA,23318619,6843053,NA,complete,NA,62e036b764dddc8113785a31,tablet,Samsung SM-T590,Android 10,Chrome 103.0.0.0,1280x800,1280x632,NA,ITT Ratings,3,against,1,NA,NA,NA,NA,NA,NA,NA,NA,NA,ACCEPT,batch1hes,batch1hes,35,29,1,Screen 1,continueButton,response_rating_scale_likert_active,2636,NA,NA,Strongly Agree,1,0,1,0,NA,NA,NA,NA,1,statements,The vaccine hasn't been tested for long enough to ensure its safety and effectiveness,1,17/05/2021 10:58,17/05/2021 11:12,875,Most weeks,Most days,32,Female,-99,A levels,6,2,Against,Against
32,1658861432708,26/07/2022 18:50:32,1658861431905,1,26/07/2022 19:50:31,93981,5,task-an6x,NA,23318619,6843053,NA,complete,NA,62e036b764dddc8113785a31,tablet,Samsung SM-T590,Android 10,Chrome 103.0.0.0,1280x800,1280x632,NA,ITT Ratings,3,against,1,NA,NA,NA,NA,NA,NA,NA,NA,NA,ACCEPT,batch1hes,batch1hes,59,30,1,Screen 1,continueButton,response_rating_scale_likert_active,3984.699999988079,NA,NA,Neither Agree nor Disagree,1,0,1,0,NA,NA,NA,NA,1,statements,I've never had a vaccine and never will,1,17/05/2021 11:06,17/05/2021 11:14,491,Once or twice a year,Most months,34,Male,-99,GCSEs,10,2,Against,Against
33,1658861440629,26/07/2022 18:50:40,1658861439793,1,26/07/2022 19:50:39,93981,5,task-an6x,NA,23318619,6843053,NA,complete,NA,62e036b764dddc8113785a31,tablet,Samsung SM-T590,Android 10,Chrome 103.0.0.0,1280x800,1280x632,NA,ITT Ratings,3,against,1,NA,NA,NA,NA,NA,NA,NA,NA,NA,ACCEPT,batch1hes,batch1hes,41,31,1,Screen 1,continueButton,response_rating_scale_likert_active,7820.59999999404,NA,NA,Somewhat Agree,1,0,1,0,NA,NA,NA,NA,1,statements,I believe one of the vaccine companies is been taken to court in the USA because of people getting cancer from one it's other products.,1,17/05/2021 10:47,17/05/2021 11:13,1550,Most months,Most months,49,Male,-99,Vocational Training / Apprenticeship,7,2,Against,Against
