Event.Index,UTC.Timestamp,UTC.Date,Local.Timestamp,Local.Timezone,Local.Date,Experiment.ID,Experiment.Version,Tree.Node.Key,Repeat.Key,Schedule.ID,Participant.Private.ID,Participant.Starting.Group,Participant.Status,Participant.Completion.Code,Participant.External.Session.ID,Participant.Device.Type,Participant.Device,Participant.OS,Participant.Browser,Participant.Monitor.Size,Participant.Viewport.Size,Checkpoint,Task.Name,Task.Version,branch.69an,randomiser.8vg2,quota.bqtt,quota.rycs,quota.wtfi,quota.usve,quota.zgic,quota.f3yz,quota.r9vy,quota.tfqq,quota.3dga,quota.dtj6,Spreadsheet,Spreadsheet.Name,Spreadsheet.Row,Trial.Number,Screen.Number,Screen.Name,Zone.Name,Zone.Type,Reaction.Time,Reaction.Onset,Response.Type,Response,Attempt,Correct,Incorrect,Dishonest,X.Coordinate,Y.Coordinate,Timed.Out,randomise_blocks,randomise_trials,display,Arguments,ShowProgressBar,StartDate,EndDate,Duration,discuss_1,read_1,age,gender,gender_4_TEXT,edu,ID,arg_ID,Position,Arg_Position
1,1658858034292,26/07/2022 17:53:54,1658858035381,1,26/07/2022 18:53:55,93981,5,task-s8ki,NA,23317349,6842672,NA,complete,NA,62e029a9367c432837a5b771,computer,Desktop or Laptop,Windows 10,Chrome 103.0.0.0,1920x1080,1920x937,NA,ITT Ratings,3,against,6,NA,NA,NA,NA,ACCEPT,NA,NA,NA,NA,NA,batch6hes,NA,NA,BEGIN TASK,NA,NA,NA,NA,NA,NA,NA,NA,NA,0,1,0,NA,NA,NA,NA,NA,NA,NA,NA,NA,NA,NA,NA,NA,NA,NA,NA,NA,NA,NA,NA,NA
2,1658858051438,26/07/2022 17:54:11,1658858052564,1,26/07/2022 18:54:12,93981,5,task-s8ki,NA,23317349,6842672,NA,complete,NA,62e029a9367c432837a5b771,computer,Desktop or Laptop,Windows 10,Chrome 103.0.0.0,1920x1080,1920x937,NA,ITT Ratings,3,against,6,NA,NA,NA,NA,ACCEPT,NA,NA,NA,NA,NA,batch6hes,batch6hes,1,1,1,Screen 1,advancementZone,continue_button,17105.399999976158,NA,NA,NA,NA,0,1,0,NA,NA,NA,NA,NA,instructions,NA,NA,NA,NA,NA,NA,NA,NA,NA,NA,NA,NA,NA,NA,NA
3,1658858058389,26/07/2022 17:54:18,1658858059520,1,26/07/2022 18:54:19,93981,5,task-s8ki,NA,23317349,6842672,NA,complete,NA,62e029a9367c432837a5b771,computer,Desktop or Laptop,Windows 10,Chrome 103.0.0.0,1920x1080,1920x937,NA,ITT Ratings,3,against,6,NA,NA,NA,NA,ACCEPT,NA,NA,NA,NA,NA,batch6hes,batch6hes,60,1,1,Screen 1,continueButton,response_rating_scale_likert_active,6943.699999928474,NA,NA,Agree,1,0,1,0,NA,NA,NA,NA,1,statements,"Even after the vaccine, you are not guaranteed immunity.",1,17/05/2021 12:02,17/05/2021 12:17,926,Rarely,A few times a year,30,Female,-99,"Undergraduate degree (BSc, BA)",60,3,Against,Against
4,1658858063385,26/07/2022 17:54:23,1658858064494,1,26/07/2022 18:54:24,93981,5,task-s8ki,NA,23317349,6842672,NA,complete,NA,62e029a9367c432837a5b771,computer,Desktop or Laptop,Windows 10,Chrome 103.0.0.0,1920x1080,1920x937,NA,ITT Ratings,3,against,6,NA,NA,NA,NA,ACCEPT,NA,NA,NA,NA,NA,batch6hes,batch6hes,49,2,1,Screen 1,continueButton,response_rating_scale_likert_active,4959.300000071526,NA,NA,Agree,1,0,1,0,NA,NA,NA,NA,1,statements,Want to get back to normal,1,17/05/2021 12:07,17/05/2021 12:14,400,Most weeks,Rarely,28,Female,-99,"Undergraduate degree (BSc, BA)",58,1,Against,For
5,1658858074771,26/07/2022 17:54:34,1658858075892,1,26/07/2022 18:54:35,93981,5,task-s8ki,NA,23317349,6842672,NA,complete,NA,62e029a9367c432837a5b771,computer,Desktop or Laptop,Windows 10,Chrome 103.0.0.0,1920x1080,1920x937,NA,ITT Ratings,3,against,6,NA,NA,NA,NA,ACCEPT,NA,NA,NA,NA,NA,batch6hes,batch6hes,37,3,1,Screen 1,continueButton,response_rating_scale_likert_active,11389.099999904633,NA,NA,Agree,1,0,1,0,NA,NA,NA,NA,1,statements,Lessen severity of symptoms for myself,1,17/05/2021 11:56,17/05/2021 12:05,555,A few times a year,A few times a year,25,Female,-99,A levels,56,1,Against,For
6,1658858078027,26/07/2022 17:54:38,1658858079153,1,26/07/2022 18:54:39,93981,5,task-s8ki,NA,23317349,6842672,NA,complete,NA,62e029a9367c432837a5b771,computer,Desktop or Laptop,Windows 10,Chrome 103.0.0.0,1920x1080,1920x937,NA,ITT Ratings,3,against,6,NA,NA,NA,NA,ACCEPT,NA,NA,NA,NA,NA,batch6hes,batch6hes,38,4,1,Screen 1,continueButton,response_rating_scale_likert_active,3253.5,NA,NA,Disagree,1,0,1,0,NA,NA,NA,NA,1,statements,Lessen chance of spreading it,1,17/05/2021 11:56,17/05/2021 12:05,555,A few times a year,A few times a year,25,Female,-99,A levels,56,2,Against,For
7,1658858086724,26/07/2022 17:54:46,1658858087845,1,26/07/2022 18:54:47,93981,5,task-s8ki,NA,23317349,6842672,NA,complete,NA,62e029a9367c432837a5b771,computer,Desktop or Laptop,Windows 10,Chrome 103.0.0.0,1920x1080,1920x937,NA,ITT Ratings,3,against,6,NA,NA,NA,NA,ACCEPT,NA,NA,NA,NA,NA,batch6hes,batch6hes,15,5,1,Screen 1,continueButton,response_rating_scale_likert_active,8685.400000095367,NA,NA,Strongly Disagree,1,0,1,0,NA,NA,NA,NA,1,statements,"Vaccines are good, regardless of how new or experimental they are",1,17/05/2021 11:32,17/05/2021 12:00,1684,Rarely,Most months,43,Female,-99,"Undergraduate degree (BSc, BA)",52,3,Against,For
8,1658858093086,26/07/2022 17:54:53,1658858094206,1,26/07/2022 18:54:54,93981,5,task-s8ki,NA,23317349,6842672,NA,complete,NA,62e029a9367c432837a5b771,computer,Desktop or Laptop,Windows 10,Chrome 103.0.0.0,1920x1080,1920x937,NA,ITT Ratings,3,against,6,NA,NA,NA,NA,ACCEPT,NA,NA,NA,NA,NA,batch6hes,batch6hes,48,6,1,Screen 1,continueButton,response_rating_scale_likert_active,6352.299999952316,NA,NA,Neither Agree nor Disagree,1,0,1,0,NA,NA,NA,NA,1,statements,Not a risk group for covid,1,17/05/2021 12:07,17/05/2021 12:14,400,Most weeks,Rarely,28,Female,-99,"Undergraduate degree (BSc, BA)",58,3,Against,Against
9,1658858095959,26/07/2022 17:54:55,1658858097080,1,26/07/2022 18:54:57,93981,5,task-s8ki,NA,23317349,6842672,NA,complete,NA,62e029a9367c432837a5b771,computer,Desktop or Laptop,Windows 10,Chrome 103.0.0.0,1920x1080,1920x937,NA,ITT Ratings,3,against,6,NA,NA,NA,NA,ACCEPT,NA,NA,NA,NA,NA,batch6hes,batch6hes,56,7,1,Screen 1,continueButton,response_rating_scale_likert_active,2859,NA,NA,Somewhat Agree,1,0,1,0,NA,NA,NA,NA,1,statements,I want to feel safer,1,17/05/2021 11:59,17/05/2021 12:15,955,Most months,Rarely,58,Female,-99,"GCSEs,A levels",59,2,Against,For
10,1658858098648,26/07/2022 17:54:58,1658858099771,1,26/07/2022 18:54:59,93981,5,task-s8ki,NA,23317349,6842672,NA,complete,NA,62e029a9367c432837a5b771,computer,Desktop or Laptop,Windows 10,Chrome 103.0.0.0,1920x1080,1920x937,NA,ITT Ratings,3,against,6,NA,NA,NA,NA,ACCEPT,NA,NA,NA,NA,NA,batch6hes,batch6hes,58,8,1,Screen 1,continueButton,response_rating_scale_likert_active,2684.2000000476837,NA,NA,Strongly Agree,1,0,1,0,NA,NA,NA,NA,1,statements,Produced too quickly,1,17/05/2021 12:02,17/05/2021 12:17,926,Rarely,A few times a year,30,Female,-99,"Undergraduate degree (BSc, BA)",60,1,Against,Against
11,1658858101947,26/07/2022 17:55:01,1658858103068,1,26/07/2022 18:55:03,93981,5,task-s8ki,NA,23317349,6842672,NA,complete,NA,62e029a9367c432837a5b771,computer,Desktop or Laptop,Windows 10,Chrome 103.0.0.0,1920x1080,1920x937,NA,ITT Ratings,3,against,6,NA,NA,NA,NA,ACCEPT,NA,NA,NA,NA,NA,batch6hes,batch6hes,34,9,1,Screen 1,continueButton,response_rating_scale_likert_active,3289.2000000476837,NA,NA,Strongly Agree,1,0,1,0,NA,NA,NA,NA,1,statements,Don't know possible long term health complications,1,17/05/2021 11:56,17/05/2021 12:05,555,A few times a year,A few times a year,25,Female,-99,A levels,56,1,Against,Against
12,1658858109859,26/07/2022 17:55:09,1658858110997,1,26/07/2022 18:55:10,93981,5,task-s8ki,NA,23317349,6842672,NA,complete,NA,62e029a9367c432837a5b771,computer,Desktop or Laptop,Windows 10,Chrome 103.0.0.0,1920x1080,1920x937,NA,ITT Ratings,3,against,6,NA,NA,NA,NA,ACCEPT,NA,NA,NA,NA,NA,batch6hes,batch6hes,3,10,1,Screen 1,continueButton,response_rating_scale_likert_active,7921.399999976158,NA,NA,Somewhat Disagree,1,0,1,0,NA,NA,NA,NA,1,statements,We would like to check you are reading each argument carefully. Please select 'Somewhat Disagree' for this answer,1,NA,NA,NA,NA,NA,NA,NA,NA,NA,NA,check2,NA,NA
13,1658858123951,26/07/2022 17:55:23,1658858125088,1,26/07/2022 18:55:25,93981,5,task-s8ki,NA,23317349,6842672,NA,complete,NA,62e029a9367c432837a5b771,computer,Desktop or Laptop,Windows 10,Chrome 103.0.0.0,1920x1080,1920x937,NA,ITT Ratings,3,against,6,NA,NA,NA,NA,ACCEPT,NA,NA,NA,NA,NA,batch6hes,batch6hes,32,11,1,Screen 1,continueButton,response_rating_scale_likert_active,14083.199999928474,NA,NA,Strongly Disagree,1,0,1,0,NA,NA,NA,NA,1,statements,I feel as if I have to or other people will judge me.,1,17/05/2021 11:40,17/05/2021 12:02,1360,Rarely,Rarely,49,Female,-99,"Undergraduate degree (BSc, BA)",55,2,Against,For
14,1658858131092,26/07/2022 17:55:31,1658858132220,1,26/07/2022 18:55:32,93981,5,task-s8ki,NA,23317349,6842672,NA,complete,NA,62e029a9367c432837a5b771,computer,Desktop or Laptop,Windows 10,Chrome 103.0.0.0,1920x1080,1920x937,NA,ITT Ratings,3,against,6,NA,NA,NA,NA,ACCEPT,NA,NA,NA,NA,NA,batch6hes,batch6hes,30,12,1,Screen 1,continueButton,response_rating_scale_likert_active,7124.700000047684,NA,NA,Agree,1,0,1,0,NA,NA,NA,NA,1,statements,"I can carry on keeping my distance from people, wearing a mask and using hand sanitiser and keep myself and my family safe that way. It's worked so far.",1,17/05/2021 11:40,17/05/2021 12:02,1360,Rarely,Rarely,49,Female,-99,"Undergraduate degree (BSc, BA)",55,3,Against,Against
15,1658858135598,26/07/2022 17:55:35,1658858136720,1,26/07/2022 18:55:36,93981,5,task-s8ki,NA,23317349,6842672,NA,complete,NA,62e029a9367c432837a5b771,computer,Desktop or Laptop,Windows 10,Chrome 103.0.0.0,1920x1080,1920x937,NA,ITT Ratings,3,against,6,NA,NA,NA,NA,ACCEPT,NA,NA,NA,NA,NA,batch6hes,batch6hes,4,13,1,Screen 1,continueButton,response_rating_scale_likert_active,4492.5,NA,NA,Strongly Agree,1,0,1,0,NA,NA,NA,NA,1,statements,The vaccine was never tested to the gold standard.,1,17/05/2021 11:27,17/05/2021 11:58,1838,Rarely,Most days,59,Female,-99,"Undergraduate degree (BSc, BA)",51,1,Against,Against
16,1658858138560,26/07/2022 17:55:38,1658858139681,1,26/07/2022 18:55:39,93981,5,task-s8ki,NA,23317349,6842672,NA,complete,NA,62e029a9367c432837a5b771,computer,Desktop or Laptop,Windows 10,Chrome 103.0.0.0,1920x1080,1920x937,NA,ITT Ratings,3,against,6,NA,NA,NA,NA,ACCEPT,NA,NA,NA,NA,NA,batch6hes,batch6hes,45,14,1,Screen 1,continueButton,response_rating_scale_likert_active,2953.1999999284744,NA,NA,Agree,1,0,1,0,NA,NA,NA,NA,1,statements,Help society to get back to normal,1,17/05/2021 11:49,17/05/2021 12:07,1067,Most weeks,Most months,29,Female,-99,"Undergraduate degree (BSc, BA)",57,3,Against,For
17,1658858141058,26/07/2022 17:55:41,1658858142186,1,26/07/2022 18:55:42,93981,5,task-s8ki,NA,23317349,6842672,NA,complete,NA,62e029a9367c432837a5b771,computer,Desktop or Laptop,Windows 10,Chrome 103.0.0.0,1920x1080,1920x937,NA,ITT Ratings,3,against,6,NA,NA,NA,NA,ACCEPT,NA,NA,NA,NA,NA,batch6hes,batch6hes,16,15,1,Screen 1,continueButton,response_rating_scale_likert_active,2498.600000023842,NA,NA,Strongly Agree,1,0,1,0,NA,NA,NA,NA,1,statements,Not tested enough not enough clinical trials,1,17/05/2021 11:52,17/05/2021 12:02,580,Most days,Most days,33,Male,-99,GCSEs,53,1,Against,Against
18,1658858146263,26/07/2022 17:55:46,1658858147399,1,26/07/2022 18:55:47,93981,5,task-s8ki,NA,23317349,6842672,NA,complete,NA,62e029a9367c432837a5b771,computer,Desktop or Laptop,Windows 10,Chrome 103.0.0.0,1920x1080,1920x937,NA,ITT Ratings,3,against,6,NA,NA,NA,NA,ACCEPT,NA,NA,NA,NA,NA,batch6hes,batch6hes,24,16,1,Screen 1,continueButton,response_rating_scale_likert_active,5201.199999928474,NA,NA,Strongly Agree,1,0,1,0,NA,NA,NA,NA,1,statements,The vaccine does not give you full immunity ....you can still catch and transmit the virus after being vaccinated .,1,17/05/2021 11:50,17/05/2021 12:02,717,Most days,Most days,47,Female,-99,"Undergraduate degree (BSc, BA)",54,3,Against,Against
19,1658858157243,26/07/2022 17:55:57,1658858158362,1,26/07/2022 18:55:58,93981,5,task-s8ki,NA,23317349,6842672,NA,complete,NA,62e029a9367c432837a5b771,computer,Desktop or Laptop,Windows 10,Chrome 103.0.0.0,1920x1080,1920x937,NA,ITT Ratings,3,against,6,NA,NA,NA,NA,ACCEPT,NA,NA,NA,NA,NA,batch6hes,batch6hes,5,17,1,Screen 1,continueButton,response_rating_scale_likert_active,10956.100000023842,NA,NA,Strongly Agree,1,0,1,0,NA,NA,NA,NA,1,statements,"The vaccine trials have caused some very adverse reactions, ongoing complications, and even death. Some covid vaccine manufacturers have even stated these dangers themselves.",1,17/05/2021 11:27,17/05/2021 11:58,1838,Rarely,Most days,59,Female,-99,"Undergraduate degree (BSc, BA)",51,2,Against,Against
20,1658858163269,26/07/2022 17:56:03,1658858164393,1,26/07/2022 18:56:04,93981,5,task-s8ki,NA,23317349,6842672,NA,complete,NA,62e029a9367c432837a5b771,computer,Desktop or Laptop,Windows 10,Chrome 103.0.0.0,1920x1080,1920x937,NA,ITT Ratings,3,against,6,NA,NA,NA,NA,ACCEPT,NA,NA,NA,NA,NA,batch6hes,batch6hes,57,18,1,Screen 1,continueButton,response_rating_scale_likert_active,6023.600000023842,NA,NA,Somewhat Agree,1,0,1,0,NA,NA,NA,NA,1,statements,It's the only way out of this pandemic,1,17/05/2021 11:59,17/05/2021 12:15,955,Most months,Rarely,58,Female,-99,"GCSEs,A levels",59,3,Against,For
21,1658858168603,26/07/2022 17:56:08,1658858169732,1,26/07/2022 18:56:09,93981,5,task-s8ki,NA,23317349,6842672,NA,complete,NA,62e029a9367c432837a5b771,computer,Desktop or Laptop,Windows 10,Chrome 103.0.0.0,1920x1080,1920x937,NA,ITT Ratings,3,against,6,NA,NA,NA,NA,ACCEPT,NA,NA,NA,NA,NA,batch6hes,batch6hes,22,19,1,Screen 1,continueButton,response_rating_scale_likert_active,5330.5,NA,NA,Somewhat Disagree,1,0,1,0,NA,NA,NA,NA,1,statements,I rely on my natural immunity,1,17/05/2021 11:50,17/05/2021 12:02,717,Most days,Most days,47,Female,-99,"Undergraduate degree (BSc, BA)",54,1,Against,Against
22,1658858173757,26/07/2022 17:56:13,1658858174881,1,26/07/2022 18:56:14,93981,5,task-s8ki,NA,23317349,6842672,NA,complete,NA,62e029a9367c432837a5b771,computer,Desktop or Laptop,Windows 10,Chrome 103.0.0.0,1920x1080,1920x937,NA,ITT Ratings,3,against,6,NA,NA,NA,NA,ACCEPT,NA,NA,NA,NA,NA,batch6hes,batch6hes,17,20,1,Screen 1,continueButton,response_rating_scale_likert_active,5140.599999904633,NA,NA,Strongly Agree,1,0,1,0,NA,NA,NA,NA,1,statements,Big pharma taking 3.7billion in profits not giving it to everyone for free,1,17/05/2021 11:52,17/05/2021 12:02,580,Most days,Most days,33,Male,-99,GCSEs,53,2,Against,Against
23,1658858176247,26/07/2022 17:56:16,1658858177383,1,26/07/2022 18:56:17,93981,5,task-s8ki,NA,23317349,6842672,NA,complete,NA,62e029a9367c432837a5b771,computer,Desktop or Laptop,Windows 10,Chrome 103.0.0.0,1920x1080,1920x937,NA,ITT Ratings,3,against,6,NA,NA,NA,NA,ACCEPT,NA,NA,NA,NA,NA,batch6hes,batch6hes,39,21,1,Screen 1,continueButton,response_rating_scale_likert_active,2495.3000000715256,NA,NA,Agree,1,0,1,0,NA,NA,NA,NA,1,statements,Go 'back to normal',1,17/05/2021 11:56,17/05/2021 12:05,555,A few times a year,A few times a year,25,Female,-99,A levels,56,3,Against,For
24,1658858181024,26/07/2022 17:56:21,1658858182160,1,26/07/2022 18:56:22,93981,5,task-s8ki,NA,23317349,6842672,NA,complete,NA,62e029a9367c432837a5b771,computer,Desktop or Laptop,Windows 10,Chrome 103.0.0.0,1920x1080,1920x937,NA,ITT Ratings,3,against,6,NA,NA,NA,NA,ACCEPT,NA,NA,NA,NA,NA,batch6hes,batch6hes,7,22,1,Screen 1,continueButton,response_rating_scale_likert_active,4768.400000095367,NA,NA,Somewhat Agree,1,0,1,0,NA,NA,NA,NA,1,statements,I'm worried about catching the coronavirus.,1,17/05/2021 11:27,17/05/2021 11:58,1838,Rarely,Most days,59,Female,-99,"Undergraduate degree (BSc, BA)",51,1,Against,For
25,1658858183686,26/07/2022 17:56:23,1658858184808,1,26/07/2022 18:56:24,93981,5,task-s8ki,NA,23317349,6842672,NA,complete,NA,62e029a9367c432837a5b771,computer,Desktop or Laptop,Windows 10,Chrome 103.0.0.0,1920x1080,1920x937,NA,ITT Ratings,3,against,6,NA,NA,NA,NA,ACCEPT,NA,NA,NA,NA,NA,batch6hes,batch6hes,52,23,1,Screen 1,continueButton,response_rating_scale_likert_active,2641.600000023842,NA,NA,Strongly Agree,1,0,1,0,NA,NA,NA,NA,1,statements,The vaccine has not been tested for long enough,1,17/05/2021 11:59,17/05/2021 12:15,955,Most months,Rarely,58,Female,-99,"GCSEs,A levels",59,1,Against,Against
26,1658858187000,26/07/2022 17:56:27,1658858188123,1,26/07/2022 18:56:28,93981,5,task-s8ki,NA,23317349,6842672,NA,complete,NA,62e029a9367c432837a5b771,computer,Desktop or Laptop,Windows 10,Chrome 103.0.0.0,1920x1080,1920x937,NA,ITT Ratings,3,against,6,NA,NA,NA,NA,ACCEPT,NA,NA,NA,NA,NA,batch6hes,batch6hes,42,24,1,Screen 1,continueButton,response_rating_scale_likert_active,3305.2000000476837,NA,NA,Disagree,1,0,1,0,NA,NA,NA,NA,1,statements,Don't believe COVID-19 is real,1,17/05/2021 11:49,17/05/2021 12:07,1067,Most weeks,Most months,29,Female,-99,"Undergraduate degree (BSc, BA)",57,3,Against,Against
27,1658858191935,26/07/2022 17:56:31,1658858193069,1,26/07/2022 18:56:33,93981,5,task-s8ki,NA,23317349,6842672,NA,complete,NA,62e029a9367c432837a5b771,computer,Desktop or Laptop,Windows 10,Chrome 103.0.0.0,1920x1080,1920x937,NA,ITT Ratings,3,against,6,NA,NA,NA,NA,ACCEPT,NA,NA,NA,NA,NA,batch6hes,batch6hes,14,25,1,Screen 1,continueButton,response_rating_scale_likert_active,4940,NA,NA,Disagree,1,0,1,0,NA,NA,NA,NA,1,statements,"If I don't take it, I'll die from the disease.",1,17/05/2021 11:32,17/05/2021 12:00,1684,Rarely,Most months,43,Female,-99,"Undergraduate degree (BSc, BA)",52,2,Against,For
28,1658858195206,26/07/2022 17:56:35,1658858196335,1,26/07/2022 18:56:36,93981,5,task-s8ki,NA,23317349,6842672,NA,complete,NA,62e029a9367c432837a5b771,computer,Desktop or Laptop,Windows 10,Chrome 103.0.0.0,1920x1080,1920x937,NA,ITT Ratings,3,against,6,NA,NA,NA,NA,ACCEPT,NA,NA,NA,NA,NA,batch6hes,batch6hes,59,26,1,Screen 1,continueButton,response_rating_scale_likert_active,3255.2999999523163,NA,NA,Strongly Agree,1,0,1,0,NA,NA,NA,NA,1,statements,Don't know what the long term side effects of the vaccine are,1,17/05/2021 12:02,17/05/2021 12:17,926,Rarely,A few times a year,30,Female,-99,"Undergraduate degree (BSc, BA)",60,2,Against,Against
29,1658858198769,26/07/2022 17:56:38,1658858199904,1,26/07/2022 18:56:39,93981,5,task-s8ki,NA,23317349,6842672,NA,complete,NA,62e029a9367c432837a5b771,computer,Desktop or Laptop,Windows 10,Chrome 103.0.0.0,1920x1080,1920x937,NA,ITT Ratings,3,against,6,NA,NA,NA,NA,ACCEPT,NA,NA,NA,NA,NA,batch6hes,batch6hes,43,27,1,Screen 1,continueButton,response_rating_scale_likert_active,3561.2999999523163,NA,NA,Agree,1,0,1,0,NA,NA,NA,NA,1,statements,Lower infection and transmission rates,1,17/05/2021 11:49,17/05/2021 12:07,1067,Most weeks,Most months,29,Female,-99,"Undergraduate degree (BSc, BA)",57,1,Against,For
30,1658858202876,26/07/2022 17:56:42,1658858203997,1,26/07/2022 18:56:43,93981,5,task-s8ki,NA,23317349,6842672,NA,complete,NA,62e029a9367c432837a5b771,computer,Desktop or Laptop,Windows 10,Chrome 103.0.0.0,1920x1080,1920x937,NA,ITT Ratings,3,against,6,NA,NA,NA,NA,ACCEPT,NA,NA,NA,NA,NA,batch6hes,batch6hes,10,28,1,Screen 1,continueButton,response_rating_scale_likert_active,4085,NA,NA,Strongly Agree,1,0,1,0,NA,NA,NA,NA,1,statements,I don't do experimental drugs,1,17/05/2021 11:32,17/05/2021 12:00,1684,Rarely,Most months,43,Female,-99,"Undergraduate degree (BSc, BA)",52,1,Against,Against
31,1658858207657,26/07/2022 17:56:47,1658858208790,1,26/07/2022 18:56:48,93981,5,task-s8ki,NA,23317349,6842672,NA,complete,NA,62e029a9367c432837a5b771,computer,Desktop or Laptop,Windows 10,Chrome 103.0.0.0,1920x1080,1920x937,NA,ITT Ratings,3,against,6,NA,NA,NA,NA,ACCEPT,NA,NA,NA,NA,NA,batch6hes,batch6hes,26,29,1,Screen 1,continueButton,response_rating_scale_likert_active,4785.600000023842,NA,NA,Neither Agree nor Disagree,1,0,1,0,NA,NA,NA,NA,1,statements,I want to do my bit to protect the vulnerable ...so I don't pass it on to others,1,17/05/2021 11:50,17/05/2021 12:02,717,Most days,Most days,47,Female,-99,"Undergraduate degree (BSc, BA)",54,2,Against,For
32,1658858218130,26/07/2022 17:56:58,1658858219262,1,26/07/2022 18:56:59,93981,5,task-s8ki,NA,23317349,6842672,NA,complete,NA,62e029a9367c432837a5b771,computer,Desktop or Laptop,Windows 10,Chrome 103.0.0.0,1920x1080,1920x937,NA,ITT Ratings,3,against,6,NA,NA,NA,NA,ACCEPT,NA,NA,NA,NA,NA,batch6hes,batch6hes,19,30,1,Screen 1,continueButton,response_rating_scale_likert_active,10464,NA,NA,Neither Agree nor Disagree,1,0,1,0,NA,NA,NA,NA,1,statements,It's effective because the news told me so,1,17/05/2021 11:52,17/05/2021 12:02,580,Most days,Most days,33,Male,-99,GCSEs,53,1,Against,For
33,1658858221080,26/07/2022 17:57:01,1658858222212,1,26/07/2022 18:57:02,93981,5,task-s8ki,NA,23317349,6842672,NA,complete,NA,62e029a9367c432837a5b771,computer,Desktop or Laptop,Windows 10,Chrome 103.0.0.0,1920x1080,1920x937,NA,ITT Ratings,3,against,6,NA,NA,NA,NA,ACCEPT,NA,NA,NA,NA,NA,batch6hes,batch6hes,53,31,1,Screen 1,continueButton,response_rating_scale_likert_active,2944.1999999284744,NA,NA,Agree,1,0,1,0,NA,NA,NA,NA,1,statements,Worried about the side effects that could happen,1,17/05/2021 11:59,17/05/2021 12:15,955,Most months,Rarely,58,Female,-99,"GCSEs,A levels",59,2,Against,Against
34,1658858226696,26/07/2022 17:57:06,1658858227815,1,26/07/2022 18:57:07,93981,5,task-s8ki,NA,23317349,6842672,NA,complete,NA,62e029a9367c432837a5b771,computer,Desktop or Laptop,Windows 10,Chrome 103.0.0.0,1920x1080,1920x937,NA,ITT Ratings,3,against,6,NA,NA,NA,NA,ACCEPT,NA,NA,NA,NA,NA,batch6hes,batch6hes,27,32,1,Screen 1,continueButton,response_rating_scale_likert_active,5595.300000071526,NA,NA,Agree,1,0,1,0,NA,NA,NA,NA,1,statements,"Even though it may not be fatal for everyone , people ca still suffer from long covid",1,17/05/2021 11:50,17/05/2021 12:02,717,Most days,Most days,47,Female,-99,"Undergraduate degree (BSc, BA)",54,3,Against,For
35,1658858236790,26/07/2022 17:57:16,1658858237910,1,26/07/2022 18:57:17,93981,5,task-s8ki,NA,23317349,6842672,NA,complete,NA,62e029a9367c432837a5b771,computer,Desktop or Laptop,Windows 10,Chrome 103.0.0.0,1920x1080,1920x937,NA,ITT Ratings,3,against,6,NA,NA,NA,NA,ACCEPT,NA,NA,NA,NA,NA,batch6hes,batch6hes,54,33,1,Screen 1,continueButton,response_rating_scale_likert_active,10086.399999976158,NA,NA,Somewhat Disagree,1,0,1,0,NA,NA,NA,NA,1,statements,If enough other people get vaccinated I won't need it,1,17/05/2021 11:59,17/05/2021 12:15,955,Most months,Rarely,58,Female,-99,"GCSEs,A levels",59,3,Against,Against
36,1658858242351,26/07/2022 17:57:22,1658858243477,1,26/07/2022 18:57:23,93981,5,task-s8ki,NA,23317349,6842672,NA,complete,NA,62e029a9367c432837a5b771,computer,Desktop or Laptop,Windows 10,Chrome 103.0.0.0,1920x1080,1920x937,NA,ITT Ratings,3,against,6,NA,NA,NA,NA,ACCEPT,NA,NA,NA,NA,NA,batch6hes,batch6hes,23,34,1,Screen 1,continueButton,response_rating_scale_likert_active,5559.700000047684,NA,NA,Strongly Agree,1,0,1,0,NA,NA,NA,NA,1,statements,The vaccines haven't been thoroughly tested so the side effects are as yet unknown,1,17/05/2021 11:50,17/05/2021 12:02,717,Most days,Most days,47,Female,-99,"Undergraduate degree (BSc, BA)",54,2,Against,Against
37,1658858249725,26/07/2022 17:57:29,1658858250858,1,26/07/2022 18:57:30,93981,5,task-s8ki,NA,23317349,6842672,NA,complete,NA,62e029a9367c432837a5b771,computer,Desktop or Laptop,Windows 10,Chrome 103.0.0.0,1920x1080,1920x937,NA,ITT Ratings,3,against,6,NA,NA,NA,NA,ACCEPT,NA,NA,NA,NA,NA,batch6hes,batch6hes,35,35,1,Screen 1,continueButton,response_rating_scale_likert_active,7373.899999976158,NA,NA,Somewhat Agree,1,0,1,0,NA,NA,NA,NA,1,statements,Not effective against different strains,1,17/05/2021 11:56,17/05/2021 12:05,555,A few times a year,A few times a year,25,Female,-99,A levels,56,2,Against,Against
38,1658858253611,26/07/2022 17:57:33,1658858254744,1,26/07/2022 18:57:34,93981,5,task-s8ki,NA,23317349,6842672,NA,complete,NA,62e029a9367c432837a5b771,computer,Desktop or Laptop,Windows 10,Chrome 103.0.0.0,1920x1080,1920x937,NA,ITT Ratings,3,against,6,NA,NA,NA,NA,ACCEPT,NA,NA,NA,NA,NA,batch6hes,batch6hes,21,36,1,Screen 1,continueButton,response_rating_scale_likert_active,3878,NA,NA,Disagree,1,0,1,0,NA,NA,NA,NA,1,statements,I believe everything I hear,1,17/05/2021 11:52,17/05/2021 12:02,580,Most days,Most days,33,Male,-99,GCSEs,53,3,Against,For
39,1658858258134,26/07/2022 17:57:38,1658858259264,1,26/07/2022 18:57:39,93981,5,task-s8ki,NA,23317349,6842672,NA,complete,NA,62e029a9367c432837a5b771,computer,Desktop or Laptop,Windows 10,Chrome 103.0.0.0,1920x1080,1920x937,NA,ITT Ratings,3,against,6,NA,NA,NA,NA,ACCEPT,NA,NA,NA,NA,NA,batch6hes,batch6hes,11,37,1,Screen 1,continueButton,response_rating_scale_likert_active,4513.5,NA,NA,Strongly Agree,1,0,1,0,NA,NA,NA,NA,1,statements,The trials haven't run long enough to know the long term effects,1,17/05/2021 11:32,17/05/2021 12:00,1684,Rarely,Most months,43,Female,-99,"Undergraduate degree (BSc, BA)",52,2,Against,Against
40,1658858272203,26/07/2022 17:57:52,1658858273330,1,26/07/2022 18:57:53,93981,5,task-s8ki,NA,23317349,6842672,NA,complete,NA,62e029a9367c432837a5b771,computer,Desktop or Laptop,Windows 10,Chrome 103.0.0.0,1920x1080,1920x937,NA,ITT Ratings,3,against,6,NA,NA,NA,NA,ACCEPT,NA,NA,NA,NA,NA,batch6hes,batch6hes,6,38,1,Screen 1,continueButton,response_rating_scale_likert_active,14056.899999976158,NA,NA,Agree,1,0,1,0,NA,NA,NA,NA,1,statements,"RNA vaccines are new, and past trials and tests with them on animals were unsuccessful, with many animal deaths from them. RNA vaccines can be dangerous and the long-term effects are unknown.",1,17/05/2021 11:27,17/05/2021 11:58,1838,Rarely,Most days,59,Female,-99,"Undergraduate degree (BSc, BA)",51,3,Against,Against
41,1658858278247,26/07/2022 17:57:58,1658858279367,1,26/07/2022 18:57:59,93981,5,task-s8ki,NA,23317349,6842672,NA,complete,NA,62e029a9367c432837a5b771,computer,Desktop or Laptop,Windows 10,Chrome 103.0.0.0,1920x1080,1920x937,NA,ITT Ratings,3,against,6,NA,NA,NA,NA,ACCEPT,NA,NA,NA,NA,NA,batch6hes,batch6hes,13,39,1,Screen 1,continueButton,response_rating_scale_likert_active,6030.100000023842,NA,NA,Neither Agree nor Disagree,1,0,1,0,NA,NA,NA,NA,1,statements,"Because everyone I know had it, i.e. peer pressure",1,17/05/2021 11:32,17/05/2021 12:00,1684,Rarely,Most months,43,Female,-99,"Undergraduate degree (BSc, BA)",52,1,Against,For
42,1658858283976,26/07/2022 17:58:03,1658858285111,1,26/07/2022 18:58:05,93981,5,task-s8ki,NA,23317349,6842672,NA,complete,NA,62e029a9367c432837a5b771,computer,Desktop or Laptop,Windows 10,Chrome 103.0.0.0,1920x1080,1920x937,NA,ITT Ratings,3,against,6,NA,NA,NA,NA,ACCEPT,NA,NA,NA,NA,NA,batch6hes,batch6hes,28,40,1,Screen 1,continueButton,response_rating_scale_likert_active,5736.800000071526,NA,NA,Agree,1,0,1,0,NA,NA,NA,NA,1,statements,People have died from taking the vaccine who would otherwise still be here today.,1,17/05/2021 11:40,17/05/2021 12:02,1360,Rarely,Rarely,49,Female,-99,"Undergraduate degree (BSc, BA)",55,1,Against,Against
43,1658858287488,26/07/2022 17:58:07,1658858288612,1,26/07/2022 18:58:08,93981,5,task-s8ki,NA,23317349,6842672,NA,complete,NA,62e029a9367c432837a5b771,computer,Desktop or Laptop,Windows 10,Chrome 103.0.0.0,1920x1080,1920x937,NA,ITT Ratings,3,against,6,NA,NA,NA,NA,ACCEPT,NA,NA,NA,NA,NA,batch6hes,batch6hes,46,41,1,Screen 1,continueButton,response_rating_scale_likert_active,3493.7000000476837,NA,NA,Agree,1,0,1,0,NA,NA,NA,NA,1,statements,Don't know the long term effects on fertility,1,17/05/2021 12:07,17/05/2021 12:14,400,Most weeks,Rarely,28,Female,-99,"Undergraduate degree (BSc, BA)",58,1,Against,Against
44,1658858293537,26/07/2022 17:58:13,1658858294658,1,26/07/2022 18:58:14,93981,5,task-s8ki,NA,23317349,6842672,NA,complete,NA,62e029a9367c432837a5b771,computer,Desktop or Laptop,Windows 10,Chrome 103.0.0.0,1920x1080,1920x937,NA,ITT Ratings,3,against,6,NA,NA,NA,NA,ACCEPT,NA,NA,NA,NA,NA,batch6hes,batch6hes,2,42,1,Screen 1,continueButton,response_rating_scale_likert_active,6038.399999976158,NA,NA,Somewhat Agree,1,0,1,0,NA,NA,NA,NA,1,statements,We would like to check you are reading each argument carefully. Please select 'Somewhat Agree' for this answer,1,NA,NA,NA,NA,NA,NA,NA,NA,NA,NA,check1,NA,NA
45,1658858297408,26/07/2022 17:58:17,1658858298541,1,26/07/2022 18:58:18,93981,5,task-s8ki,NA,23317349,6842672,NA,complete,NA,62e029a9367c432837a5b771,computer,Desktop or Laptop,Windows 10,Chrome 103.0.0.0,1920x1080,1920x937,NA,ITT Ratings,3,against,6,NA,NA,NA,NA,ACCEPT,NA,NA,NA,NA,NA,batch6hes,batch6hes,50,43,1,Screen 1,continueButton,response_rating_scale_likert_active,3875.5,NA,NA,Agree,1,0,1,0,NA,NA,NA,NA,1,statements,Have underlying health conditions,1,17/05/2021 12:07,17/05/2021 12:14,400,Most weeks,Rarely,28,Female,-99,"Undergraduate degree (BSc, BA)",58,2,Against,For
46,1658858299785,26/07/2022 17:58:19,1658858300916,1,26/07/2022 18:58:20,93981,5,task-s8ki,NA,23317349,6842672,NA,complete,NA,62e029a9367c432837a5b771,computer,Desktop or Laptop,Windows 10,Chrome 103.0.0.0,1920x1080,1920x937,NA,ITT Ratings,3,against,6,NA,NA,NA,NA,ACCEPT,NA,NA,NA,NA,NA,batch6hes,batch6hes,25,44,1,Screen 1,continueButton,response_rating_scale_likert_active,2366.2000000476837,NA,NA,Agree,1,0,1,0,NA,NA,NA,NA,1,statements,Its a deadly disease,1,17/05/2021 11:50,17/05/2021 12:02,717,Most days,Most days,47,Female,-99,"Undergraduate degree (BSc, BA)",54,1,Against,For
47,1658858302761,26/07/2022 17:58:22,1658858303879,1,26/07/2022 18:58:23,93981,5,task-s8ki,NA,23317349,6842672,NA,complete,NA,62e029a9367c432837a5b771,computer,Desktop or Laptop,Windows 10,Chrome 103.0.0.0,1920x1080,1920x937,NA,ITT Ratings,3,against,6,NA,NA,NA,NA,ACCEPT,NA,NA,NA,NA,NA,batch6hes,batch6hes,40,45,1,Screen 1,continueButton,response_rating_scale_likert_active,2954.899999976158,NA,NA,Agree,1,0,1,0,NA,NA,NA,NA,1,statements,Doesn't stop transmission or infection,1,17/05/2021 11:49,17/05/2021 12:07,1067,Most weeks,Most months,29,Female,-99,"Undergraduate degree (BSc, BA)",57,1,Against,Against
48,1658858306646,26/07/2022 17:58:26,1658858307767,1,26/07/2022 18:58:27,93981,5,task-s8ki,NA,23317349,6842672,NA,complete,NA,62e029a9367c432837a5b771,computer,Desktop or Laptop,Windows 10,Chrome 103.0.0.0,1920x1080,1920x937,NA,ITT Ratings,3,against,6,NA,NA,NA,NA,ACCEPT,NA,NA,NA,NA,NA,batch6hes,batch6hes,44,46,1,Screen 1,continueButton,response_rating_scale_likert_active,3880.1999999284744,NA,NA,Agree,1,0,1,0,NA,NA,NA,NA,1,statements,reduce the impact of COVID-19 symptoms when contracted,1,17/05/2021 11:49,17/05/2021 12:07,1067,Most weeks,Most months,29,Female,-99,"Undergraduate degree (BSc, BA)",57,2,Against,For
49,1658858313020,26/07/2022 17:58:33,1658858314157,1,26/07/2022 18:58:34,93981,5,task-s8ki,NA,23317349,6842672,NA,complete,NA,62e029a9367c432837a5b771,computer,Desktop or Laptop,Windows 10,Chrome 103.0.0.0,1920x1080,1920x937,NA,ITT Ratings,3,against,6,NA,NA,NA,NA,ACCEPT,NA,NA,NA,NA,NA,batch6hes,batch6hes,20,47,1,Screen 1,continueButton,response_rating_scale_likert_active,6354.800000071526,NA,NA,Disagree,1,0,1,0,NA,NA,NA,NA,1,statements,All my friends have got it so IÈm getting it,1,17/05/2021 11:52,17/05/2021 12:02,580,Most days,Most days,33,Male,-99,GCSEs,53,2,Against,For
50,1658858320102,26/07/2022 17:58:40,1658858321231,1,26/07/2022 18:58:41,93981,5,task-s8ki,NA,23317349,6842672,NA,complete,NA,62e029a9367c432837a5b771,computer,Desktop or Laptop,Windows 10,Chrome 103.0.0.0,1920x1080,1920x937,NA,ITT Ratings,3,against,6,NA,NA,NA,NA,ACCEPT,NA,NA,NA,NA,NA,batch6hes,batch6hes,18,48,1,Screen 1,continueButton,response_rating_scale_likert_active,7068.399999976158,NA,NA,Agree,1,0,1,0,NA,NA,NA,NA,1,statements,If it's so effective then why do we have to wear masks and social distance,1,17/05/2021 11:52,17/05/2021 12:02,580,Most days,Most days,33,Male,-99,GCSEs,53,3,Against,Against
51,1658858326117,26/07/2022 17:58:46,1658858327251,1,26/07/2022 18:58:47,93981,5,task-s8ki,NA,23317349,6842672,NA,complete,NA,62e029a9367c432837a5b771,computer,Desktop or Laptop,Windows 10,Chrome 103.0.0.0,1920x1080,1920x937,NA,ITT Ratings,3,against,6,NA,NA,NA,NA,ACCEPT,NA,NA,NA,NA,NA,batch6hes,batch6hes,61,49,1,Screen 1,continueButton,response_rating_scale_likert_active,6011.200000047684,NA,NA,Neither Agree nor Disagree,1,0,1,0,NA,NA,NA,NA,1,statements,"Herd immunity if everyone does it, it will be more effective",1,17/05/2021 12:02,17/05/2021 12:17,926,Rarely,A few times a year,30,Female,-99,"Undergraduate degree (BSc, BA)",60,1,Against,For
52,1658858330838,26/07/2022 17:58:50,1658858331965,1,26/07/2022 18:58:51,93981,5,task-s8ki,NA,23317349,6842672,NA,complete,NA,62e029a9367c432837a5b771,computer,Desktop or Laptop,Windows 10,Chrome 103.0.0.0,1920x1080,1920x937,NA,ITT Ratings,3,against,6,NA,NA,NA,NA,ACCEPT,NA,NA,NA,NA,NA,batch6hes,batch6hes,8,50,1,Screen 1,continueButton,response_rating_scale_likert_active,4706.799999952316,NA,NA,Neither Agree nor Disagree,1,0,1,0,NA,NA,NA,NA,1,statements,I want to be able to go out and about without worrying.,1,17/05/2021 11:27,17/05/2021 11:58,1838,Rarely,Most days,59,Female,-99,"Undergraduate degree (BSc, BA)",51,2,Against,For
53,1658858334274,26/07/2022 17:58:54,1658858335415,1,26/07/2022 18:58:55,93981,5,task-s8ki,NA,23317349,6842672,NA,complete,NA,62e029a9367c432837a5b771,computer,Desktop or Laptop,Windows 10,Chrome 103.0.0.0,1920x1080,1920x937,NA,ITT Ratings,3,against,6,NA,NA,NA,NA,ACCEPT,NA,NA,NA,NA,NA,batch6hes,batch6hes,41,51,1,Screen 1,continueButton,response_rating_scale_likert_active,3442.600000023842,NA,NA,Strongly Agree,1,0,1,0,NA,NA,NA,NA,1,statements,Vaccines developed too quickly so not safe or trustworthy,1,17/05/2021 11:49,17/05/2021 12:07,1067,Most weeks,Most months,29,Female,-99,"Undergraduate degree (BSc, BA)",57,2,Against,Against
54,1658858338795,26/07/2022 17:58:58,1658858339926,1,26/07/2022 18:58:59,93981,5,task-s8ki,NA,23317349,6842672,NA,complete,NA,62e029a9367c432837a5b771,computer,Desktop or Laptop,Windows 10,Chrome 103.0.0.0,1920x1080,1920x937,NA,ITT Ratings,3,against,6,NA,NA,NA,NA,ACCEPT,NA,NA,NA,NA,NA,batch6hes,batch6hes,33,52,1,Screen 1,continueButton,response_rating_scale_likert_active,4503.700000047684,NA,NA,Neither Agree nor Disagree,1,0,1,0,NA,NA,NA,NA,1,statements,Most people haven't had any serious side effects.,1,17/05/2021 11:40,17/05/2021 12:02,1360,Rarely,Rarely,49,Female,-99,"Undergraduate degree (BSc, BA)",55,3,Against,For
55,1658858342731,26/07/2022 17:59:02,1658858343861,1,26/07/2022 18:59:03,93981,5,task-s8ki,NA,23317349,6842672,NA,complete,NA,62e029a9367c432837a5b771,computer,Desktop or Laptop,Windows 10,Chrome 103.0.0.0,1920x1080,1920x937,NA,ITT Ratings,3,against,6,NA,NA,NA,NA,ACCEPT,NA,NA,NA,NA,NA,batch6hes,batch6hes,51,53,1,Screen 1,continueButton,response_rating_scale_likert_active,3928.100000023842,NA,NA,Agree,1,0,1,0,NA,NA,NA,NA,1,statements,Have close family with underlying heath conditions,1,17/05/2021 12:07,17/05/2021 12:14,400,Most weeks,Rarely,28,Female,-99,"Undergraduate degree (BSc, BA)",58,3,Against,For
56,1658858345599,26/07/2022 17:59:05,1658858346734,1,26/07/2022 18:59:06,93981,5,task-s8ki,NA,23317349,6842672,NA,complete,NA,62e029a9367c432837a5b771,computer,Desktop or Laptop,Windows 10,Chrome 103.0.0.0,1920x1080,1920x937,NA,ITT Ratings,3,against,6,NA,NA,NA,NA,ACCEPT,NA,NA,NA,NA,NA,batch6hes,batch6hes,55,54,1,Screen 1,continueButton,response_rating_scale_likert_active,2865.900000095367,NA,NA,Disagree,1,0,1,0,NA,NA,NA,NA,1,statements,I want to help by being vaccinated,1,17/05/2021 11:59,17/05/2021 12:15,955,Most months,Rarely,58,Female,-99,"GCSEs,A levels",59,1,Against,For
57,1658858351506,26/07/2022 17:59:11,1658858352536,1,26/07/2022 18:59:12,93981,5,task-s8ki,NA,23317349,6842672,NA,complete,NA,62e029a9367c432837a5b771,computer,Desktop or Laptop,Windows 10,Chrome 103.0.0.0,1920x1080,1920x937,NA,ITT Ratings,3,against,6,NA,NA,NA,NA,ACCEPT,NA,NA,NA,NA,NA,batch6hes,batch6hes,9,55,1,Screen 1,continueButton,response_rating_scale_likert_active,5795.899999976158,NA,NA,Agree,1,0,1,0,NA,NA,NA,NA,1,statements,I want to get back to 'normal'.,1,17/05/2021 11:27,17/05/2021 11:58,1838,Rarely,Most days,59,Female,-99,"Undergraduate degree (BSc, BA)",51,3,Against,For
58,1658858354363,26/07/2022 17:59:14,1658858355499,1,26/07/2022 18:59:15,93981,5,task-s8ki,NA,23317349,6842672,NA,complete,NA,62e029a9367c432837a5b771,computer,Desktop or Laptop,Windows 10,Chrome 103.0.0.0,1920x1080,1920x937,NA,ITT Ratings,3,against,6,NA,NA,NA,NA,ACCEPT,NA,NA,NA,NA,NA,batch6hes,batch6hes,63,56,1,Screen 1,continueButton,response_rating_scale_likert_active,2955.8000000715256,NA,NA,Agree,1,0,1,0,NA,NA,NA,NA,1,statements,get back to normal life,1,17/05/2021 12:02,17/05/2021 12:17,926,Rarely,A few times a year,30,Female,-99,"Undergraduate degree (BSc, BA)",60,3,Against,For
59,1658858358290,26/07/2022 17:59:18,1658858359420,1,26/07/2022 18:59:19,93981,5,task-s8ki,NA,23317349,6842672,NA,complete,NA,62e029a9367c432837a5b771,computer,Desktop or Laptop,Windows 10,Chrome 103.0.0.0,1920x1080,1920x937,NA,ITT Ratings,3,against,6,NA,NA,NA,NA,ACCEPT,NA,NA,NA,NA,NA,batch6hes,batch6hes,62,57,1,Screen 1,continueButton,response_rating_scale_likert_active,3914,NA,NA,Agree,1,0,1,0,NA,NA,NA,NA,1,statements,looking after most vulnerable in society and protecting friends and family,1,17/05/2021 12:02,17/05/2021 12:17,926,Rarely,A few times a year,30,Female,-99,"Undergraduate degree (BSc, BA)",60,2,Against,For
60,1658858368548,26/07/2022 17:59:28,1658858369682,1,26/07/2022 18:59:29,93981,5,task-s8ki,NA,23317349,6842672,NA,complete,NA,62e029a9367c432837a5b771,computer,Desktop or Laptop,Windows 10,Chrome 103.0.0.0,1920x1080,1920x937,NA,ITT Ratings,3,against,6,NA,NA,NA,NA,ACCEPT,NA,NA,NA,NA,NA,batch6hes,batch6hes,29,58,1,Screen 1,continueButton,response_rating_scale_likert_active,10254.600000023842,NA,NA,Agree,1,0,1,0,NA,NA,NA,NA,1,statements,"We don't yet know if there are any long term side effect of the vaccine, or how long it will stay effective, there just hasn't been time to test any of this.",1,17/05/2021 11:40,17/05/2021 12:02,1360,Rarely,Rarely,49,Female,-99,"Undergraduate degree (BSc, BA)",55,2,Against,Against
61,1658858371615,26/07/2022 17:59:31,1658858372748,1,26/07/2022 18:59:32,93981,5,task-s8ki,NA,23317349,6842672,NA,complete,NA,62e029a9367c432837a5b771,computer,Desktop or Laptop,Windows 10,Chrome 103.0.0.0,1920x1080,1920x937,NA,ITT Ratings,3,against,6,NA,NA,NA,NA,ACCEPT,NA,NA,NA,NA,NA,batch6hes,batch6hes,36,59,1,Screen 1,continueButton,response_rating_scale_likert_active,3058.099999904633,NA,NA,Agree,1,0,1,0,NA,NA,NA,NA,1,statements,Don't know how long immunity lasts,1,17/05/2021 11:56,17/05/2021 12:05,555,A few times a year,A few times a year,25,Female,-99,A levels,56,3,Against,Against
62,1658858380401,26/07/2022 17:59:40,1658858381532,1,26/07/2022 18:59:41,93981,5,task-s8ki,NA,23317349,6842672,NA,complete,NA,62e029a9367c432837a5b771,computer,Desktop or Laptop,Windows 10,Chrome 103.0.0.0,1920x1080,1920x937,NA,ITT Ratings,3,against,6,NA,NA,NA,NA,ACCEPT,NA,NA,NA,NA,NA,batch6hes,batch6hes,12,60,1,Screen 1,continueButton,response_rating_scale_likert_active,8777.899999976158,NA,NA,Strongly Agree,1,0,1,0,NA,NA,NA,NA,1,statements,"Everyone, including the pharma companies aren't clear about possible side effects and the billion dollar shady pharma companies are immune from law suits from side effects or deaths.",1,17/05/2021 11:32,17/05/2021 12:00,1684,Rarely,Most months,43,Female,-99,"Undergraduate degree (BSc, BA)",52,3,Against,Against
63,1658858385028,26/07/2022 17:59:45,1658858386159,1,26/07/2022 18:59:46,93981,5,task-s8ki,NA,23317349,6842672,NA,complete,NA,62e029a9367c432837a5b771,computer,Desktop or Laptop,Windows 10,Chrome 103.0.0.0,1920x1080,1920x937,NA,ITT Ratings,3,against,6,NA,NA,NA,NA,ACCEPT,NA,NA,NA,NA,NA,batch6hes,batch6hes,31,61,1,Screen 1,continueButton,response_rating_scale_likert_active,4620.5,NA,NA,Neither Agree nor Disagree,1,0,1,0,NA,NA,NA,NA,1,statements,It's what everybody else is doing.,1,17/05/2021 11:40,17/05/2021 12:02,1360,Rarely,Rarely,49,Female,-99,"Undergraduate degree (BSc, BA)",55,1,Against,For
64,1658858388440,26/07/2022 17:59:48,1658858389571,1,26/07/2022 18:59:49,93981,5,task-s8ki,NA,23317349,6842672,NA,complete,NA,62e029a9367c432837a5b771,computer,Desktop or Laptop,Windows 10,Chrome 103.0.0.0,1920x1080,1920x937,NA,ITT Ratings,3,against,6,NA,NA,NA,NA,ACCEPT,NA,NA,NA,NA,NA,batch6hes,batch6hes,47,62,1,Screen 1,continueButton,response_rating_scale_likert_active,3405.7000000476837,NA,NA,Agree,1,0,1,0,NA,NA,NA,NA,1,statements,Don't know enough about it,1,17/05/2021 12:07,17/05/2021 12:14,400,Most weeks,Rarely,28,Female,-99,"Undergraduate degree (BSc, BA)",58,2,Against,Against
65,1658858388518,26/07/2022 17:59:48,1658858389577,1,26/07/2022 18:59:49,93981,5,task-s8ki,NA,23317349,6842672,NA,complete,NA,62e029a9367c432837a5b771,computer,Desktop or Laptop,Windows 10,Chrome 103.0.0.0,1920x1080,1920x937,NA,ITT Ratings,3,against,6,NA,NA,NA,NA,ACCEPT,NA,NA,NA,NA,NA,batch6hes,NA,NA,END TASK,NA,NA,NA,NA,354196,NA,NA,NA,NA,0,1,0,NA,NA,NA,NA,NA,NA,NA,NA,NA,NA,NA,NA,NA,NA,NA,NA,NA,NA,NA,NA,NA
1,1658858155840,26/07/2022 17:55:55,1658858156588,1,26/07/2022 18:55:56,93981,5,task-s8ki,NA,23317392,6842690,NA,complete,NA,62e029f20898e7c38ca9e443,computer,Desktop or Laptop,Windows 10,Edge 103.0.1264.62,1366x768,1093x499,NA,ITT Ratings,3,against,6,NA,NA,NA,NA,ACCEPT,NA,NA,NA,NA,NA,batch6hes,NA,NA,BEGIN TASK,NA,NA,NA,NA,NA,NA,NA,NA,NA,0,1,0,NA,NA,NA,NA,NA,NA,NA,NA,NA,NA,NA,NA,NA,NA,NA,NA,NA,NA,NA,NA,NA
2,1658858160825,26/07/2022 17:56:00,1658858161636,1,26/07/2022 18:56:01,93981,5,task-s8ki,NA,23317392,6842690,NA,complete,NA,62e029f20898e7c38ca9e443,computer,Desktop or Laptop,Windows 10,Edge 103.0.1264.62,1366x768,1093x499,NA,ITT Ratings,3,against,6,NA,NA,NA,NA,ACCEPT,NA,NA,NA,NA,NA,batch6hes,batch6hes,1,1,1,Screen 1,advancementZone,continue_button,4175.100000023842,NA,NA,NA,NA,0,1,0,NA,NA,NA,NA,NA,instructions,NA,NA,NA,NA,NA,NA,NA,NA,NA,NA,NA,NA,NA,NA,NA
3,1658858168362,26/07/2022 17:56:08,1658858169117,1,26/07/2022 18:56:09,93981,5,task-s8ki,NA,23317392,6842690,NA,complete,NA,62e029f20898e7c38ca9e443,computer,Desktop or Laptop,Windows 10,Edge 103.0.1264.62,1366x768,1093x499,NA,ITT Ratings,3,against,6,NA,NA,NA,NA,ACCEPT,NA,NA,NA,NA,NA,batch6hes,batch6hes,41,1,1,Screen 1,continueButton,response_rating_scale_likert_active,7097.099999964237,NA,NA,Strongly Agree,1,0,1,0,NA,NA,NA,NA,1,statements,Vaccines developed too quickly so not safe or trustworthy,1,17/05/2021 11:49,17/05/2021 12:07,1067,Most weeks,Most months,29,Female,-99,"Undergraduate degree (BSc, BA)",57,2,Against,Against
4,1658858172258,26/07/2022 17:56:12,1658858172799,1,26/07/2022 18:56:12,93981,5,task-s8ki,NA,23317392,6842690,NA,complete,NA,62e029f20898e7c38ca9e443,computer,Desktop or Laptop,Windows 10,Edge 103.0.1264.62,1366x768,1093x499,NA,ITT Ratings,3,against,6,NA,NA,NA,NA,ACCEPT,NA,NA,NA,NA,NA,batch6hes,batch6hes,24,2,1,Screen 1,continueButton,response_rating_scale_likert_active,3478.699999988079,NA,NA,Strongly Agree,1,0,1,0,NA,NA,NA,NA,1,statements,The vaccine does not give you full immunity ....you can still catch and transmit the virus after being vaccinated .,1,17/05/2021 11:50,17/05/2021 12:02,717,Most days,Most days,47,Female,-99,"Undergraduate degree (BSc, BA)",54,3,Against,Against
5,1658858174525,26/07/2022 17:56:14,1658858175345,1,26/07/2022 18:56:15,93981,5,task-s8ki,NA,23317392,6842690,NA,complete,NA,62e029f20898e7c38ca9e443,computer,Desktop or Laptop,Windows 10,Edge 103.0.1264.62,1366x768,1093x499,NA,ITT Ratings,3,against,6,NA,NA,NA,NA,ACCEPT,NA,NA,NA,NA,NA,batch6hes,batch6hes,15,3,1,Screen 1,continueButton,response_rating_scale_likert_active,2448.599999964237,NA,NA,Strongly Disagree,1,0,1,0,NA,NA,NA,NA,1,statements,"Vaccines are good, regardless of how new or experimental they are",1,17/05/2021 11:32,17/05/2021 12:00,1684,Rarely,Most months,43,Female,-99,"Undergraduate degree (BSc, BA)",52,3,Against,For
6,1658858178088,26/07/2022 17:56:18,1658858178422,1,26/07/2022 18:56:18,93981,5,task-s8ki,NA,23317392,6842690,NA,complete,NA,62e029f20898e7c38ca9e443,computer,Desktop or Laptop,Windows 10,Edge 103.0.1264.62,1366x768,1093x499,NA,ITT Ratings,3,against,6,NA,NA,NA,NA,ACCEPT,NA,NA,NA,NA,NA,batch6hes,batch6hes,36,4,1,Screen 1,continueButton,response_rating_scale_likert_active,2953.100000023842,NA,NA,Strongly Agree,1,0,1,0,NA,NA,NA,NA,1,statements,Don't know how long immunity lasts,1,17/05/2021 11:56,17/05/2021 12:05,555,A few times a year,A few times a year,25,Female,-99,A levels,56,3,Against,Against
7,1658858179537,26/07/2022 17:56:19,1658858180361,1,26/07/2022 18:56:20,93981,5,task-s8ki,NA,23317392,6842690,NA,complete,NA,62e029f20898e7c38ca9e443,computer,Desktop or Laptop,Windows 10,Edge 103.0.1264.62,1366x768,1093x499,NA,ITT Ratings,3,against,6,NA,NA,NA,NA,ACCEPT,NA,NA,NA,NA,NA,batch6hes,batch6hes,4,5,1,Screen 1,continueButton,response_rating_scale_likert_active,1824.7999999523165,NA,NA,Strongly Agree,1,0,1,0,NA,NA,NA,NA,1,statements,The vaccine was never tested to the gold standard.,1,17/05/2021 11:27,17/05/2021 11:58,1838,Rarely,Most days,59,Female,-99,"Undergraduate degree (BSc, BA)",51,1,Against,Against
8,1658858182602,26/07/2022 17:56:22,1658858183144,1,26/07/2022 18:56:23,93981,5,task-s8ki,NA,23317392,6842690,NA,complete,NA,62e029f20898e7c38ca9e443,computer,Desktop or Laptop,Windows 10,Edge 103.0.1264.62,1366x768,1093x499,NA,ITT Ratings,3,against,6,NA,NA,NA,NA,ACCEPT,NA,NA,NA,NA,NA,batch6hes,batch6hes,30,6,1,Screen 1,continueButton,response_rating_scale_likert_active,2682.099999964237,NA,NA,Strongly Agree,1,0,1,0,NA,NA,NA,NA,1,statements,"I can carry on keeping my distance from people, wearing a mask and using hand sanitiser and keep myself and my family safe that way. It's worked so far.",1,17/05/2021 11:40,17/05/2021 12:02,1360,Rarely,Rarely,49,Female,-99,"Undergraduate degree (BSc, BA)",55,3,Against,Against
9,1658858188096,26/07/2022 17:56:28,1658858187966,1,26/07/2022 18:56:27,93981,5,task-s8ki,NA,23317392,6842690,NA,complete,NA,62e029f20898e7c38ca9e443,computer,Desktop or Laptop,Windows 10,Edge 103.0.1264.62,1366x768,1093x499,NA,ITT Ratings,3,against,6,NA,NA,NA,NA,ACCEPT,NA,NA,NA,NA,NA,batch6hes,batch6hes,57,7,1,Screen 1,continueButton,response_rating_scale_likert_active,4727.100000023842,NA,NA,Strongly Disagree,1,0,1,0,NA,NA,NA,NA,1,statements,It's the only way out of this pandemic,1,17/05/2021 11:59,17/05/2021 12:15,955,Most months,Rarely,58,Female,-99,"GCSEs,A levels",59,3,Against,For
10,1658858189175,26/07/2022 17:56:29,1658858189990,1,26/07/2022 18:56:29,93981,5,task-s8ki,NA,23317392,6842690,NA,complete,NA,62e029f20898e7c38ca9e443,computer,Desktop or Laptop,Windows 10,Edge 103.0.1264.62,1366x768,1093x499,NA,ITT Ratings,3,against,6,NA,NA,NA,NA,ACCEPT,NA,NA,NA,NA,NA,batch6hes,batch6hes,46,8,1,Screen 1,continueButton,response_rating_scale_likert_active,1883.5,NA,NA,Strongly Agree,1,0,1,0,NA,NA,NA,NA,1,statements,Don't know the long term effects on fertility,1,17/05/2021 12:07,17/05/2021 12:14,400,Most weeks,Rarely,28,Female,-99,"Undergraduate degree (BSc, BA)",58,1,Against,Against
11,1658858192863,26/07/2022 17:56:32,1658858193392,1,26/07/2022 18:56:33,93981,5,task-s8ki,NA,23317392,6842690,NA,complete,NA,62e029f20898e7c38ca9e443,computer,Desktop or Laptop,Windows 10,Edge 103.0.1264.62,1366x768,1093x499,NA,ITT Ratings,3,against,6,NA,NA,NA,NA,ACCEPT,NA,NA,NA,NA,NA,batch6hes,batch6hes,18,9,1,Screen 1,continueButton,response_rating_scale_likert_active,3330,NA,NA,Strongly Agree,1,0,1,0,NA,NA,NA,NA,1,statements,If it's so effective then why do we have to wear masks and social distance,1,17/05/2021 11:52,17/05/2021 12:02,580,Most days,Most days,33,Male,-99,GCSEs,53,3,Against,Against
12,1658858194881,26/07/2022 17:56:34,1658858195704,1,26/07/2022 18:56:35,93981,5,task-s8ki,NA,23317392,6842690,NA,complete,NA,62e029f20898e7c38ca9e443,computer,Desktop or Laptop,Windows 10,Edge 103.0.1264.62,1366x768,1093x499,NA,ITT Ratings,3,against,6,NA,NA,NA,NA,ACCEPT,NA,NA,NA,NA,NA,batch6hes,batch6hes,19,10,1,Screen 1,continueButton,response_rating_scale_likert_active,2144.7000000476837,NA,NA,Strongly Disagree,1,0,1,0,NA,NA,NA,NA,1,statements,It's effective because the news told me so,1,17/05/2021 11:52,17/05/2021 12:02,580,Most days,Most days,33,Male,-99,GCSEs,53,1,Against,For
13,1658858198180,26/07/2022 17:56:38,1658858197941,1,26/07/2022 18:56:37,93981,5,task-s8ki,NA,23317392,6842690,NA,complete,NA,62e029f20898e7c38ca9e443,computer,Desktop or Laptop,Windows 10,Edge 103.0.1264.62,1366x768,1093x499,NA,ITT Ratings,3,against,6,NA,NA,NA,NA,ACCEPT,NA,NA,NA,NA,NA,batch6hes,batch6hes,35,11,1,Screen 1,continueButton,response_rating_scale_likert_active,2118.300000011921,NA,NA,Strongly Agree,1,0,1,0,NA,NA,NA,NA,1,statements,Not effective against different strains,1,17/05/2021 11:56,17/05/2021 12:05,555,A few times a year,A few times a year,25,Female,-99,A levels,56,2,Against,Against
14,1658858203270,26/07/2022 17:56:43,1658858203777,1,26/07/2022 18:56:43,93981,5,task-s8ki,NA,23317392,6842690,NA,complete,NA,62e029f20898e7c38ca9e443,computer,Desktop or Laptop,Windows 10,Edge 103.0.1264.62,1366x768,1093x499,NA,ITT Ratings,3,against,6,NA,NA,NA,NA,ACCEPT,NA,NA,NA,NA,NA,batch6hes,batch6hes,44,12,1,Screen 1,continueButton,response_rating_scale_likert_active,5661.599999964237,NA,NA,Agree,1,0,1,0,NA,NA,NA,NA,1,statements,reduce the impact of COVID-19 symptoms when contracted,1,17/05/2021 11:49,17/05/2021 12:07,1067,Most weeks,Most months,29,Female,-99,"Undergraduate degree (BSc, BA)",57,2,Against,For
15,1658858203372,26/07/2022 17:56:43,1658858204205,1,26/07/2022 18:56:44,93981,5,task-s8ki,NA,23317392,6842690,NA,complete,NA,62e029f20898e7c38ca9e443,computer,Desktop or Laptop,Windows 10,Edge 103.0.1264.62,1366x768,1093x499,NA,ITT Ratings,3,against,6,NA,NA,NA,NA,ACCEPT,NA,NA,NA,NA,NA,batch6hes,batch6hes,37,13,1,Screen 1,continueButton,response_rating_scale_likert_active,337.0999999642372,NA,NA,Agree,1,0,1,0,NA,NA,NA,NA,1,statements,Lessen severity of symptoms for myself,1,17/05/2021 11:56,17/05/2021 12:05,555,A few times a year,A few times a year,25,Female,-99,A levels,56,1,Against,For
16,1658858208321,26/07/2022 17:56:48,1658858208833,1,26/07/2022 18:56:48,93981,5,task-s8ki,NA,23317392,6842690,NA,complete,NA,62e029f20898e7c38ca9e443,computer,Desktop or Laptop,Windows 10,Edge 103.0.1264.62,1366x768,1093x499,NA,ITT Ratings,3,against,6,NA,NA,NA,NA,ACCEPT,NA,NA,NA,NA,NA,batch6hes,batch6hes,29,14,1,Screen 1,continueButton,response_rating_scale_likert_active,4531.300000011921,NA,NA,Strongly Agree,1,0,1,0,NA,NA,NA,NA,1,statements,"We don't yet know if there are any long term side effect of the vaccine, or how long it will stay effective, there just hasn't been time to test any of this.",1,17/05/2021 11:40,17/05/2021 12:02,1360,Rarely,Rarely,49,Female,-99,"Undergraduate degree (BSc, BA)",55,2,Against,Against
17,1658858211759,26/07/2022 17:56:51,1658858212534,1,26/07/2022 18:56:52,93981,5,task-s8ki,NA,23317392,6842690,NA,complete,NA,62e029f20898e7c38ca9e443,computer,Desktop or Laptop,Windows 10,Edge 103.0.1264.62,1366x768,1093x499,NA,ITT Ratings,3,against,6,NA,NA,NA,NA,ACCEPT,NA,NA,NA,NA,NA,batch6hes,batch6hes,54,15,1,Screen 1,continueButton,response_rating_scale_likert_active,3607.400000035763,NA,NA,Disagree,1,0,1,0,NA,NA,NA,NA,1,statements,If enough other people get vaccinated I won't need it,1,17/05/2021 11:59,17/05/2021 12:15,955,Most months,Rarely,58,Female,-99,"GCSEs,A levels",59,3,Against,Against
18,1658858214946,26/07/2022 17:56:54,1658858215774,1,26/07/2022 18:56:55,93981,5,task-s8ki,NA,23317392,6842690,NA,complete,NA,62e029f20898e7c38ca9e443,computer,Desktop or Laptop,Windows 10,Edge 103.0.1264.62,1366x768,1093x499,NA,ITT Ratings,3,against,6,NA,NA,NA,NA,ACCEPT,NA,NA,NA,NA,NA,batch6hes,batch6hes,31,16,1,Screen 1,continueButton,response_rating_scale_likert_active,3149.699999988079,NA,NA,Strongly Agree,1,0,1,0,NA,NA,NA,NA,1,statements,It's what everybody else is doing.,1,17/05/2021 11:40,17/05/2021 12:02,1360,Rarely,Rarely,49,Female,-99,"Undergraduate degree (BSc, BA)",55,1,Against,For
19,1658858218977,26/07/2022 17:56:58,1658858217442,1,26/07/2022 18:56:57,93981,5,task-s8ki,NA,23317392,6842690,NA,complete,NA,62e029f20898e7c38ca9e443,computer,Desktop or Laptop,Windows 10,Edge 103.0.1264.62,1366x768,1093x499,NA,ITT Ratings,3,against,6,NA,NA,NA,NA,ACCEPT,NA,NA,NA,NA,NA,batch6hes,batch6hes,40,17,1,Screen 1,continueButton,response_rating_scale_likert_active,1553.899999976158,NA,NA,Strongly Agree,1,0,1,0,NA,NA,NA,NA,1,statements,Doesn't stop transmission or infection,1,17/05/2021 11:49,17/05/2021 12:07,1067,Most weeks,Most months,29,Female,-99,"Undergraduate degree (BSc, BA)",57,1,Against,Against
20,1658858219369,26/07/2022 17:56:59,1658858220197,1,26/07/2022 18:57:00,93981,5,task-s8ki,NA,23317392,6842690,NA,complete,NA,62e029f20898e7c38ca9e443,computer,Desktop or Laptop,Windows 10,Edge 103.0.1264.62,1366x768,1093x499,NA,ITT Ratings,3,against,6,NA,NA,NA,NA,ACCEPT,NA,NA,NA,NA,NA,batch6hes,batch6hes,34,18,1,Screen 1,continueButton,response_rating_scale_likert_active,2678.5,NA,NA,Strongly Agree,1,0,1,0,NA,NA,NA,NA,1,statements,Don't know possible long term health complications,1,17/05/2021 11:56,17/05/2021 12:05,555,A few times a year,A few times a year,25,Female,-99,A levels,56,1,Against,Against
21,1658858220373,26/07/2022 17:57:00,1658858221202,1,26/07/2022 18:57:01,93981,5,task-s8ki,NA,23317392,6842690,NA,complete,NA,62e029f20898e7c38ca9e443,computer,Desktop or Laptop,Windows 10,Edge 103.0.1264.62,1366x768,1093x499,NA,ITT Ratings,3,against,6,NA,NA,NA,NA,ACCEPT,NA,NA,NA,NA,NA,batch6hes,batch6hes,58,19,1,Screen 1,continueButton,response_rating_scale_likert_active,899.5,NA,NA,Strongly Agree,1,0,1,0,NA,NA,NA,NA,1,statements,Produced too quickly,1,17/05/2021 12:02,17/05/2021 12:17,926,Rarely,A few times a year,30,Female,-99,"Undergraduate degree (BSc, BA)",60,1,Against,Against
22,1658858222387,26/07/2022 17:57:02,1658858222887,1,26/07/2022 18:57:02,93981,5,task-s8ki,NA,23317392,6842690,NA,complete,NA,62e029f20898e7c38ca9e443,computer,Desktop or Laptop,Windows 10,Edge 103.0.1264.62,1366x768,1093x499,NA,ITT Ratings,3,against,6,NA,NA,NA,NA,ACCEPT,NA,NA,NA,NA,NA,batch6hes,batch6hes,45,20,1,Screen 1,continueButton,response_rating_scale_likert_active,1617.899999976158,NA,NA,Strongly Agree,1,0,1,0,NA,NA,NA,NA,1,statements,Help society to get back to normal,1,17/05/2021 11:49,17/05/2021 12:07,1067,Most weeks,Most months,29,Female,-99,"Undergraduate degree (BSc, BA)",57,3,Against,For
23,1658858223527,26/07/2022 17:57:03,1658858224327,1,26/07/2022 18:57:04,93981,5,task-s8ki,NA,23317392,6842690,NA,complete,NA,62e029f20898e7c38ca9e443,computer,Desktop or Laptop,Windows 10,Edge 103.0.1264.62,1366x768,1093x499,NA,ITT Ratings,3,against,6,NA,NA,NA,NA,ACCEPT,NA,NA,NA,NA,NA,batch6hes,batch6hes,11,21,1,Screen 1,continueButton,response_rating_scale_likert_active,1341.399999976158,NA,NA,Strongly Agree,1,0,1,0,NA,NA,NA,NA,1,statements,The trials haven't run long enough to know the long term effects,1,17/05/2021 11:32,17/05/2021 12:00,1684,Rarely,Most months,43,Female,-99,"Undergraduate degree (BSc, BA)",52,2,Against,Against
24,1658858226299,26/07/2022 17:57:06,1658858227132,1,26/07/2022 18:57:07,93981,5,task-s8ki,NA,23317392,6842690,NA,complete,NA,62e029f20898e7c38ca9e443,computer,Desktop or Laptop,Windows 10,Edge 103.0.1264.62,1366x768,1093x499,NA,ITT Ratings,3,against,6,NA,NA,NA,NA,ACCEPT,NA,NA,NA,NA,NA,batch6hes,batch6hes,27,22,1,Screen 1,continueButton,response_rating_scale_likert_active,2712.400000035763,NA,NA,Strongly Agree,1,0,1,0,NA,NA,NA,NA,1,statements,"Even though it may not be fatal for everyone , people ca still suffer from long covid",1,17/05/2021 11:50,17/05/2021 12:02,717,Most days,Most days,47,Female,-99,"Undergraduate degree (BSc, BA)",54,3,Against,For
25,1658858228564,26/07/2022 17:57:08,1658858228975,1,26/07/2022 18:57:08,93981,5,task-s8ki,NA,23317392,6842690,NA,complete,NA,62e029f20898e7c38ca9e443,computer,Desktop or Laptop,Windows 10,Edge 103.0.1264.62,1366x768,1093x499,NA,ITT Ratings,3,against,6,NA,NA,NA,NA,ACCEPT,NA,NA,NA,NA,NA,batch6hes,batch6hes,51,23,1,Screen 1,continueButton,response_rating_scale_likert_active,1705.699999988079,NA,NA,Strongly Agree,1,0,1,0,NA,NA,NA,NA,1,statements,Have close family with underlying heath conditions,1,17/05/2021 12:07,17/05/2021 12:14,400,Most weeks,Rarely,28,Female,-99,"Undergraduate degree (BSc, BA)",58,3,Against,For
26,1658858232429,26/07/2022 17:57:12,1658858232924,1,26/07/2022 18:57:12,93981,5,task-s8ki,NA,23317392,6842690,NA,complete,NA,62e029f20898e7c38ca9e443,computer,Desktop or Laptop,Windows 10,Edge 103.0.1264.62,1366x768,1093x499,NA,ITT Ratings,3,against,6,NA,NA,NA,NA,ACCEPT,NA,NA,NA,NA,NA,batch6hes,batch6hes,3,24,1,Screen 1,continueButton,response_rating_scale_likert_active,3857.199999988079,NA,NA,Somewhat Disagree,1,0,1,0,NA,NA,NA,NA,1,statements,We would like to check you are reading each argument carefully. Please select 'Somewhat Disagree' for this answer,1,NA,NA,NA,NA,NA,NA,NA,NA,NA,NA,check2,NA,NA
27,1658858233829,26/07/2022 17:57:13,1658858234636,1,26/07/2022 18:57:14,93981,5,task-s8ki,NA,23317392,6842690,NA,complete,NA,62e029f20898e7c38ca9e443,computer,Desktop or Laptop,Windows 10,Edge 103.0.1264.62,1366x768,1093x499,NA,ITT Ratings,3,against,6,NA,NA,NA,NA,ACCEPT,NA,NA,NA,NA,NA,batch6hes,batch6hes,50,25,1,Screen 1,continueButton,response_rating_scale_likert_active,1628.7999999523165,NA,NA,Strongly Agree,1,0,1,0,NA,NA,NA,NA,1,statements,Have underlying health conditions,1,17/05/2021 12:07,17/05/2021 12:14,400,Most weeks,Rarely,28,Female,-99,"Undergraduate degree (BSc, BA)",58,2,Against,For
28,1658858234934,26/07/2022 17:57:14,1658858235761,1,26/07/2022 18:57:15,93981,5,task-s8ki,NA,23317392,6842690,NA,complete,NA,62e029f20898e7c38ca9e443,computer,Desktop or Laptop,Windows 10,Edge 103.0.1264.62,1366x768,1093x499,NA,ITT Ratings,3,against,6,NA,NA,NA,NA,ACCEPT,NA,NA,NA,NA,NA,batch6hes,batch6hes,49,26,1,Screen 1,continueButton,response_rating_scale_likert_active,1034.5,NA,NA,Strongly Agree,1,0,1,0,NA,NA,NA,NA,1,statements,Want to get back to normal,1,17/05/2021 12:07,17/05/2021 12:14,400,Most weeks,Rarely,28,Female,-99,"Undergraduate degree (BSc, BA)",58,1,Against,For
29,1658858238861,26/07/2022 17:57:18,1658858238843,1,26/07/2022 18:57:18,93981,5,task-s8ki,NA,23317392,6842690,NA,complete,NA,62e029f20898e7c38ca9e443,computer,Desktop or Laptop,Windows 10,Edge 103.0.1264.62,1366x768,1093x499,NA,ITT Ratings,3,against,6,NA,NA,NA,NA,ACCEPT,NA,NA,NA,NA,NA,batch6hes,batch6hes,14,27,1,Screen 1,continueButton,response_rating_scale_likert_active,2998.800000011921,NA,NA,Strongly Disagree,1,0,1,0,NA,NA,NA,NA,1,statements,"If I don't take it, I'll die from the disease.",1,17/05/2021 11:32,17/05/2021 12:00,1684,Rarely,Most months,43,Female,-99,"Undergraduate degree (BSc, BA)",52,2,Against,For
30,1658858239414,26/07/2022 17:57:19,1658858240248,1,26/07/2022 18:57:20,93981,5,task-s8ki,NA,23317392,6842690,NA,complete,NA,62e029f20898e7c38ca9e443,computer,Desktop or Laptop,Windows 10,Edge 103.0.1264.62,1366x768,1093x499,NA,ITT Ratings,3,against,6,NA,NA,NA,NA,ACCEPT,NA,NA,NA,NA,NA,batch6hes,batch6hes,16,28,1,Screen 1,continueButton,response_rating_scale_likert_active,1312,NA,NA,Strongly Agree,1,0,1,0,NA,NA,NA,NA,1,statements,Not tested enough not enough clinical trials,1,17/05/2021 11:52,17/05/2021 12:02,580,Most days,Most days,33,Male,-99,GCSEs,53,1,Against,Against
31,1658858240816,26/07/2022 17:57:20,1658858241626,1,26/07/2022 18:57:21,93981,5,task-s8ki,NA,23317392,6842690,NA,complete,NA,62e029f20898e7c38ca9e443,computer,Desktop or Laptop,Windows 10,Edge 103.0.1264.62,1366x768,1093x499,NA,ITT Ratings,3,against,6,NA,NA,NA,NA,ACCEPT,NA,NA,NA,NA,NA,batch6hes,batch6hes,53,29,1,Screen 1,continueButton,response_rating_scale_likert_active,1263.9000000357628,NA,NA,Strongly Agree,1,0,1,0,NA,NA,NA,NA,1,statements,Worried about the side effects that could happen,1,17/05/2021 11:59,17/05/2021 12:15,955,Most months,Rarely,58,Female,-99,"GCSEs,A levels",59,2,Against,Against
32,1658858242366,26/07/2022 17:57:22,1658858242902,1,26/07/2022 18:57:22,93981,5,task-s8ki,NA,23317392,6842690,NA,complete,NA,62e029f20898e7c38ca9e443,computer,Desktop or Laptop,Windows 10,Edge 103.0.1264.62,1366x768,1093x499,NA,ITT Ratings,3,against,6,NA,NA,NA,NA,ACCEPT,NA,NA,NA,NA,NA,batch6hes,batch6hes,22,30,1,Screen 1,continueButton,response_rating_scale_likert_active,1163.9000000357628,NA,NA,Strongly Agree,1,0,1,0,NA,NA,NA,NA,1,statements,I rely on my natural immunity,1,17/05/2021 11:50,17/05/2021 12:02,717,Most days,Most days,47,Female,-99,"Undergraduate degree (BSc, BA)",54,1,Against,Against
33,1658858245097,26/07/2022 17:57:25,1658858245914,1,26/07/2022 18:57:25,93981,5,task-s8ki,NA,23317392,6842690,NA,complete,NA,62e029f20898e7c38ca9e443,computer,Desktop or Laptop,Windows 10,Edge 103.0.1264.62,1366x768,1093x499,NA,ITT Ratings,3,against,6,NA,NA,NA,NA,ACCEPT,NA,NA,NA,NA,NA,batch6hes,batch6hes,28,31,1,Screen 1,continueButton,response_rating_scale_likert_active,2926.300000011921,NA,NA,Strongly Agree,1,0,1,0,NA,NA,NA,NA,1,statements,People have died from taking the vaccine who would otherwise still be here today.,1,17/05/2021 11:40,17/05/2021 12:02,1360,Rarely,Rarely,49,Female,-99,"Undergraduate degree (BSc, BA)",55,1,Against,Against
34,1658858246315,26/07/2022 17:57:26,1658858247134,1,26/07/2022 18:57:27,93981,5,task-s8ki,NA,23317392,6842690,NA,complete,NA,62e029f20898e7c38ca9e443,computer,Desktop or Laptop,Windows 10,Edge 103.0.1264.62,1366x768,1093x499,NA,ITT Ratings,3,against,6,NA,NA,NA,NA,ACCEPT,NA,NA,NA,NA,NA,batch6hes,batch6hes,47,32,1,Screen 1,continueButton,response_rating_scale_likert_active,987.399999976158,NA,NA,Strongly Agree,1,0,1,0,NA,NA,NA,NA,1,statements,Don't know enough about it,1,17/05/2021 12:07,17/05/2021 12:14,400,Most weeks,Rarely,28,Female,-99,"Undergraduate degree (BSc, BA)",58,2,Against,Against
35,1658858249643,26/07/2022 17:57:29,1658858250428,1,26/07/2022 18:57:30,93981,5,task-s8ki,NA,23317392,6842690,NA,complete,NA,62e029f20898e7c38ca9e443,computer,Desktop or Laptop,Windows 10,Edge 103.0.1264.62,1366x768,1093x499,NA,ITT Ratings,3,against,6,NA,NA,NA,NA,ACCEPT,NA,NA,NA,NA,NA,batch6hes,batch6hes,6,33,1,Screen 1,continueButton,response_rating_scale_likert_active,3161.699999988079,NA,NA,Strongly Agree,1,0,1,0,NA,NA,NA,NA,1,statements,"RNA vaccines are new, and past trials and tests with them on animals were unsuccessful, with many animal deaths from them. RNA vaccines can be dangerous and the long-term effects are unknown.",1,17/05/2021 11:27,17/05/2021 11:58,1838,Rarely,Most days,59,Female,-99,"Undergraduate degree (BSc, BA)",51,3,Against,Against
36,1658858251345,26/07/2022 17:57:31,1658858252155,1,26/07/2022 18:57:32,93981,5,task-s8ki,NA,23317392,6842690,NA,complete,NA,62e029f20898e7c38ca9e443,computer,Desktop or Laptop,Windows 10,Edge 103.0.1264.62,1366x768,1093x499,NA,ITT Ratings,3,against,6,NA,NA,NA,NA,ACCEPT,NA,NA,NA,NA,NA,batch6hes,batch6hes,33,34,1,Screen 1,continueButton,response_rating_scale_likert_active,1632.699999988079,NA,NA,Strongly Agree,1,0,1,0,NA,NA,NA,NA,1,statements,Most people haven't had any serious side effects.,1,17/05/2021 11:40,17/05/2021 12:02,1360,Rarely,Rarely,49,Female,-99,"Undergraduate degree (BSc, BA)",55,3,Against,For
37,1658858254879,26/07/2022 17:57:34,1658858255355,1,26/07/2022 18:57:35,93981,5,task-s8ki,NA,23317392,6842690,NA,complete,NA,62e029f20898e7c38ca9e443,computer,Desktop or Laptop,Windows 10,Edge 103.0.1264.62,1366x768,1093x499,NA,ITT Ratings,3,against,6,NA,NA,NA,NA,ACCEPT,NA,NA,NA,NA,NA,batch6hes,batch6hes,12,35,1,Screen 1,continueButton,response_rating_scale_likert_active,3103.300000011921,NA,NA,Strongly Agree,1,0,1,0,NA,NA,NA,NA,1,statements,"Everyone, including the pharma companies aren't clear about possible side effects and the billion dollar shady pharma companies are immune from law suits from side effects or deaths.",1,17/05/2021 11:32,17/05/2021 12:00,1684,Rarely,Most months,43,Female,-99,"Undergraduate degree (BSc, BA)",52,3,Against,Against
38,1658858262546,26/07/2022 17:57:42,1658858263060,1,26/07/2022 18:57:43,93981,5,task-s8ki,NA,23317392,6842690,NA,complete,NA,62e029f20898e7c38ca9e443,computer,Desktop or Laptop,Windows 10,Edge 103.0.1264.62,1366x768,1093x499,NA,ITT Ratings,3,against,6,NA,NA,NA,NA,ACCEPT,NA,NA,NA,NA,NA,batch6hes,batch6hes,20,36,1,Screen 1,continueButton,response_rating_scale_likert_active,6138.800000011921,NA,NA,Disagree,1,0,1,0,NA,NA,NA,NA,1,statements,All my friends have got it so IÈm getting it,1,17/05/2021 11:52,17/05/2021 12:02,580,Most days,Most days,33,Male,-99,GCSEs,53,2,Against,For
39,1658858264964,26/07/2022 17:57:44,1658858265797,1,26/07/2022 18:57:45,93981,5,task-s8ki,NA,23317392,6842690,NA,complete,NA,62e029f20898e7c38ca9e443,computer,Desktop or Laptop,Windows 10,Edge 103.0.1264.62,1366x768,1093x499,NA,ITT Ratings,3,against,6,NA,NA,NA,NA,ACCEPT,NA,NA,NA,NA,NA,batch6hes,batch6hes,42,37,1,Screen 1,continueButton,response_rating_scale_likert_active,2664.699999988079,NA,NA,Disagree,1,0,1,0,NA,NA,NA,NA,1,statements,Don't believe COVID-19 is real,1,17/05/2021 11:49,17/05/2021 12:07,1067,Most weeks,Most months,29,Female,-99,"Undergraduate degree (BSc, BA)",57,3,Against,Against
40,1658858268942,26/07/2022 17:57:48,1658858269144,1,26/07/2022 18:57:49,93981,5,task-s8ki,NA,23317392,6842690,NA,complete,NA,62e029f20898e7c38ca9e443,computer,Desktop or Laptop,Windows 10,Edge 103.0.1264.62,1366x768,1093x499,NA,ITT Ratings,3,against,6,NA,NA,NA,NA,ACCEPT,NA,NA,NA,NA,NA,batch6hes,batch6hes,38,38,1,Screen 1,continueButton,response_rating_scale_likert_active,3173.5,NA,NA,Disagree,1,0,1,0,NA,NA,NA,NA,1,statements,Lessen chance of spreading it,1,17/05/2021 11:56,17/05/2021 12:05,555,A few times a year,A few times a year,25,Female,-99,A levels,56,2,Against,For
41,1658858270134,26/07/2022 17:57:50,1658858270914,1,26/07/2022 18:57:50,93981,5,task-s8ki,NA,23317392,6842690,NA,complete,NA,62e029f20898e7c38ca9e443,computer,Desktop or Laptop,Windows 10,Edge 103.0.1264.62,1366x768,1093x499,NA,ITT Ratings,3,against,6,NA,NA,NA,NA,ACCEPT,NA,NA,NA,NA,NA,batch6hes,batch6hes,17,39,1,Screen 1,continueButton,response_rating_scale_likert_active,1712.300000011921,NA,NA,Strongly Agree,1,0,1,0,NA,NA,NA,NA,1,statements,Big pharma taking 3.7billion in profits not giving it to everyone for free,1,17/05/2021 11:52,17/05/2021 12:02,580,Most days,Most days,33,Male,-99,GCSEs,53,2,Against,Against
42,1658858274280,26/07/2022 17:57:54,1658858274798,1,26/07/2022 18:57:54,93981,5,task-s8ki,NA,23317392,6842690,NA,complete,NA,62e029f20898e7c38ca9e443,computer,Desktop or Laptop,Windows 10,Edge 103.0.1264.62,1366x768,1093x499,NA,ITT Ratings,3,against,6,NA,NA,NA,NA,ACCEPT,NA,NA,NA,NA,NA,batch6hes,batch6hes,23,40,1,Screen 1,continueButton,response_rating_scale_likert_active,3811.700000047684,NA,NA,Strongly Agree,1,0,1,0,NA,NA,NA,NA,1,statements,The vaccines haven't been thoroughly tested so the side effects are as yet unknown,1,17/05/2021 11:50,17/05/2021 12:02,717,Most days,Most days,47,Female,-99,"Undergraduate degree (BSc, BA)",54,2,Against,Against
43,1658858275928,26/07/2022 17:57:55,1658858276744,1,26/07/2022 18:57:56,93981,5,task-s8ki,NA,23317392,6842690,NA,complete,NA,62e029f20898e7c38ca9e443,computer,Desktop or Laptop,Windows 10,Edge 103.0.1264.62,1366x768,1093x499,NA,ITT Ratings,3,against,6,NA,NA,NA,NA,ACCEPT,NA,NA,NA,NA,NA,batch6hes,batch6hes,60,41,1,Screen 1,continueButton,response_rating_scale_likert_active,1838.7000000476835,NA,NA,Strongly Agree,1,0,1,0,NA,NA,NA,NA,1,statements,"Even after the vaccine, you are not guaranteed immunity.",1,17/05/2021 12:02,17/05/2021 12:17,926,Rarely,A few times a year,30,Female,-99,"Undergraduate degree (BSc, BA)",60,3,Against,Against
44,1658858279954,26/07/2022 17:57:59,1658858279002,1,26/07/2022 18:57:59,93981,5,task-s8ki,NA,23317392,6842690,NA,complete,NA,62e029f20898e7c38ca9e443,computer,Desktop or Laptop,Windows 10,Edge 103.0.1264.62,1366x768,1093x499,NA,ITT Ratings,3,against,6,NA,NA,NA,NA,ACCEPT,NA,NA,NA,NA,NA,batch6hes,batch6hes,21,42,1,Screen 1,continueButton,response_rating_scale_likert_active,2181.699999988079,NA,NA,Strongly Disagree,1,0,1,0,NA,NA,NA,NA,1,statements,I believe everything I hear,1,17/05/2021 11:52,17/05/2021 12:02,580,Most days,Most days,33,Male,-99,GCSEs,53,3,Against,For
45,1658858281991,26/07/2022 17:58:01,1658858282812,1,26/07/2022 18:58:02,93981,5,task-s8ki,NA,23317392,6842690,NA,complete,NA,62e029f20898e7c38ca9e443,computer,Desktop or Laptop,Windows 10,Edge 103.0.1264.62,1366x768,1093x499,NA,ITT Ratings,3,against,6,NA,NA,NA,NA,ACCEPT,NA,NA,NA,NA,NA,batch6hes,batch6hes,2,43,1,Screen 1,continueButton,response_rating_scale_likert_active,3743.899999976158,NA,NA,Somewhat Agree,1,0,1,0,NA,NA,NA,NA,1,statements,We would like to check you are reading each argument carefully. Please select 'Somewhat Agree' for this answer,1,NA,NA,NA,NA,NA,NA,NA,NA,NA,NA,check1,NA,NA
46,1658858283812,26/07/2022 17:58:03,1658858284628,1,26/07/2022 18:58:04,93981,5,task-s8ki,NA,23317392,6842690,NA,complete,NA,62e029f20898e7c38ca9e443,computer,Desktop or Laptop,Windows 10,Edge 103.0.1264.62,1366x768,1093x499,NA,ITT Ratings,3,against,6,NA,NA,NA,NA,ACCEPT,NA,NA,NA,NA,NA,batch6hes,batch6hes,63,44,1,Screen 1,continueButton,response_rating_scale_likert_active,1671.899999976158,NA,NA,Strongly Agree,1,0,1,0,NA,NA,NA,NA,1,statements,get back to normal life,1,17/05/2021 12:02,17/05/2021 12:17,926,Rarely,A few times a year,30,Female,-99,"Undergraduate degree (BSc, BA)",60,3,Against,For
47,1658858285678,26/07/2022 17:58:05,1658858286502,1,26/07/2022 18:58:06,93981,5,task-s8ki,NA,23317392,6842690,NA,complete,NA,62e029f20898e7c38ca9e443,computer,Desktop or Laptop,Windows 10,Edge 103.0.1264.62,1366x768,1093x499,NA,ITT Ratings,3,against,6,NA,NA,NA,NA,ACCEPT,NA,NA,NA,NA,NA,batch6hes,batch6hes,32,45,1,Screen 1,continueButton,response_rating_scale_likert_active,1655.800000011921,NA,NA,Strongly Agree,1,0,1,0,NA,NA,NA,NA,1,statements,I feel as if I have to or other people will judge me.,1,17/05/2021 11:40,17/05/2021 12:02,1360,Rarely,Rarely,49,Female,-99,"Undergraduate degree (BSc, BA)",55,2,Against,For
48,1658858289271,26/07/2022 17:58:09,1658858288381,1,26/07/2022 18:58:08,93981,5,task-s8ki,NA,23317392,6842690,NA,complete,NA,62e029f20898e7c38ca9e443,computer,Desktop or Laptop,Windows 10,Edge 103.0.1264.62,1366x768,1093x499,NA,ITT Ratings,3,against,6,NA,NA,NA,NA,ACCEPT,NA,NA,NA,NA,NA,batch6hes,batch6hes,62,46,1,Screen 1,continueButton,response_rating_scale_likert_active,1515.5,NA,NA,Strongly Agree,1,0,1,0,NA,NA,NA,NA,1,statements,looking after most vulnerable in society and protecting friends and family,1,17/05/2021 12:02,17/05/2021 12:17,926,Rarely,A few times a year,30,Female,-99,"Undergraduate degree (BSc, BA)",60,2,Against,For
49,1658858293207,26/07/2022 17:58:13,1658858293968,1,26/07/2022 18:58:13,93981,5,task-s8ki,NA,23317392,6842690,NA,complete,NA,62e029f20898e7c38ca9e443,computer,Desktop or Laptop,Windows 10,Edge 103.0.1264.62,1366x768,1093x499,NA,ITT Ratings,3,against,6,NA,NA,NA,NA,ACCEPT,NA,NA,NA,NA,NA,batch6hes,batch6hes,61,47,1,Screen 1,continueButton,response_rating_scale_likert_active,4672.199999988079,NA,NA,Disagree,1,0,1,0,NA,NA,NA,NA,1,statements,"Herd immunity if everyone does it, it will be more effective",1,17/05/2021 12:02,17/05/2021 12:17,926,Rarely,A few times a year,30,Female,-99,"Undergraduate degree (BSc, BA)",60,1,Against,For
50,1658858295079,26/07/2022 17:58:15,1658858295897,1,26/07/2022 18:58:15,93981,5,task-s8ki,NA,23317392,6842690,NA,complete,NA,62e029f20898e7c38ca9e443,computer,Desktop or Laptop,Windows 10,Edge 103.0.1264.62,1366x768,1093x499,NA,ITT Ratings,3,against,6,NA,NA,NA,NA,ACCEPT,NA,NA,NA,NA,NA,batch6hes,batch6hes,26,48,1,Screen 1,continueButton,response_rating_scale_likert_active,1767.5999999642372,NA,NA,Strongly Agree,1,0,1,0,NA,NA,NA,NA,1,statements,I want to do my bit to protect the vulnerable ...so I don't pass it on to others,1,17/05/2021 11:50,17/05/2021 12:02,717,Most days,Most days,47,Female,-99,"Undergraduate degree (BSc, BA)",54,2,Against,For
51,1658858299071,26/07/2022 17:58:19,1658858298413,1,26/07/2022 18:58:18,93981,5,task-s8ki,NA,23317392,6842690,NA,complete,NA,62e029f20898e7c38ca9e443,computer,Desktop or Laptop,Windows 10,Edge 103.0.1264.62,1366x768,1093x499,NA,ITT Ratings,3,against,6,NA,NA,NA,NA,ACCEPT,NA,NA,NA,NA,NA,batch6hes,batch6hes,10,49,1,Screen 1,continueButton,response_rating_scale_likert_active,2429.300000011921,NA,NA,Strongly Agree,1,0,1,0,NA,NA,NA,NA,1,statements,I don't do experimental drugs,1,17/05/2021 11:32,17/05/2021 12:00,1684,Rarely,Most months,43,Female,-99,"Undergraduate degree (BSc, BA)",52,1,Against,Against
52,1658858300818,26/07/2022 17:58:20,1658858301613,1,26/07/2022 18:58:21,93981,5,task-s8ki,NA,23317392,6842690,NA,complete,NA,62e029f20898e7c38ca9e443,computer,Desktop or Laptop,Windows 10,Edge 103.0.1264.62,1366x768,1093x499,NA,ITT Ratings,3,against,6,NA,NA,NA,NA,ACCEPT,NA,NA,NA,NA,NA,batch6hes,batch6hes,43,50,1,Screen 1,continueButton,response_rating_scale_likert_active,3094.899999976158,NA,NA,Neither Agree nor Disagree,1,0,1,0,NA,NA,NA,NA,1,statements,Lower infection and transmission rates,1,17/05/2021 11:49,17/05/2021 12:07,1067,Most weeks,Most months,29,Female,-99,"Undergraduate degree (BSc, BA)",57,1,Against,For
53,1658858302656,26/07/2022 17:58:22,1658858303472,1,26/07/2022 18:58:23,93981,5,task-s8ki,NA,23317392,6842690,NA,complete,NA,62e029f20898e7c38ca9e443,computer,Desktop or Laptop,Windows 10,Edge 103.0.1264.62,1366x768,1093x499,NA,ITT Ratings,3,against,6,NA,NA,NA,NA,ACCEPT,NA,NA,NA,NA,NA,batch6hes,batch6hes,9,51,1,Screen 1,continueButton,response_rating_scale_likert_active,1709.399999976158,NA,NA,Agree,1,0,1,0,NA,NA,NA,NA,1,statements,I want to get back to 'normal'.,1,17/05/2021 11:27,17/05/2021 11:58,1838,Rarely,Most days,59,Female,-99,"Undergraduate degree (BSc, BA)",51,3,Against,For
54,1658858305591,26/07/2022 17:58:25,1658858306404,1,26/07/2022 18:58:26,93981,5,task-s8ki,NA,23317392,6842690,NA,complete,NA,62e029f20898e7c38ca9e443,computer,Desktop or Laptop,Windows 10,Edge 103.0.1264.62,1366x768,1093x499,NA,ITT Ratings,3,against,6,NA,NA,NA,NA,ACCEPT,NA,NA,NA,NA,NA,batch6hes,batch6hes,48,52,1,Screen 1,continueButton,response_rating_scale_likert_active,2800.5,NA,NA,Somewhat Agree,1,0,1,0,NA,NA,NA,NA,1,statements,Not a risk group for covid,1,17/05/2021 12:07,17/05/2021 12:14,400,Most weeks,Rarely,28,Female,-99,"Undergraduate degree (BSc, BA)",58,3,Against,Against
55,1658858309206,26/07/2022 17:58:29,1658858308993,1,26/07/2022 18:58:28,93981,5,task-s8ki,NA,23317392,6842690,NA,complete,NA,62e029f20898e7c38ca9e443,computer,Desktop or Laptop,Windows 10,Edge 103.0.1264.62,1366x768,1093x499,NA,ITT Ratings,3,against,6,NA,NA,NA,NA,ACCEPT,NA,NA,NA,NA,NA,batch6hes,batch6hes,55,53,1,Screen 1,continueButton,response_rating_scale_likert_active,2460.5,NA,NA,Strongly Disagree,1,0,1,0,NA,NA,NA,NA,1,statements,I want to help by being vaccinated,1,17/05/2021 11:59,17/05/2021 12:15,955,Most months,Rarely,58,Female,-99,"GCSEs,A levels",59,1,Against,For
56,1658858309798,26/07/2022 17:58:29,1658858310627,1,26/07/2022 18:58:30,93981,5,task-s8ki,NA,23317392,6842690,NA,complete,NA,62e029f20898e7c38ca9e443,computer,Desktop or Laptop,Windows 10,Edge 103.0.1264.62,1366x768,1093x499,NA,ITT Ratings,3,against,6,NA,NA,NA,NA,ACCEPT,NA,NA,NA,NA,NA,batch6hes,batch6hes,7,54,1,Screen 1,continueButton,response_rating_scale_likert_active,1445.699999988079,NA,NA,Strongly Disagree,1,0,1,0,NA,NA,NA,NA,1,statements,I'm worried about catching the coronavirus.,1,17/05/2021 11:27,17/05/2021 11:58,1838,Rarely,Most days,59,Female,-99,"Undergraduate degree (BSc, BA)",51,1,Against,For
57,1658858311856,26/07/2022 17:58:31,1658858312611,1,26/07/2022 18:58:32,93981,5,task-s8ki,NA,23317392,6842690,NA,complete,NA,62e029f20898e7c38ca9e443,computer,Desktop or Laptop,Windows 10,Edge 103.0.1264.62,1366x768,1093x499,NA,ITT Ratings,3,against,6,NA,NA,NA,NA,ACCEPT,NA,NA,NA,NA,NA,batch6hes,batch6hes,52,55,1,Screen 1,continueButton,response_rating_scale_likert_active,1873,NA,NA,Strongly Agree,1,0,1,0,NA,NA,NA,NA,1,statements,The vaccine has not been tested for long enough,1,17/05/2021 11:59,17/05/2021 12:15,955,Most months,Rarely,58,Female,-99,"GCSEs,A levels",59,1,Against,Against
58,1658858314299,26/07/2022 17:58:34,1658858315115,1,26/07/2022 18:58:35,93981,5,task-s8ki,NA,23317392,6842690,NA,complete,NA,62e029f20898e7c38ca9e443,computer,Desktop or Laptop,Windows 10,Edge 103.0.1264.62,1366x768,1093x499,NA,ITT Ratings,3,against,6,NA,NA,NA,NA,ACCEPT,NA,NA,NA,NA,NA,batch6hes,batch6hes,25,56,1,Screen 1,continueButton,response_rating_scale_likert_active,2399.2000000476837,NA,NA,Agree,1,0,1,0,NA,NA,NA,NA,1,statements,Its a deadly disease,1,17/05/2021 11:50,17/05/2021 12:02,717,Most days,Most days,47,Female,-99,"Undergraduate degree (BSc, BA)",54,1,Against,For
59,1658858317528,26/07/2022 17:58:37,1658858318152,1,26/07/2022 18:58:38,93981,5,task-s8ki,NA,23317392,6842690,NA,complete,NA,62e029f20898e7c38ca9e443,computer,Desktop or Laptop,Windows 10,Edge 103.0.1264.62,1366x768,1093x499,NA,ITT Ratings,3,against,6,NA,NA,NA,NA,ACCEPT,NA,NA,NA,NA,NA,batch6hes,batch6hes,59,57,1,Screen 1,continueButton,response_rating_scale_likert_active,2963.5,NA,NA,Strongly Agree,1,0,1,0,NA,NA,NA,NA,1,statements,Don't know what the long term side effects of the vaccine are,1,17/05/2021 12:02,17/05/2021 12:17,926,Rarely,A few times a year,30,Female,-99,"Undergraduate degree (BSc, BA)",60,2,Against,Against
60,1658858321319,26/07/2022 17:58:41,1658858322148,1,26/07/2022 18:58:42,93981,5,task-s8ki,NA,23317392,6842690,NA,complete,NA,62e029f20898e7c38ca9e443,computer,Desktop or Laptop,Windows 10,Edge 103.0.1264.62,1366x768,1093x499,NA,ITT Ratings,3,against,6,NA,NA,NA,NA,ACCEPT,NA,NA,NA,NA,NA,batch6hes,batch6hes,5,58,1,Screen 1,continueButton,response_rating_scale_likert_active,3611,NA,NA,Strongly Agree,1,0,1,0,NA,NA,NA,NA,1,statements,"The vaccine trials have caused some very adverse reactions, ongoing complications, and even death. Some covid vaccine manufacturers have even stated these dangers themselves.",1,17/05/2021 11:27,17/05/2021 11:58,1838,Rarely,Most days,59,Female,-99,"Undergraduate degree (BSc, BA)",51,2,Against,Against
61,1658858323642,26/07/2022 17:58:43,1658858324169,1,26/07/2022 18:58:44,93981,5,task-s8ki,NA,23317392,6842690,NA,complete,NA,62e029f20898e7c38ca9e443,computer,Desktop or Laptop,Windows 10,Edge 103.0.1264.62,1366x768,1093x499,NA,ITT Ratings,3,against,6,NA,NA,NA,NA,ACCEPT,NA,NA,NA,NA,NA,batch6hes,batch6hes,8,59,1,Screen 1,continueButton,response_rating_scale_likert_active,1905.399999976158,NA,NA,Strongly Agree,1,0,1,0,NA,NA,NA,NA,1,statements,I want to be able to go out and about without worrying.,1,17/05/2021 11:27,17/05/2021 11:58,1838,Rarely,Most days,59,Female,-99,"Undergraduate degree (BSc, BA)",51,2,Against,For
62,1658858324986,26/07/2022 17:58:44,1658858325806,1,26/07/2022 18:58:45,93981,5,task-s8ki,NA,23317392,6842690,NA,complete,NA,62e029f20898e7c38ca9e443,computer,Desktop or Laptop,Windows 10,Edge 103.0.1264.62,1366x768,1093x499,NA,ITT Ratings,3,against,6,NA,NA,NA,NA,ACCEPT,NA,NA,NA,NA,NA,batch6hes,batch6hes,56,60,1,Screen 1,continueButton,response_rating_scale_likert_active,1544.399999976158,NA,NA,Strongly Agree,1,0,1,0,NA,NA,NA,NA,1,statements,I want to feel safer,1,17/05/2021 11:59,17/05/2021 12:15,955,Most months,Rarely,58,Female,-99,"GCSEs,A levels",59,2,Against,For
63,1658858326203,26/07/2022 17:58:46,1658858327021,1,26/07/2022 18:58:47,93981,5,task-s8ki,NA,23317392,6842690,NA,complete,NA,62e029f20898e7c38ca9e443,computer,Desktop or Laptop,Windows 10,Edge 103.0.1264.62,1366x768,1093x499,NA,ITT Ratings,3,against,6,NA,NA,NA,NA,ACCEPT,NA,NA,NA,NA,NA,batch6hes,batch6hes,39,61,1,Screen 1,continueButton,response_rating_scale_likert_active,1151.100000023842,NA,NA,Strongly Agree,1,0,1,0,NA,NA,NA,NA,1,statements,Go 'back to normal',1,17/05/2021 11:56,17/05/2021 12:05,555,A few times a year,A few times a year,25,Female,-99,A levels,56,3,Against,For
64,1658858331473,26/07/2022 17:58:51,1658858331584,1,26/07/2022 18:58:51,93981,5,task-s8ki,NA,23317392,6842690,NA,complete,NA,62e029f20898e7c38ca9e443,computer,Desktop or Laptop,Windows 10,Edge 103.0.1264.62,1366x768,1093x499,NA,ITT Ratings,3,against,6,NA,NA,NA,NA,ACCEPT,NA,NA,NA,NA,NA,batch6hes,batch6hes,13,62,1,Screen 1,continueButton,response_rating_scale_likert_active,4474.5,NA,NA,Neither Agree nor Disagree,1,0,1,0,NA,NA,NA,NA,1,statements,"Because everyone I know had it, i.e. peer pressure",1,17/05/2021 11:32,17/05/2021 12:00,1684,Rarely,Most months,43,Female,-99,"Undergraduate degree (BSc, BA)",52,1,Against,For
65,1658858332165,26/07/2022 17:58:52,1658858331730,1,26/07/2022 18:58:51,93981,5,task-s8ki,NA,23317392,6842690,NA,complete,NA,62e029f20898e7c38ca9e443,computer,Desktop or Laptop,Windows 10,Edge 103.0.1264.62,1366x768,1093x499,NA,ITT Ratings,3,against,6,NA,NA,NA,NA,ACCEPT,NA,NA,NA,NA,NA,batch6hes,NA,NA,END TASK,NA,NA,NA,NA,175141,NA,NA,NA,NA,0,1,0,NA,NA,NA,NA,NA,NA,NA,NA,NA,NA,NA,NA,NA,NA,NA,NA,NA,NA,NA,NA,NA
1,1658859268004,26/07/2022 18:14:28,1658859269117,1,26/07/2022 19:14:29,93981,5,task-s8ki,NA,23317888,6842839,NA,complete,NA,62e02e61674aede8a5fc5d89,computer,Desktop or Laptop,Windows 10,Edge 103.0.1264.62,1366x768,1366x657,NA,ITT Ratings,3,against,6,NA,NA,NA,NA,ACCEPT,NA,NA,NA,NA,NA,batch6hes,NA,NA,BEGIN TASK,NA,NA,NA,NA,NA,NA,NA,NA,NA,0,1,0,NA,NA,NA,NA,NA,NA,NA,NA,NA,NA,NA,NA,NA,NA,NA,NA,NA,NA,NA,NA,NA
2,1658859274803,26/07/2022 18:14:34,1658859275846,1,26/07/2022 19:14:35,93981,5,task-s8ki,NA,23317888,6842839,NA,complete,NA,62e02e61674aede8a5fc5d89,computer,Desktop or Laptop,Windows 10,Edge 103.0.1264.62,1366x768,1366x657,NA,ITT Ratings,3,against,6,NA,NA,NA,NA,ACCEPT,NA,NA,NA,NA,NA,batch6hes,batch6hes,1,1,1,Screen 1,advancementZone,continue_button,6672.099998474121,NA,NA,NA,NA,0,1,0,NA,NA,NA,NA,NA,instructions,NA,NA,NA,NA,NA,NA,NA,NA,NA,NA,NA,NA,NA,NA,NA
3,1658859279079,26/07/2022 18:14:39,1658859280234,1,26/07/2022 19:14:40,93981,5,task-s8ki,NA,23317888,6842839,NA,complete,NA,62e02e61674aede8a5fc5d89,computer,Desktop or Laptop,Windows 10,Edge 103.0.1264.62,1366x768,1366x657,NA,ITT Ratings,3,against,6,NA,NA,NA,NA,ACCEPT,NA,NA,NA,NA,NA,batch6hes,batch6hes,43,1,1,Screen 1,continueButton,response_rating_scale_likert_active,4369.7000007629395,NA,NA,Somewhat Agree,1,0,1,0,NA,NA,NA,NA,1,statements,Lower infection and transmission rates,1,17/05/2021 11:49,17/05/2021 12:07,1067,Most weeks,Most months,29,Female,-99,"Undergraduate degree (BSc, BA)",57,1,Against,For
4,1658859282962,26/07/2022 18:14:42,1658859284104,1,26/07/2022 19:14:44,93981,5,task-s8ki,NA,23317888,6842839,NA,complete,NA,62e02e61674aede8a5fc5d89,computer,Desktop or Laptop,Windows 10,Edge 103.0.1264.62,1366x768,1366x657,NA,ITT Ratings,3,against,6,NA,NA,NA,NA,ACCEPT,NA,NA,NA,NA,NA,batch6hes,batch6hes,39,2,1,Screen 1,continueButton,response_rating_scale_likert_active,3852.199998855591,NA,NA,Somewhat Agree,1,0,1,0,NA,NA,NA,NA,1,statements,Go 'back to normal',1,17/05/2021 11:56,17/05/2021 12:05,555,A few times a year,A few times a year,25,Female,-99,A levels,56,3,Against,For
5,1658859289373,26/07/2022 18:14:49,1658859290527,1,26/07/2022 19:14:50,93981,5,task-s8ki,NA,23317888,6842839,NA,complete,NA,62e02e61674aede8a5fc5d89,computer,Desktop or Laptop,Windows 10,Edge 103.0.1264.62,1366x768,1366x657,NA,ITT Ratings,3,against,6,NA,NA,NA,NA,ACCEPT,NA,NA,NA,NA,NA,batch6hes,batch6hes,20,3,1,Screen 1,continueButton,response_rating_scale_likert_active,6298.199998855591,NA,NA,Disagree,1,0,1,0,NA,NA,NA,NA,1,statements,All my friends have got it so IÈm getting it,1,17/05/2021 11:52,17/05/2021 12:02,580,Most days,Most days,33,Male,-99,GCSEs,53,2,Against,For
6,1658859291618,26/07/2022 18:14:51,1658859292761,1,26/07/2022 19:14:52,93981,5,task-s8ki,NA,23317888,6842839,NA,complete,NA,62e02e61674aede8a5fc5d89,computer,Desktop or Laptop,Windows 10,Edge 103.0.1264.62,1366x768,1366x657,NA,ITT Ratings,3,against,6,NA,NA,NA,NA,ACCEPT,NA,NA,NA,NA,NA,batch6hes,batch6hes,25,4,1,Screen 1,continueButton,response_rating_scale_likert_active,2220.5,NA,NA,Strongly Disagree,1,0,1,0,NA,NA,NA,NA,1,statements,Its a deadly disease,1,17/05/2021 11:50,17/05/2021 12:02,717,Most days,Most days,47,Female,-99,"Undergraduate degree (BSc, BA)",54,1,Against,For
7,1658859295484,26/07/2022 18:14:55,1658859296253,1,26/07/2022 19:14:56,93981,5,task-s8ki,NA,23317888,6842839,NA,complete,NA,62e02e61674aede8a5fc5d89,computer,Desktop or Laptop,Windows 10,Edge 103.0.1264.62,1366x768,1366x657,NA,ITT Ratings,3,against,6,NA,NA,NA,NA,ACCEPT,NA,NA,NA,NA,NA,batch6hes,batch6hes,33,5,1,Screen 1,continueButton,response_rating_scale_likert_active,3467.7000007629395,NA,NA,Agree,1,0,1,0,NA,NA,NA,NA,1,statements,Most people haven't had any serious side effects.,1,17/05/2021 11:40,17/05/2021 12:02,1360,Rarely,Rarely,49,Female,-99,"Undergraduate degree (BSc, BA)",55,3,Against,For
8,1658859298210,26/07/2022 18:14:58,1658859299354,1,26/07/2022 19:14:59,93981,5,task-s8ki,NA,23317888,6842839,NA,complete,NA,62e02e61674aede8a5fc5d89,computer,Desktop or Laptop,Windows 10,Edge 103.0.1264.62,1366x768,1366x657,NA,ITT Ratings,3,against,6,NA,NA,NA,NA,ACCEPT,NA,NA,NA,NA,NA,batch6hes,batch6hes,35,6,1,Screen 1,continueButton,response_rating_scale_likert_active,3086.699998855591,NA,NA,Strongly Agree,1,0,1,0,NA,NA,NA,NA,1,statements,Not effective against different strains,1,17/05/2021 11:56,17/05/2021 12:05,555,A few times a year,A few times a year,25,Female,-99,A levels,56,2,Against,Against
9,1658859303674,26/07/2022 18:15:03,1658859304828,1,26/07/2022 19:15:04,93981,5,task-s8ki,NA,23317888,6842839,NA,complete,NA,62e02e61674aede8a5fc5d89,computer,Desktop or Laptop,Windows 10,Edge 103.0.1264.62,1366x768,1366x657,NA,ITT Ratings,3,against,6,NA,NA,NA,NA,ACCEPT,NA,NA,NA,NA,NA,batch6hes,batch6hes,51,7,1,Screen 1,continueButton,response_rating_scale_likert_active,5457,NA,NA,Agree,1,0,1,0,NA,NA,NA,NA,1,statements,Have close family with underlying heath conditions,1,17/05/2021 12:07,17/05/2021 12:14,400,Most weeks,Rarely,28,Female,-99,"Undergraduate degree (BSc, BA)",58,3,Against,For
10,1658859305647,26/07/2022 18:15:05,1658859306720,1,26/07/2022 19:15:06,93981,5,task-s8ki,NA,23317888,6842839,NA,complete,NA,62e02e61674aede8a5fc5d89,computer,Desktop or Laptop,Windows 10,Edge 103.0.1264.62,1366x768,1366x657,NA,ITT Ratings,3,against,6,NA,NA,NA,NA,ACCEPT,NA,NA,NA,NA,NA,batch6hes,batch6hes,34,8,1,Screen 1,continueButton,response_rating_scale_likert_active,1879.3999996185305,NA,NA,Agree,1,0,1,0,NA,NA,NA,NA,1,statements,Don't know possible long term health complications,1,17/05/2021 11:56,17/05/2021 12:05,555,A few times a year,A few times a year,25,Female,-99,A levels,56,1,Against,Against
11,1658859309781,26/07/2022 18:15:09,1658859310932,1,26/07/2022 19:15:10,93981,5,task-s8ki,NA,23317888,6842839,NA,complete,NA,62e02e61674aede8a5fc5d89,computer,Desktop or Laptop,Windows 10,Edge 103.0.1264.62,1366x768,1366x657,NA,ITT Ratings,3,against,6,NA,NA,NA,NA,ACCEPT,NA,NA,NA,NA,NA,batch6hes,batch6hes,29,9,1,Screen 1,continueButton,response_rating_scale_likert_active,4200.7000007629395,NA,NA,Strongly Agree,1,0,1,0,NA,NA,NA,NA,1,statements,"We don't yet know if there are any long term side effect of the vaccine, or how long it will stay effective, there just hasn't been time to test any of this.",1,17/05/2021 11:40,17/05/2021 12:02,1360,Rarely,Rarely,49,Female,-99,"Undergraduate degree (BSc, BA)",55,2,Against,Against
12,1658859313170,26/07/2022 18:15:13,1658859314306,1,26/07/2022 19:15:14,93981,5,task-s8ki,NA,23317888,6842839,NA,complete,NA,62e02e61674aede8a5fc5d89,computer,Desktop or Laptop,Windows 10,Edge 103.0.1264.62,1366x768,1366x657,NA,ITT Ratings,3,against,6,NA,NA,NA,NA,ACCEPT,NA,NA,NA,NA,NA,batch6hes,batch6hes,24,10,1,Screen 1,continueButton,response_rating_scale_likert_active,3363,NA,NA,Strongly Agree,1,0,1,0,NA,NA,NA,NA,1,statements,The vaccine does not give you full immunity ....you can still catch and transmit the virus after being vaccinated .,1,17/05/2021 11:50,17/05/2021 12:02,717,Most days,Most days,47,Female,-99,"Undergraduate degree (BSc, BA)",54,3,Against,Against
13,1658859315450,26/07/2022 18:15:15,1658859316539,1,26/07/2022 19:15:16,93981,5,task-s8ki,NA,23317888,6842839,NA,complete,NA,62e02e61674aede8a5fc5d89,computer,Desktop or Laptop,Windows 10,Edge 103.0.1264.62,1366x768,1366x657,NA,ITT Ratings,3,against,6,NA,NA,NA,NA,ACCEPT,NA,NA,NA,NA,NA,batch6hes,batch6hes,47,11,1,Screen 1,continueButton,response_rating_scale_likert_active,2221,NA,NA,Strongly Agree,1,0,1,0,NA,NA,NA,NA,1,statements,Don't know enough about it,1,17/05/2021 12:07,17/05/2021 12:14,400,Most weeks,Rarely,28,Female,-99,"Undergraduate degree (BSc, BA)",58,2,Against,Against
14,1658859318715,26/07/2022 18:15:18,1658859319869,1,26/07/2022 19:15:19,93981,5,task-s8ki,NA,23317888,6842839,NA,complete,NA,62e02e61674aede8a5fc5d89,computer,Desktop or Laptop,Windows 10,Edge 103.0.1264.62,1366x768,1366x657,NA,ITT Ratings,3,against,6,NA,NA,NA,NA,ACCEPT,NA,NA,NA,NA,NA,batch6hes,batch6hes,63,12,1,Screen 1,continueButton,response_rating_scale_likert_active,3317.6000003814697,NA,NA,Somewhat Disagree,1,0,1,0,NA,NA,NA,NA,1,statements,get back to normal life,1,17/05/2021 12:02,17/05/2021 12:17,926,Rarely,A few times a year,30,Female,-99,"Undergraduate degree (BSc, BA)",60,3,Against,For
15,1658859320584,26/07/2022 18:15:20,1658859321729,1,26/07/2022 19:15:21,93981,5,task-s8ki,NA,23317888,6842839,NA,complete,NA,62e02e61674aede8a5fc5d89,computer,Desktop or Laptop,Windows 10,Edge 103.0.1264.62,1366x768,1366x657,NA,ITT Ratings,3,against,6,NA,NA,NA,NA,ACCEPT,NA,NA,NA,NA,NA,batch6hes,batch6hes,22,13,1,Screen 1,continueButton,response_rating_scale_likert_active,1848.5,NA,NA,Strongly Agree,1,0,1,0,NA,NA,NA,NA,1,statements,I rely on my natural immunity,1,17/05/2021 11:50,17/05/2021 12:02,717,Most days,Most days,47,Female,-99,"Undergraduate degree (BSc, BA)",54,1,Against,Against
16,1658859323969,26/07/2022 18:15:23,1658859325103,1,26/07/2022 19:15:25,93981,5,task-s8ki,NA,23317888,6842839,NA,complete,NA,62e02e61674aede8a5fc5d89,computer,Desktop or Laptop,Windows 10,Edge 103.0.1264.62,1366x768,1366x657,NA,ITT Ratings,3,against,6,NA,NA,NA,NA,ACCEPT,NA,NA,NA,NA,NA,batch6hes,batch6hes,15,14,1,Screen 1,continueButton,response_rating_scale_likert_active,3362.7000007629395,NA,NA,Disagree,1,0,1,0,NA,NA,NA,NA,1,statements,"Vaccines are good, regardless of how new or experimental they are",1,17/05/2021 11:32,17/05/2021 12:00,1684,Rarely,Most months,43,Female,-99,"Undergraduate degree (BSc, BA)",52,3,Against,For
17,1658859324176,26/07/2022 18:15:24,1658859325319,1,26/07/2022 19:15:25,93981,5,task-s8ki,NA,23317888,6842839,NA,complete,NA,62e02e61674aede8a5fc5d89,computer,Desktop or Laptop,Windows 10,Edge 103.0.1264.62,1366x768,1366x657,NA,ITT Ratings,3,against,6,NA,NA,NA,NA,ACCEPT,NA,NA,NA,NA,NA,batch6hes,batch6hes,46,15,1,Screen 1,continueButton,response_rating_scale_likert_active,199.4000015258789,NA,NA,Disagree,1,0,1,0,NA,NA,NA,NA,1,statements,Don't know the long term effects on fertility,1,17/05/2021 12:07,17/05/2021 12:14,400,Most weeks,Rarely,28,Female,-99,"Undergraduate degree (BSc, BA)",58,1,Against,Against
18,1658859329260,26/07/2022 18:15:29,1658859330405,1,26/07/2022 19:15:30,93981,5,task-s8ki,NA,23317888,6842839,NA,complete,NA,62e02e61674aede8a5fc5d89,computer,Desktop or Laptop,Windows 10,Edge 103.0.1264.62,1366x768,1366x657,NA,ITT Ratings,3,against,6,NA,NA,NA,NA,ACCEPT,NA,NA,NA,NA,NA,batch6hes,batch6hes,53,16,1,Screen 1,continueButton,response_rating_scale_likert_active,5073.60000038147,NA,NA,Agree,1,0,1,0,NA,NA,NA,NA,1,statements,Worried about the side effects that could happen,1,17/05/2021 11:59,17/05/2021 12:15,955,Most months,Rarely,58,Female,-99,"GCSEs,A levels",59,2,Against,Against
19,1658859335143,26/07/2022 18:15:35,1658859336293,1,26/07/2022 19:15:36,93981,5,task-s8ki,NA,23317888,6842839,NA,complete,NA,62e02e61674aede8a5fc5d89,computer,Desktop or Laptop,Windows 10,Edge 103.0.1264.62,1366x768,1366x657,NA,ITT Ratings,3,against,6,NA,NA,NA,NA,ACCEPT,NA,NA,NA,NA,NA,batch6hes,batch6hes,6,17,1,Screen 1,continueButton,response_rating_scale_likert_active,5876.599998474121,NA,NA,Somewhat Agree,1,0,1,0,NA,NA,NA,NA,1,statements,"RNA vaccines are new, and past trials and tests with them on animals were unsuccessful, with many animal deaths from them. RNA vaccines can be dangerous and the long-term effects are unknown.",1,17/05/2021 11:27,17/05/2021 11:58,1838,Rarely,Most days,59,Female,-99,"Undergraduate degree (BSc, BA)",51,3,Against,Against
20,1658859338311,26/07/2022 18:15:38,1658859339459,1,26/07/2022 19:15:39,93981,5,task-s8ki,NA,23317888,6842839,NA,complete,NA,62e02e61674aede8a5fc5d89,computer,Desktop or Laptop,Windows 10,Edge 103.0.1264.62,1366x768,1366x657,NA,ITT Ratings,3,against,6,NA,NA,NA,NA,ACCEPT,NA,NA,NA,NA,NA,batch6hes,batch6hes,50,18,1,Screen 1,continueButton,response_rating_scale_likert_active,3155.2999992370605,NA,NA,Somewhat Agree,1,0,1,0,NA,NA,NA,NA,1,statements,Have underlying health conditions,1,17/05/2021 12:07,17/05/2021 12:14,400,Most weeks,Rarely,28,Female,-99,"Undergraduate degree (BSc, BA)",58,2,Against,For
21,1658859340065,26/07/2022 18:15:40,1658859341208,1,26/07/2022 19:15:41,93981,5,task-s8ki,NA,23317888,6842839,NA,complete,NA,62e02e61674aede8a5fc5d89,computer,Desktop or Laptop,Windows 10,Edge 103.0.1264.62,1366x768,1366x657,NA,ITT Ratings,3,against,6,NA,NA,NA,NA,ACCEPT,NA,NA,NA,NA,NA,batch6hes,batch6hes,11,19,1,Screen 1,continueButton,response_rating_scale_likert_active,1735.7000007629397,NA,NA,Somewhat Agree,1,0,1,0,NA,NA,NA,NA,1,statements,The trials haven't run long enough to know the long term effects,1,17/05/2021 11:32,17/05/2021 12:00,1684,Rarely,Most months,43,Female,-99,"Undergraduate degree (BSc, BA)",52,2,Against,Against
22,1658859342245,26/07/2022 18:15:42,1658859343388,1,26/07/2022 19:15:43,93981,5,task-s8ki,NA,23317888,6842839,NA,complete,NA,62e02e61674aede8a5fc5d89,computer,Desktop or Laptop,Windows 10,Edge 103.0.1264.62,1366x768,1366x657,NA,ITT Ratings,3,against,6,NA,NA,NA,NA,ACCEPT,NA,NA,NA,NA,NA,batch6hes,batch6hes,62,20,1,Screen 1,continueButton,response_rating_scale_likert_active,2168.2999992370605,NA,NA,Agree,1,0,1,0,NA,NA,NA,NA,1,statements,looking after most vulnerable in society and protecting friends and family,1,17/05/2021 12:02,17/05/2021 12:17,926,Rarely,A few times a year,30,Female,-99,"Undergraduate degree (BSc, BA)",60,2,Against,For
23,1658859344360,26/07/2022 18:15:44,1658859345501,1,26/07/2022 19:15:45,93981,5,task-s8ki,NA,23317888,6842839,NA,complete,NA,62e02e61674aede8a5fc5d89,computer,Desktop or Laptop,Windows 10,Edge 103.0.1264.62,1366x768,1366x657,NA,ITT Ratings,3,against,6,NA,NA,NA,NA,ACCEPT,NA,NA,NA,NA,NA,batch6hes,batch6hes,4,21,1,Screen 1,continueButton,response_rating_scale_likert_active,2103,NA,NA,Somewhat Agree,1,0,1,0,NA,NA,NA,NA,1,statements,The vaccine was never tested to the gold standard.,1,17/05/2021 11:27,17/05/2021 11:58,1838,Rarely,Most days,59,Female,-99,"Undergraduate degree (BSc, BA)",51,1,Against,Against
24,1658859347805,26/07/2022 18:15:47,1658859348926,1,26/07/2022 19:15:48,93981,5,task-s8ki,NA,23317888,6842839,NA,complete,NA,62e02e61674aede8a5fc5d89,computer,Desktop or Laptop,Windows 10,Edge 103.0.1264.62,1366x768,1366x657,NA,ITT Ratings,3,against,6,NA,NA,NA,NA,ACCEPT,NA,NA,NA,NA,NA,batch6hes,batch6hes,27,22,1,Screen 1,continueButton,response_rating_scale_likert_active,3414.1000003814697,NA,NA,Neither Agree nor Disagree,1,0,1,0,NA,NA,NA,NA,1,statements,"Even though it may not be fatal for everyone , people ca still suffer from long covid",1,17/05/2021 11:50,17/05/2021 12:02,717,Most days,Most days,47,Female,-99,"Undergraduate degree (BSc, BA)",54,3,Against,For
25,1658859350346,26/07/2022 18:15:50,1658859351499,1,26/07/2022 19:15:51,93981,5,task-s8ki,NA,23317888,6842839,NA,complete,NA,62e02e61674aede8a5fc5d89,computer,Desktop or Laptop,Windows 10,Edge 103.0.1264.62,1366x768,1366x657,NA,ITT Ratings,3,against,6,NA,NA,NA,NA,ACCEPT,NA,NA,NA,NA,NA,batch6hes,batch6hes,8,23,1,Screen 1,continueButton,response_rating_scale_likert_active,2562,NA,NA,Somewhat Disagree,1,0,1,0,NA,NA,NA,NA,1,statements,I want to be able to go out and about without worrying.,1,17/05/2021 11:27,17/05/2021 11:58,1838,Rarely,Most days,59,Female,-99,"Undergraduate degree (BSc, BA)",51,2,Against,For
26,1658859352814,26/07/2022 18:15:52,1658859353967,1,26/07/2022 19:15:53,93981,5,task-s8ki,NA,23317888,6842839,NA,complete,NA,62e02e61674aede8a5fc5d89,computer,Desktop or Laptop,Windows 10,Edge 103.0.1264.62,1366x768,1366x657,NA,ITT Ratings,3,against,6,NA,NA,NA,NA,ACCEPT,NA,NA,NA,NA,NA,batch6hes,batch6hes,60,24,1,Screen 1,continueButton,response_rating_scale_likert_active,2457.2999992370605,NA,NA,Agree,1,0,1,0,NA,NA,NA,NA,1,statements,"Even after the vaccine, you are not guaranteed immunity.",1,17/05/2021 12:02,17/05/2021 12:17,926,Rarely,A few times a year,30,Female,-99,"Undergraduate degree (BSc, BA)",60,3,Against,Against
27,1658859356267,26/07/2022 18:15:56,1658859357406,1,26/07/2022 19:15:57,93981,5,task-s8ki,NA,23317888,6842839,NA,complete,NA,62e02e61674aede8a5fc5d89,computer,Desktop or Laptop,Windows 10,Edge 103.0.1264.62,1366x768,1366x657,NA,ITT Ratings,3,against,6,NA,NA,NA,NA,ACCEPT,NA,NA,NA,NA,NA,batch6hes,batch6hes,23,25,1,Screen 1,continueButton,response_rating_scale_likert_active,3427.5,NA,NA,Somewhat Agree,1,0,1,0,NA,NA,NA,NA,1,statements,The vaccines haven't been thoroughly tested so the side effects are as yet unknown,1,17/05/2021 11:50,17/05/2021 12:02,717,Most days,Most days,47,Female,-99,"Undergraduate degree (BSc, BA)",54,2,Against,Against
28,1658859358776,26/07/2022 18:15:58,1658859359919,1,26/07/2022 19:15:59,93981,5,task-s8ki,NA,23317888,6842839,NA,complete,NA,62e02e61674aede8a5fc5d89,computer,Desktop or Laptop,Windows 10,Edge 103.0.1264.62,1366x768,1366x657,NA,ITT Ratings,3,against,6,NA,NA,NA,NA,ACCEPT,NA,NA,NA,NA,NA,batch6hes,batch6hes,40,26,1,Screen 1,continueButton,response_rating_scale_likert_active,2501.099998474121,NA,NA,Strongly Agree,1,0,1,0,NA,NA,NA,NA,1,statements,Doesn't stop transmission or infection,1,17/05/2021 11:49,17/05/2021 12:07,1067,Most weeks,Most months,29,Female,-99,"Undergraduate degree (BSc, BA)",57,1,Against,Against
29,1658859362219,26/07/2022 18:16:02,1658859363351,1,26/07/2022 19:16:03,93981,5,task-s8ki,NA,23317888,6842839,NA,complete,NA,62e02e61674aede8a5fc5d89,computer,Desktop or Laptop,Windows 10,Edge 103.0.1264.62,1366x768,1366x657,NA,ITT Ratings,3,against,6,NA,NA,NA,NA,ACCEPT,NA,NA,NA,NA,NA,batch6hes,batch6hes,48,27,1,Screen 1,continueButton,response_rating_scale_likert_active,3421.400001525879,NA,NA,Strongly Agree,1,0,1,0,NA,NA,NA,NA,1,statements,Not a risk group for covid,1,17/05/2021 12:07,17/05/2021 12:14,400,Most weeks,Rarely,28,Female,-99,"Undergraduate degree (BSc, BA)",58,3,Against,Against
30,1658859364976,26/07/2022 18:16:04,1658859366116,1,26/07/2022 19:16:06,93981,5,task-s8ki,NA,23317888,6842839,NA,complete,NA,62e02e61674aede8a5fc5d89,computer,Desktop or Laptop,Windows 10,Edge 103.0.1264.62,1366x768,1366x657,NA,ITT Ratings,3,against,6,NA,NA,NA,NA,ACCEPT,NA,NA,NA,NA,NA,batch6hes,batch6hes,54,28,1,Screen 1,continueButton,response_rating_scale_likert_active,2750.1000003814697,NA,NA,Disagree,1,0,1,0,NA,NA,NA,NA,1,statements,If enough other people get vaccinated I won't need it,1,17/05/2021 11:59,17/05/2021 12:15,955,Most months,Rarely,58,Female,-99,"GCSEs,A levels",59,3,Against,Against
31,1658859368012,26/07/2022 18:16:08,1658859369155,1,26/07/2022 19:16:09,93981,5,task-s8ki,NA,23317888,6842839,NA,complete,NA,62e02e61674aede8a5fc5d89,computer,Desktop or Laptop,Windows 10,Edge 103.0.1264.62,1366x768,1366x657,NA,ITT Ratings,3,against,6,NA,NA,NA,NA,ACCEPT,NA,NA,NA,NA,NA,batch6hes,batch6hes,30,29,1,Screen 1,continueButton,response_rating_scale_likert_active,3027.6000003814697,NA,NA,Disagree,1,0,1,0,NA,NA,NA,NA,1,statements,"I can carry on keeping my distance from people, wearing a mask and using hand sanitiser and keep myself and my family safe that way. It's worked so far.",1,17/05/2021 11:40,17/05/2021 12:02,1360,Rarely,Rarely,49,Female,-99,"Undergraduate degree (BSc, BA)",55,3,Against,Against
