Event.Index,UTC.Timestamp,UTC.Date,Local.Timestamp,Local.Timezone,Local.Date,Experiment.ID,Experiment.Version,Tree.Node.Key,Repeat.Key,Schedule.ID,Participant.Private.ID,Participant.Starting.Group,Participant.Status,Participant.Completion.Code,Participant.External.Session.ID,Participant.Device.Type,Participant.Device,Participant.OS,Participant.Browser,Participant.Monitor.Size,Participant.Viewport.Size,Checkpoint,Task.Name,Task.Version,branch.69an,randomiser.8vg2,quota.bqtt,quota.rycs,quota.wtfi,quota.usve,quota.zgic,quota.f3yz,quota.r9vy,quota.tfqq,quota.3dga,quota.dtj6,Spreadsheet,Spreadsheet.Name,Spreadsheet.Row,Trial.Number,Screen.Number,Screen.Name,Zone.Name,Zone.Type,Reaction.Time,Reaction.Onset,Response.Type,Response,Attempt,Correct,Incorrect,Dishonest,X.Coordinate,Y.Coordinate,Timed.Out,randomise_blocks,randomise_trials,display,Arguments,ShowProgressBar,StartDate,EndDate,Duration,discuss_1,read_1,age,gender,gender_4_TEXT,edu,ID,arg_ID,Position,Arg_Position
1,1658860274224,26/07/2022 18:31:14,1658860274127,1,26/07/2022 19:31:14,93981,5,task-xidh,NA,23318236,6842948,NA,complete,NA,62e032c3d5f8373be766ea87,computer,Desktop or Laptop,Mac OS 10.15.7,Safari 15.6,1280x800,1241x606,NA,ITT Ratings,3,against,9,NA,NA,NA,NA,NA,NA,NA,ACCEPT,NA,NA,batch9hes,NA,NA,BEGIN TASK,NA,NA,NA,NA,NA,NA,NA,NA,NA,0,1,0,NA,NA,NA,NA,NA,NA,NA,NA,NA,NA,NA,NA,NA,NA,NA,NA,NA,NA,NA,NA,NA
2,1658860282740,26/07/2022 18:31:22,1658860282665,1,26/07/2022 19:31:22,93981,5,task-xidh,NA,23318236,6842948,NA,complete,NA,62e032c3d5f8373be766ea87,computer,Desktop or Laptop,Mac OS 10.15.7,Safari 15.6,1280x800,1241x606,NA,ITT Ratings,3,against,9,NA,NA,NA,NA,NA,NA,NA,ACCEPT,NA,NA,batch9hes,batch9hes,1,1,1,Screen 1,advancementZone,continue_button,8494,NA,NA,NA,NA,0,1,0,NA,NA,NA,NA,NA,instructions,NA,NA,NA,NA,NA,NA,NA,NA,NA,NA,NA,NA,NA,NA,NA
3,1658860289479,26/07/2022 18:31:29,1658860289413,1,26/07/2022 19:31:29,93981,5,task-xidh,NA,23318236,6842948,NA,complete,NA,62e032c3d5f8373be766ea87,computer,Desktop or Laptop,Mac OS 10.15.7,Safari 15.6,1280x800,1241x606,NA,ITT Ratings,3,against,9,NA,NA,NA,NA,NA,NA,NA,ACCEPT,NA,NA,batch9hes,batch9hes,18,1,1,Screen 1,continueButton,response_rating_scale_likert_active,6726,NA,NA,Disagree,1,0,1,0,NA,NA,NA,NA,1,statements,I don't like taking vaccines,1,17/05/2021 12:50,17/05/2021 13:00,608,Rarely,Rarely,32,Male,-99,GCSEs,83,3,Against,Against
4,1658860299109,26/07/2022 18:31:39,1658860299028,1,26/07/2022 19:31:39,93981,5,task-xidh,NA,23318236,6842948,NA,complete,NA,62e032c3d5f8373be766ea87,computer,Desktop or Laptop,Mac OS 10.15.7,Safari 15.6,1280x800,1241x606,NA,ITT Ratings,3,against,9,NA,NA,NA,NA,NA,NA,NA,ACCEPT,NA,NA,batch9hes,batch9hes,31,2,1,Screen 1,continueButton,response_rating_scale_likert_active,9597,NA,NA,Disagree,1,0,1,0,NA,NA,NA,NA,1,statements,I am concerned I will get covid and die,1,17/05/2021 12:56,17/05/2021 13:03,426,Most weeks,Most weeks,37,Female,-99,"Undergraduate degree (BSc, BA)",85,1,Against,For
5,1658860306244,26/07/2022 18:31:46,1658860306172,1,26/07/2022 19:31:46,93981,5,task-xidh,NA,23318236,6842948,NA,complete,NA,62e032c3d5f8373be766ea87,computer,Desktop or Laptop,Mac OS 10.15.7,Safari 15.6,1280x800,1241x606,NA,ITT Ratings,3,against,9,NA,NA,NA,NA,NA,NA,NA,ACCEPT,NA,NA,batch9hes,batch9hes,36,3,1,Screen 1,continueButton,response_rating_scale_likert_active,7123,NA,NA,Agree,1,0,1,0,NA,NA,NA,NA,1,statements,"I do not trust the pharmaceutical companies producing the vaccines, nor the government, who are pushing them.",1,17/05/2021 12:51,17/05/2021 13:05,836,Rarely,A few times a year,33,Female,-99,"Undergraduate degree (BSc, BA)",86,3,Against,Against
6,1658860314879,26/07/2022 18:31:54,1658860314764,1,26/07/2022 19:31:54,93981,5,task-xidh,NA,23318236,6842948,NA,complete,NA,62e032c3d5f8373be766ea87,computer,Desktop or Laptop,Mac OS 10.15.7,Safari 15.6,1280x800,1241x606,NA,ITT Ratings,3,against,9,NA,NA,NA,NA,NA,NA,NA,ACCEPT,NA,NA,batch9hes,batch9hes,63,4,1,Screen 1,continueButton,response_rating_scale_likert_active,8573,NA,NA,Disagree,1,0,1,0,NA,NA,NA,NA,1,statements,The  pharmaceutical companies make no profit from this they genuinely want to help,1,17/05/2021 12:51,17/05/2021 13:08,1010,Rarely,Rarely,31,Female,-99,"Postgraduate degree (MSc, MA, MPhil)",90,3,Against,For
7,1658860321980,26/07/2022 18:32:01,1658860321900,1,26/07/2022 19:32:01,93981,5,task-xidh,NA,23318236,6842948,NA,complete,NA,62e032c3d5f8373be766ea87,computer,Desktop or Laptop,Mac OS 10.15.7,Safari 15.6,1280x800,1241x606,NA,ITT Ratings,3,against,9,NA,NA,NA,NA,NA,NA,NA,ACCEPT,NA,NA,batch9hes,batch9hes,4,5,1,Screen 1,continueButton,response_rating_scale_likert_active,7118,NA,NA,Somewhat Agree,1,0,1,0,NA,NA,NA,NA,1,statements,It is not safe to take as there have been adverse effects,1,17/05/2021 12:50,17/05/2021 12:55,305,Never,Never,32,Female,-99,"Postgraduate degree (MSc, MA, MPhil)",81,1,Against,Against
8,1658860326271,26/07/2022 18:32:06,1658860326203,1,26/07/2022 19:32:06,93981,5,task-xidh,NA,23318236,6842948,NA,complete,NA,62e032c3d5f8373be766ea87,computer,Desktop or Laptop,Mac OS 10.15.7,Safari 15.6,1280x800,1241x606,NA,ITT Ratings,3,against,9,NA,NA,NA,NA,NA,NA,NA,ACCEPT,NA,NA,batch9hes,batch9hes,30,6,1,Screen 1,continueButton,response_rating_scale_likert_active,4287,NA,NA,Agree,1,0,1,0,NA,NA,NA,NA,1,statements,risk vs benefit - benefits don't outweigh the risks associated,1,17/05/2021 12:56,17/05/2021 13:03,426,Most weeks,Most weeks,37,Female,-99,"Undergraduate degree (BSc, BA)",85,3,Against,Against
9,1658860330526,26/07/2022 18:32:10,1658860330451,1,26/07/2022 19:32:10,93981,5,task-xidh,NA,23318236,6842948,NA,complete,NA,62e032c3d5f8373be766ea87,computer,Desktop or Laptop,Mac OS 10.15.7,Safari 15.6,1280x800,1241x606,NA,ITT Ratings,3,against,9,NA,NA,NA,NA,NA,NA,NA,ACCEPT,NA,NA,batch9hes,batch9hes,38,7,1,Screen 1,continueButton,response_rating_scale_likert_active,4231,NA,NA,Disagree,1,0,1,0,NA,NA,NA,NA,1,statements,"I believe it's selfish to not take it, so comply.",1,17/05/2021 12:51,17/05/2021 13:05,836,Rarely,A few times a year,33,Female,-99,"Undergraduate degree (BSc, BA)",86,2,Against,For
10,1658860333934,26/07/2022 18:32:13,1658860333851,1,26/07/2022 19:32:13,93981,5,task-xidh,NA,23318236,6842948,NA,complete,NA,62e032c3d5f8373be766ea87,computer,Desktop or Laptop,Mac OS 10.15.7,Safari 15.6,1280x800,1241x606,NA,ITT Ratings,3,against,9,NA,NA,NA,NA,NA,NA,NA,ACCEPT,NA,NA,batch9hes,batch9hes,53,8,1,Screen 1,continueButton,response_rating_scale_likert_active,3386,NA,NA,Somewhat Agree,1,0,1,0,NA,NA,NA,NA,1,statements,I trust my own immune system,1,17/05/2021 12:55,17/05/2021 13:08,764,Most months,Most weeks,40,Female,-99,A levels,89,2,Against,Against
11,1658860336935,26/07/2022 18:32:16,1658860336852,1,26/07/2022 19:32:16,93981,5,task-xidh,NA,23318236,6842948,NA,complete,NA,62e032c3d5f8373be766ea87,computer,Desktop or Laptop,Mac OS 10.15.7,Safari 15.6,1280x800,1241x606,NA,ITT Ratings,3,against,9,NA,NA,NA,NA,NA,NA,NA,ACCEPT,NA,NA,batch9hes,batch9hes,45,9,1,Screen 1,continueButton,response_rating_scale_likert_active,2981.9999999999854,NA,NA,Disagree,1,0,1,0,NA,NA,NA,NA,1,statements,Doctors won't administer something that would cause harm,1,17/05/2021 13:02,17/05/2021 13:07,303,Rarely,Most weeks,47,Female,-99,"Postgraduate degree (MSc, MA, MPhil)",87,3,Against,For
12,1658860340192,26/07/2022 18:32:20,1658860340123,1,26/07/2022 19:32:20,93981,5,task-xidh,NA,23318236,6842948,NA,complete,NA,62e032c3d5f8373be766ea87,computer,Desktop or Laptop,Mac OS 10.15.7,Safari 15.6,1280x800,1241x606,NA,ITT Ratings,3,against,9,NA,NA,NA,NA,NA,NA,NA,ACCEPT,NA,NA,batch9hes,batch9hes,23,10,1,Screen 1,continueButton,response_rating_scale_likert_active,3251.9999999999927,NA,NA,Agree,1,0,1,0,NA,NA,NA,NA,1,statements,Rushed vaccine and pushed on people to have it,1,17/05/2021 12:56,17/05/2021 13:02,334,Rarely,Rarely,29,Female,-99,Vocational Training / Apprenticeship,84,2,Against,Against
13,1658860343777,26/07/2022 18:32:23,1658860343707,1,26/07/2022 19:32:23,93981,5,task-xidh,NA,23318236,6842948,NA,complete,NA,62e032c3d5f8373be766ea87,computer,Desktop or Laptop,Mac OS 10.15.7,Safari 15.6,1280x800,1241x606,NA,ITT Ratings,3,against,9,NA,NA,NA,NA,NA,NA,NA,ACCEPT,NA,NA,batch9hes,batch9hes,13,11,1,Screen 1,continueButton,response_rating_scale_likert_active,3568,NA,NA,Disagree,1,0,1,0,NA,NA,NA,NA,1,statements,I won't catch the virus,1,17/05/2021 12:51,17/05/2021 12:58,428,Most weeks,Most months,20,Female,-99,A levels,82,1,Against,For
14,1658860346032,26/07/2022 18:32:26,1658860345963,1,26/07/2022 19:32:25,93981,5,task-xidh,NA,23318236,6842948,NA,complete,NA,62e032c3d5f8373be766ea87,computer,Desktop or Laptop,Mac OS 10.15.7,Safari 15.6,1280x800,1241x606,NA,ITT Ratings,3,against,9,NA,NA,NA,NA,NA,NA,NA,ACCEPT,NA,NA,batch9hes,batch9hes,33,12,1,Screen 1,continueButton,response_rating_scale_likert_active,2240,NA,NA,Disagree,1,0,1,0,NA,NA,NA,NA,1,statements,government told me to,1,17/05/2021 12:56,17/05/2021 13:03,426,Most weeks,Most weeks,37,Female,-99,"Undergraduate degree (BSc, BA)",85,3,Against,For
15,1658860348471,26/07/2022 18:32:28,1658860348403,1,26/07/2022 19:32:28,93981,5,task-xidh,NA,23318236,6842948,NA,complete,NA,62e032c3d5f8373be766ea87,computer,Desktop or Laptop,Mac OS 10.15.7,Safari 15.6,1280x800,1241x606,NA,ITT Ratings,3,against,9,NA,NA,NA,NA,NA,NA,NA,ACCEPT,NA,NA,batch9hes,batch9hes,17,13,1,Screen 1,continueButton,response_rating_scale_likert_active,2426,NA,NA,Disagree,1,0,1,0,NA,NA,NA,NA,1,statements,What if something happens to you,1,17/05/2021 12:50,17/05/2021 13:00,608,Rarely,Rarely,32,Male,-99,GCSEs,83,2,Against,Against
16,1658860352992,26/07/2022 18:32:32,1658860352931,1,26/07/2022 19:32:32,93981,5,task-xidh,NA,23318236,6842948,NA,complete,NA,62e032c3d5f8373be766ea87,computer,Desktop or Laptop,Mac OS 10.15.7,Safari 15.6,1280x800,1241x606,NA,ITT Ratings,3,against,9,NA,NA,NA,NA,NA,NA,NA,ACCEPT,NA,NA,batch9hes,batch9hes,28,14,1,Screen 1,continueButton,response_rating_scale_likert_active,4513,NA,NA,Agree,1,0,1,0,NA,NA,NA,NA,1,statements,there have been more deaths from adverse reactions to vaccines from this vaccine than any others within the last 20 years,1,17/05/2021 12:56,17/05/2021 13:03,426,Most weeks,Most weeks,37,Female,-99,"Undergraduate degree (BSc, BA)",85,1,Against,Against
17,1658860356579,26/07/2022 18:32:36,1658860356507,1,26/07/2022 19:32:36,93981,5,task-xidh,NA,23318236,6842948,NA,complete,NA,62e032c3d5f8373be766ea87,computer,Desktop or Laptop,Mac OS 10.15.7,Safari 15.6,1280x800,1241x606,NA,ITT Ratings,3,against,9,NA,NA,NA,NA,NA,NA,NA,ACCEPT,NA,NA,batch9hes,batch9hes,10,15,1,Screen 1,continueButton,response_rating_scale_likert_active,3563,NA,NA,Neither Agree nor Disagree,1,0,1,0,NA,NA,NA,NA,1,statements,I don't trust the vaccination and the intentions,1,17/05/2021 12:51,17/05/2021 12:58,428,Most weeks,Most months,20,Female,-99,A levels,82,1,Against,Against
18,1658860363142,26/07/2022 18:32:43,1658860363075,1,26/07/2022 19:32:43,93981,5,task-xidh,NA,23318236,6842948,NA,complete,NA,62e032c3d5f8373be766ea87,computer,Desktop or Laptop,Mac OS 10.15.7,Safari 15.6,1280x800,1241x606,NA,ITT Ratings,3,against,9,NA,NA,NA,NA,NA,NA,NA,ACCEPT,NA,NA,batch9hes,batch9hes,50,16,1,Screen 1,continueButton,response_rating_scale_likert_active,6554,NA,NA,Somewhat Agree,1,0,1,0,NA,NA,NA,NA,1,statements,"Not to wear a mask, live life like before",1,17/05/2021 12:59,17/05/2021 13:08,529,Most weeks,Most weeks,18,Female,-99,A levels,88,2,Against,For
19,1658860366133,26/07/2022 18:32:46,1658860366066,1,26/07/2022 19:32:46,93981,5,task-xidh,NA,23318236,6842948,NA,complete,NA,62e032c3d5f8373be766ea87,computer,Desktop or Laptop,Mac OS 10.15.7,Safari 15.6,1280x800,1241x606,NA,ITT Ratings,3,against,9,NA,NA,NA,NA,NA,NA,NA,ACCEPT,NA,NA,batch9hes,batch9hes,49,17,1,Screen 1,continueButton,response_rating_scale_likert_active,2977,NA,NA,Disagree,1,0,1,0,NA,NA,NA,NA,1,statements,To be able to do things,1,17/05/2021 12:59,17/05/2021 13:08,529,Most weeks,Most weeks,18,Female,-99,A levels,88,1,Against,For
20,1658860368351,26/07/2022 18:32:48,1658860368291,1,26/07/2022 19:32:48,93981,5,task-xidh,NA,23318236,6842948,NA,complete,NA,62e032c3d5f8373be766ea87,computer,Desktop or Laptop,Mac OS 10.15.7,Safari 15.6,1280x800,1241x606,NA,ITT Ratings,3,against,9,NA,NA,NA,NA,NA,NA,NA,ACCEPT,NA,NA,batch9hes,batch9hes,58,18,1,Screen 1,continueButton,response_rating_scale_likert_active,2210.0000000000146,NA,NA,Agree,1,0,1,0,NA,NA,NA,NA,1,statements,The vaccine was formed to quickly,1,17/05/2021 12:51,17/05/2021 13:08,1010,Rarely,Rarely,31,Female,-99,"Postgraduate degree (MSc, MA, MPhil)",90,1,Against,Against
21,1658860373525,26/07/2022 18:32:53,1658860373450,1,26/07/2022 19:32:53,93981,5,task-xidh,NA,23318236,6842948,NA,complete,NA,62e032c3d5f8373be766ea87,computer,Desktop or Laptop,Mac OS 10.15.7,Safari 15.6,1280x800,1241x606,NA,ITT Ratings,3,against,9,NA,NA,NA,NA,NA,NA,NA,ACCEPT,NA,NA,batch9hes,batch9hes,46,19,1,Screen 1,continueButton,response_rating_scale_likert_active,5146,NA,NA,Neither Agree nor Disagree,1,0,1,0,NA,NA,NA,NA,1,statements,The side effect of people around the world have been horrific,1,17/05/2021 12:59,17/05/2021 13:08,529,Most weeks,Most weeks,18,Female,-99,A levels,88,1,Against,Against
22,1658860377064,26/07/2022 18:32:57,1658860376994,1,26/07/2022 19:32:56,93981,5,task-xidh,NA,23318236,6842948,NA,complete,NA,62e032c3d5f8373be766ea87,computer,Desktop or Laptop,Mac OS 10.15.7,Safari 15.6,1280x800,1241x606,NA,ITT Ratings,3,against,9,NA,NA,NA,NA,NA,NA,NA,ACCEPT,NA,NA,batch9hes,batch9hes,44,20,1,Screen 1,continueButton,response_rating_scale_likert_active,3530,NA,NA,Disagree,1,0,1,0,NA,NA,NA,NA,1,statements,"They said that they are safe and effective, so they must be, why would they lie?",1,17/05/2021 13:02,17/05/2021 13:07,303,Rarely,Most weeks,47,Female,-99,"Postgraduate degree (MSc, MA, MPhil)",87,2,Against,For
23,1658860379456,26/07/2022 18:32:59,1658860379386,1,26/07/2022 19:32:59,93981,5,task-xidh,NA,23318236,6842948,NA,complete,NA,62e032c3d5f8373be766ea87,computer,Desktop or Laptop,Mac OS 10.15.7,Safari 15.6,1280x800,1241x606,NA,ITT Ratings,3,against,9,NA,NA,NA,NA,NA,NA,NA,ACCEPT,NA,NA,batch9hes,batch9hes,39,21,1,Screen 1,continueButton,response_rating_scale_likert_active,2378,NA,NA,Disagree,1,0,1,0,NA,NA,NA,NA,1,statements,"Peer pressure. my friends have taken it, so I believe I should too.",1,17/05/2021 12:51,17/05/2021 13:05,836,Rarely,A few times a year,33,Female,-99,"Undergraduate degree (BSc, BA)",86,3,Against,For
24,1658860384836,26/07/2022 18:33:04,1658860384762,1,26/07/2022 19:33:04,93981,5,task-xidh,NA,23318236,6842948,NA,complete,NA,62e032c3d5f8373be766ea87,computer,Desktop or Laptop,Mac OS 10.15.7,Safari 15.6,1280x800,1241x606,NA,ITT Ratings,3,against,9,NA,NA,NA,NA,NA,NA,NA,ACCEPT,NA,NA,batch9hes,batch9hes,2,22,1,Screen 1,continueButton,response_rating_scale_likert_active,5363,NA,NA,Somewhat Agree,1,0,1,0,NA,NA,NA,NA,1,statements,We would like to check you are reading each argument carefully. Please select 'Somewhat Agree' for this answer,1,NA,NA,NA,NA,NA,NA,NA,NA,NA,NA,check1,NA,NA
25,1658860387316,26/07/2022 18:33:07,1658860387250,1,26/07/2022 19:33:07,93981,5,task-xidh,NA,23318236,6842948,NA,complete,NA,62e032c3d5f8373be766ea87,computer,Desktop or Laptop,Mac OS 10.15.7,Safari 15.6,1280x800,1241x606,NA,ITT Ratings,3,against,9,NA,NA,NA,NA,NA,NA,NA,ACCEPT,NA,NA,batch9hes,batch9hes,27,23,1,Screen 1,continueButton,response_rating_scale_likert_active,2474,NA,NA,Disagree,1,0,1,0,NA,NA,NA,NA,1,statements,Want to travel abroad,1,17/05/2021 12:56,17/05/2021 13:02,334,Rarely,Rarely,29,Female,-99,Vocational Training / Apprenticeship,84,3,Against,For
26,1658860396364,26/07/2022 18:33:16,1658860396290,1,26/07/2022 19:33:16,93981,5,task-xidh,NA,23318236,6842948,NA,complete,NA,62e032c3d5f8373be766ea87,computer,Desktop or Laptop,Mac OS 10.15.7,Safari 15.6,1280x800,1241x606,NA,ITT Ratings,3,against,9,NA,NA,NA,NA,NA,NA,NA,ACCEPT,NA,NA,batch9hes,batch9hes,19,24,1,Screen 1,continueButton,response_rating_scale_likert_active,9026.000000000016,NA,NA,Somewhat Disagree,1,0,1,0,NA,NA,NA,NA,1,statements,To prevent from COVID-19,1,17/05/2021 12:50,17/05/2021 13:00,608,Rarely,Rarely,32,Male,-99,GCSEs,83,1,Against,For
27,1658860398731,26/07/2022 18:33:18,1658860398658,1,26/07/2022 19:33:18,93981,5,task-xidh,NA,23318236,6842948,NA,complete,NA,62e032c3d5f8373be766ea87,computer,Desktop or Laptop,Mac OS 10.15.7,Safari 15.6,1280x800,1241x606,NA,ITT Ratings,3,against,9,NA,NA,NA,NA,NA,NA,NA,ACCEPT,NA,NA,batch9hes,batch9hes,48,25,1,Screen 1,continueButton,response_rating_scale_likert_active,2353,NA,NA,Somewhat Agree,1,0,1,0,NA,NA,NA,NA,1,statements,It's a way of controlling people,1,17/05/2021 12:59,17/05/2021 13:08,529,Most weeks,Most weeks,18,Female,-99,A levels,88,3,Against,Against
28,1658860400665,26/07/2022 18:33:20,1658860400594,1,26/07/2022 19:33:20,93981,5,task-xidh,NA,23318236,6842948,NA,complete,NA,62e032c3d5f8373be766ea87,computer,Desktop or Laptop,Mac OS 10.15.7,Safari 15.6,1280x800,1241x606,NA,ITT Ratings,3,against,9,NA,NA,NA,NA,NA,NA,NA,ACCEPT,NA,NA,batch9hes,batch9hes,14,26,1,Screen 1,continueButton,response_rating_scale_likert_active,1922.9999999999857,NA,NA,Disagree,1,0,1,0,NA,NA,NA,NA,1,statements,I can feel relaxed about COVID,1,17/05/2021 12:51,17/05/2021 12:58,428,Most weeks,Most months,20,Female,-99,A levels,82,2,Against,For
29,1658860407450,26/07/2022 18:33:27,1658860407378,1,26/07/2022 19:33:27,93981,5,task-xidh,NA,23318236,6842948,NA,complete,NA,62e032c3d5f8373be766ea87,computer,Desktop or Laptop,Mac OS 10.15.7,Safari 15.6,1280x800,1241x606,NA,ITT Ratings,3,against,9,NA,NA,NA,NA,NA,NA,NA,ACCEPT,NA,NA,batch9hes,batch9hes,47,27,1,Screen 1,continueButton,response_rating_scale_likert_active,6693.000000000029,NA,NA,Neither Agree nor Disagree,1,0,1,0,NA,NA,NA,NA,1,statements,Not enough time to ensure safety and Covid isnÈt as bad as the flu,1,17/05/2021 12:59,17/05/2021 13:08,529,Most weeks,Most weeks,18,Female,-99,A levels,88,2,Against,Against
30,1658860414397,26/07/2022 18:33:34,1658860414322,1,26/07/2022 19:33:34,93981,5,task-xidh,NA,23318236,6842948,NA,complete,NA,62e032c3d5f8373be766ea87,computer,Desktop or Laptop,Mac OS 10.15.7,Safari 15.6,1280x800,1241x606,NA,ITT Ratings,3,against,9,NA,NA,NA,NA,NA,NA,NA,ACCEPT,NA,NA,batch9hes,batch9hes,35,28,1,Screen 1,continueButton,response_rating_scale_likert_active,6930,NA,NA,Somewhat Agree,1,0,1,0,NA,NA,NA,NA,1,statements,I do not want to put foreign substances into my body and would rather rely on building my immune system naturally.,1,17/05/2021 12:51,17/05/2021 13:05,836,Rarely,A few times a year,33,Female,-99,"Undergraduate degree (BSc, BA)",86,2,Against,Against
31,1658860418575,26/07/2022 18:33:38,1658860418498,1,26/07/2022 19:33:38,93981,5,task-xidh,NA,23318236,6842948,NA,complete,NA,62e032c3d5f8373be766ea87,computer,Desktop or Laptop,Mac OS 10.15.7,Safari 15.6,1280x800,1241x606,NA,ITT Ratings,3,against,9,NA,NA,NA,NA,NA,NA,NA,ACCEPT,NA,NA,batch9hes,batch9hes,12,29,1,Screen 1,continueButton,response_rating_scale_likert_active,4163,NA,NA,Somewhat Disagree,1,0,1,0,NA,NA,NA,NA,1,statements,Fear of COVID and the whole ordeal,1,17/05/2021 12:51,17/05/2021 12:58,428,Most weeks,Most months,20,Female,-99,A levels,82,3,Against,Against
32,1658860421716,26/07/2022 18:33:41,1658860421642,1,26/07/2022 19:33:41,93981,5,task-xidh,NA,23318236,6842948,NA,complete,NA,62e032c3d5f8373be766ea87,computer,Desktop or Laptop,Mac OS 10.15.7,Safari 15.6,1280x800,1241x606,NA,ITT Ratings,3,against,9,NA,NA,NA,NA,NA,NA,NA,ACCEPT,NA,NA,batch9hes,batch9hes,8,30,1,Screen 1,continueButton,response_rating_scale_likert_active,3129,NA,NA,Disagree,1,0,1,0,NA,NA,NA,NA,1,statements,It will mean that we can stop wearing masks,1,17/05/2021 12:50,17/05/2021 12:55,305,Never,Never,32,Female,-99,"Postgraduate degree (MSc, MA, MPhil)",81,2,Against,For
33,1658860425217,26/07/2022 18:33:45,1658860425154,1,26/07/2022 19:33:45,93981,5,task-xidh,NA,23318236,6842948,NA,complete,NA,62e032c3d5f8373be766ea87,computer,Desktop or Laptop,Mac OS 10.15.7,Safari 15.6,1280x800,1241x606,NA,ITT Ratings,3,against,9,NA,NA,NA,NA,NA,NA,NA,ACCEPT,NA,NA,batch9hes,batch9hes,37,31,1,Screen 1,continueButton,response_rating_scale_likert_active,3499,NA,NA,Disagree,1,0,1,0,NA,NA,NA,NA,1,statements,"I want to feel immune and get back to my normal, everyday life ASAP.",1,17/05/2021 12:51,17/05/2021 13:05,836,Rarely,A few times a year,33,Female,-99,"Undergraduate degree (BSc, BA)",86,1,Against,For
34,1658860428347,26/07/2022 18:33:48,1658860428274,1,26/07/2022 19:33:48,93981,5,task-xidh,NA,23318236,6842948,NA,complete,NA,62e032c3d5f8373be766ea87,computer,Desktop or Laptop,Mac OS 10.15.7,Safari 15.6,1280x800,1241x606,NA,ITT Ratings,3,against,9,NA,NA,NA,NA,NA,NA,NA,ACCEPT,NA,NA,batch9hes,batch9hes,25,32,1,Screen 1,continueButton,response_rating_scale_likert_active,3107,NA,NA,Disagree,1,0,1,0,NA,NA,NA,NA,1,statements,Want to safe for myself,1,17/05/2021 12:56,17/05/2021 13:02,334,Rarely,Rarely,29,Female,-99,Vocational Training / Apprenticeship,84,1,Against,For
35,1658860431361,26/07/2022 18:33:51,1658860431281,1,26/07/2022 19:33:51,93981,5,task-xidh,NA,23318236,6842948,NA,complete,NA,62e032c3d5f8373be766ea87,computer,Desktop or Laptop,Mac OS 10.15.7,Safari 15.6,1280x800,1241x606,NA,ITT Ratings,3,against,9,NA,NA,NA,NA,NA,NA,NA,ACCEPT,NA,NA,batch9hes,batch9hes,59,33,1,Screen 1,continueButton,response_rating_scale_likert_active,2992,NA,NA,Somewhat Agree,1,0,1,0,NA,NA,NA,NA,1,statements,Some people have experienced bad side effects even death,1,17/05/2021 12:51,17/05/2021 13:08,1010,Rarely,Rarely,31,Female,-99,"Postgraduate degree (MSc, MA, MPhil)",90,2,Against,Against
36,1658860435678,26/07/2022 18:33:55,1658860435617,1,26/07/2022 19:33:55,93981,5,task-xidh,NA,23318236,6842948,NA,complete,NA,62e032c3d5f8373be766ea87,computer,Desktop or Laptop,Mac OS 10.15.7,Safari 15.6,1280x800,1241x606,NA,ITT Ratings,3,against,9,NA,NA,NA,NA,NA,NA,NA,ACCEPT,NA,NA,batch9hes,batch9hes,61,34,1,Screen 1,continueButton,response_rating_scale_likert_active,4323,NA,NA,Disagree,1,0,1,0,NA,NA,NA,NA,1,statements,The vaccine has gone through 3 trials where it was tested on thousands of people before coming into the market,1,17/05/2021 12:51,17/05/2021 13:08,1010,Rarely,Rarely,31,Female,-99,"Postgraduate degree (MSc, MA, MPhil)",90,1,Against,For
37,1658860439635,26/07/2022 18:33:59,1658860439578,1,26/07/2022 19:33:59,93981,5,task-xidh,NA,23318236,6842948,NA,complete,NA,62e032c3d5f8373be766ea87,computer,Desktop or Laptop,Mac OS 10.15.7,Safari 15.6,1280x800,1241x606,NA,ITT Ratings,3,against,9,NA,NA,NA,NA,NA,NA,NA,ACCEPT,NA,NA,batch9hes,batch9hes,29,35,1,Screen 1,continueButton,response_rating_scale_likert_active,3947,NA,NA,Somewhat Agree,1,0,1,0,NA,NA,NA,NA,1,statements,trial period ongoing until 2023,1,17/05/2021 12:56,17/05/2021 13:03,426,Most weeks,Most weeks,37,Female,-99,"Undergraduate degree (BSc, BA)",85,2,Against,Against
38,1658860444101,26/07/2022 18:34:04,1658860444033,1,26/07/2022 19:34:04,93981,5,task-xidh,NA,23318236,6842948,NA,complete,NA,62e032c3d5f8373be766ea87,computer,Desktop or Laptop,Mac OS 10.15.7,Safari 15.6,1280x800,1241x606,NA,ITT Ratings,3,against,9,NA,NA,NA,NA,NA,NA,NA,ACCEPT,NA,NA,batch9hes,batch9hes,51,36,1,Screen 1,continueButton,response_rating_scale_likert_active,4443,NA,NA,Disagree,1,0,1,0,NA,NA,NA,NA,1,statements,Immune to the vaccine,1,17/05/2021 12:59,17/05/2021 13:08,529,Most weeks,Most weeks,18,Female,-99,A levels,88,3,Against,For
39,1658860448060,26/07/2022 18:34:08,1658860447986,1,26/07/2022 19:34:07,93981,5,task-xidh,NA,23318236,6842948,NA,complete,NA,62e032c3d5f8373be766ea87,computer,Desktop or Laptop,Mac OS 10.15.7,Safari 15.6,1280x800,1241x606,NA,ITT Ratings,3,against,9,NA,NA,NA,NA,NA,NA,NA,ACCEPT,NA,NA,batch9hes,batch9hes,24,37,1,Screen 1,continueButton,response_rating_scale_likert_active,3940,NA,NA,Agree,1,0,1,0,NA,NA,NA,NA,1,statements,Not enough proof Covid-19 was as bad as the world made out,1,17/05/2021 12:56,17/05/2021 13:02,334,Rarely,Rarely,29,Female,-99,Vocational Training / Apprenticeship,84,3,Against,Against
40,1658860453403,26/07/2022 18:34:13,1658860453330,1,26/07/2022 19:34:13,93981,5,task-xidh,NA,23318236,6842948,NA,complete,NA,62e032c3d5f8373be766ea87,computer,Desktop or Laptop,Mac OS 10.15.7,Safari 15.6,1280x800,1241x606,NA,ITT Ratings,3,against,9,NA,NA,NA,NA,NA,NA,NA,ACCEPT,NA,NA,batch9hes,batch9hes,41,38,1,Screen 1,continueButton,response_rating_scale_likert_active,5331,NA,NA,Agree,1,0,1,0,NA,NA,NA,NA,1,statements,They are approved under emergency use authorisation only and are not approved,1,17/05/2021 13:02,17/05/2021 13:07,303,Rarely,Most weeks,47,Female,-99,"Postgraduate degree (MSc, MA, MPhil)",87,2,Against,Against
41,1658860455338,26/07/2022 18:34:15,1658860455266,1,26/07/2022 19:34:15,93981,5,task-xidh,NA,23318236,6842948,NA,complete,NA,62e032c3d5f8373be766ea87,computer,Desktop or Laptop,Mac OS 10.15.7,Safari 15.6,1280x800,1241x606,NA,ITT Ratings,3,against,9,NA,NA,NA,NA,NA,NA,NA,ACCEPT,NA,NA,batch9hes,batch9hes,20,39,1,Screen 1,continueButton,response_rating_scale_likert_active,1919,NA,NA,Disagree,1,0,1,0,NA,NA,NA,NA,1,statements,To be able to travel abroad,1,17/05/2021 12:50,17/05/2021 13:00,608,Rarely,Rarely,32,Male,-99,GCSEs,83,2,Against,For
42,1658860458088,26/07/2022 18:34:18,1658860457985,1,26/07/2022 19:34:17,93981,5,task-xidh,NA,23318236,6842948,NA,complete,NA,62e032c3d5f8373be766ea87,computer,Desktop or Laptop,Mac OS 10.15.7,Safari 15.6,1280x800,1241x606,NA,ITT Ratings,3,against,9,NA,NA,NA,NA,NA,NA,NA,ACCEPT,NA,NA,batch9hes,batch9hes,56,40,1,Screen 1,continueButton,response_rating_scale_likert_active,2705,NA,NA,Disagree,1,0,1,0,NA,NA,NA,NA,1,statements,I do not want to get covid19,1,17/05/2021 12:55,17/05/2021 13:08,764,Most months,Most weeks,40,Female,-99,A levels,89,2,Against,For
43,1658860460766,26/07/2022 18:34:20,1658860460705,1,26/07/2022 19:34:20,93981,5,task-xidh,NA,23318236,6842948,NA,complete,NA,62e032c3d5f8373be766ea87,computer,Desktop or Laptop,Mac OS 10.15.7,Safari 15.6,1280x800,1241x606,NA,ITT Ratings,3,against,9,NA,NA,NA,NA,NA,NA,NA,ACCEPT,NA,NA,batch9hes,batch9hes,26,41,1,Screen 1,continueButton,response_rating_scale_likert_active,2706,NA,NA,Disagree,1,0,1,0,NA,NA,NA,NA,1,statements,Want to be safe around other people,1,17/05/2021 12:56,17/05/2021 13:02,334,Rarely,Rarely,29,Female,-99,Vocational Training / Apprenticeship,84,2,Against,For
44,1658860463275,26/07/2022 18:34:23,1658860463201,1,26/07/2022 19:34:23,93981,5,task-xidh,NA,23318236,6842948,NA,complete,NA,62e032c3d5f8373be766ea87,computer,Desktop or Laptop,Mac OS 10.15.7,Safari 15.6,1280x800,1241x606,NA,ITT Ratings,3,against,9,NA,NA,NA,NA,NA,NA,NA,ACCEPT,NA,NA,batch9hes,batch9hes,40,42,1,Screen 1,continueButton,response_rating_scale_likert_active,2484,NA,NA,Somewhat Agree,1,0,1,0,NA,NA,NA,NA,1,statements,There is no need for it,1,17/05/2021 13:02,17/05/2021 13:07,303,Rarely,Most weeks,47,Female,-99,"Postgraduate degree (MSc, MA, MPhil)",87,1,Against,Against
45,1658860466731,26/07/2022 18:34:26,1658860466657,1,26/07/2022 19:34:26,93981,5,task-xidh,NA,23318236,6842948,NA,complete,NA,62e032c3d5f8373be766ea87,computer,Desktop or Laptop,Mac OS 10.15.7,Safari 15.6,1280x800,1241x606,NA,ITT Ratings,3,against,9,NA,NA,NA,NA,NA,NA,NA,ACCEPT,NA,NA,batch9hes,batch9hes,34,43,1,Screen 1,continueButton,response_rating_scale_likert_active,3442.000000000029,NA,NA,Agree,1,0,1,0,NA,NA,NA,NA,1,statements,The vaccines are new and haven't been tested for long enough to know the long term side-effects.,1,17/05/2021 12:51,17/05/2021 13:05,836,Rarely,A few times a year,33,Female,-99,"Undergraduate degree (BSc, BA)",86,1,Against,Against
46,1658860469920,26/07/2022 18:34:29,1658860469841,1,26/07/2022 19:34:29,93981,5,task-xidh,NA,23318236,6842948,NA,complete,NA,62e032c3d5f8373be766ea87,computer,Desktop or Laptop,Mac OS 10.15.7,Safari 15.6,1280x800,1241x606,NA,ITT Ratings,3,against,9,NA,NA,NA,NA,NA,NA,NA,ACCEPT,NA,NA,batch9hes,batch9hes,16,44,1,Screen 1,continueButton,response_rating_scale_likert_active,3170.000000000029,NA,NA,Somewhat Agree,1,0,1,0,NA,NA,NA,NA,1,statements,Taking the vaccine is not safe,1,17/05/2021 12:50,17/05/2021 13:00,608,Rarely,Rarely,32,Male,-99,GCSEs,83,1,Against,Against
47,1658860471919,26/07/2022 18:34:31,1658860471849,1,26/07/2022 19:34:31,93981,5,task-xidh,NA,23318236,6842948,NA,complete,NA,62e032c3d5f8373be766ea87,computer,Desktop or Laptop,Mac OS 10.15.7,Safari 15.6,1280x800,1241x606,NA,ITT Ratings,3,against,9,NA,NA,NA,NA,NA,NA,NA,ACCEPT,NA,NA,batch9hes,batch9hes,6,45,1,Screen 1,continueButton,response_rating_scale_likert_active,1994,NA,NA,Agree,1,0,1,0,NA,NA,NA,NA,1,statements,There wasn't enough time to develop it,1,17/05/2021 12:50,17/05/2021 12:55,305,Never,Never,32,Female,-99,"Postgraduate degree (MSc, MA, MPhil)",81,3,Against,Against
48,1658860476129,26/07/2022 18:34:36,1658860476057,1,26/07/2022 19:34:36,93981,5,task-xidh,NA,23318236,6842948,NA,complete,NA,62e032c3d5f8373be766ea87,computer,Desktop or Laptop,Mac OS 10.15.7,Safari 15.6,1280x800,1241x606,NA,ITT Ratings,3,against,9,NA,NA,NA,NA,NA,NA,NA,ACCEPT,NA,NA,batch9hes,batch9hes,3,46,1,Screen 1,continueButton,response_rating_scale_likert_active,4194.000000000029,NA,NA,Somewhat Disagree,1,0,1,0,NA,NA,NA,NA,1,statements,We would like to check you are reading each argument carefully. Please select 'Somewhat Disagree' for this answer,1,NA,NA,NA,NA,NA,NA,NA,NA,NA,NA,check2,NA,NA
49,1658860482846,26/07/2022 18:34:42,1658860482769,1,26/07/2022 19:34:42,93981,5,task-xidh,NA,23318236,6842948,NA,complete,NA,62e032c3d5f8373be766ea87,computer,Desktop or Laptop,Mac OS 10.15.7,Safari 15.6,1280x800,1241x606,NA,ITT Ratings,3,against,9,NA,NA,NA,NA,NA,NA,NA,ACCEPT,NA,NA,batch9hes,batch9hes,62,47,1,Screen 1,continueButton,response_rating_scale_likert_active,6700,NA,NA,Disagree,1,0,1,0,NA,NA,NA,NA,1,statements,"The vaccine only gives you minor side effects such as fatigue, fever",1,17/05/2021 12:51,17/05/2021 13:08,1010,Rarely,Rarely,31,Female,-99,"Postgraduate degree (MSc, MA, MPhil)",90,2,Against,For
50,1658860485161,26/07/2022 18:34:45,1658860485105,1,26/07/2022 19:34:45,93981,5,task-xidh,NA,23318236,6842948,NA,complete,NA,62e032c3d5f8373be766ea87,computer,Desktop or Laptop,Mac OS 10.15.7,Safari 15.6,1280x800,1241x606,NA,ITT Ratings,3,against,9,NA,NA,NA,NA,NA,NA,NA,ACCEPT,NA,NA,batch9hes,batch9hes,52,48,1,Screen 1,continueButton,response_rating_scale_likert_active,2322,NA,NA,Disagree,1,0,1,0,NA,NA,NA,NA,1,statements,I do not believe in Covid 19,1,17/05/2021 12:55,17/05/2021 13:08,764,Most months,Most weeks,40,Female,-99,A levels,89,1,Against,Against
51,1658860487877,26/07/2022 18:34:47,1658860487809,1,26/07/2022 19:34:47,93981,5,task-xidh,NA,23318236,6842948,NA,complete,NA,62e032c3d5f8373be766ea87,computer,Desktop or Laptop,Mac OS 10.15.7,Safari 15.6,1280x800,1241x606,NA,ITT Ratings,3,against,9,NA,NA,NA,NA,NA,NA,NA,ACCEPT,NA,NA,batch9hes,batch9hes,21,49,1,Screen 1,continueButton,response_rating_scale_likert_active,2691,NA,NA,Disagree,1,0,1,0,NA,NA,NA,NA,1,statements,To be safe from any infections,1,17/05/2021 12:50,17/05/2021 13:00,608,Rarely,Rarely,32,Male,-99,GCSEs,83,3,Against,For
52,1658860490497,26/07/2022 18:34:50,1658860490433,1,26/07/2022 19:34:50,93981,5,task-xidh,NA,23318236,6842948,NA,complete,NA,62e032c3d5f8373be766ea87,computer,Desktop or Laptop,Mac OS 10.15.7,Safari 15.6,1280x800,1241x606,NA,ITT Ratings,3,against,9,NA,NA,NA,NA,NA,NA,NA,ACCEPT,NA,NA,batch9hes,batch9hes,11,50,1,Screen 1,continueButton,response_rating_scale_likert_active,2612,NA,NA,Disagree,1,0,1,0,NA,NA,NA,NA,1,statements,I don't like having vaccinations,1,17/05/2021 12:51,17/05/2021 12:58,428,Most weeks,Most months,20,Female,-99,A levels,82,2,Against,Against
53,1658860493088,26/07/2022 18:34:53,1658860493032,1,26/07/2022 19:34:53,93981,5,task-xidh,NA,23318236,6842948,NA,complete,NA,62e032c3d5f8373be766ea87,computer,Desktop or Laptop,Mac OS 10.15.7,Safari 15.6,1280x800,1241x606,NA,ITT Ratings,3,against,9,NA,NA,NA,NA,NA,NA,NA,ACCEPT,NA,NA,batch9hes,batch9hes,57,51,1,Screen 1,continueButton,response_rating_scale_likert_active,2586.000000000029,NA,NA,Disagree,1,0,1,0,NA,NA,NA,NA,1,statements,It's reccomended that we take the vaccine.,1,17/05/2021 12:55,17/05/2021 13:08,764,Most months,Most weeks,40,Female,-99,A levels,89,3,Against,For
54,1658860497192,26/07/2022 18:34:57,1658860497128,1,26/07/2022 19:34:57,93981,5,task-xidh,NA,23318236,6842948,NA,complete,NA,62e032c3d5f8373be766ea87,computer,Desktop or Laptop,Mac OS 10.15.7,Safari 15.6,1280x800,1241x606,NA,ITT Ratings,3,against,9,NA,NA,NA,NA,NA,NA,NA,ACCEPT,NA,NA,batch9hes,batch9hes,60,52,1,Screen 1,continueButton,response_rating_scale_likert_active,4083,NA,NA,Agree,1,0,1,0,NA,NA,NA,NA,1,statements,There is no evidence to show how effective it is,1,17/05/2021 12:51,17/05/2021 13:08,1010,Rarely,Rarely,31,Female,-99,"Postgraduate degree (MSc, MA, MPhil)",90,3,Against,Against
55,1658860499347,26/07/2022 18:34:59,1658860499281,1,26/07/2022 19:34:59,93981,5,task-xidh,NA,23318236,6842948,NA,complete,NA,62e032c3d5f8373be766ea87,computer,Desktop or Laptop,Mac OS 10.15.7,Safari 15.6,1280x800,1241x606,NA,ITT Ratings,3,against,9,NA,NA,NA,NA,NA,NA,NA,ACCEPT,NA,NA,batch9hes,batch9hes,15,53,1,Screen 1,continueButton,response_rating_scale_likert_active,2140,NA,NA,Disagree,1,0,1,0,NA,NA,NA,NA,1,statements,I want everything to go back to normal,1,17/05/2021 12:51,17/05/2021 12:58,428,Most weeks,Most months,20,Female,-99,A levels,82,3,Against,For
56,1658860501231,26/07/2022 18:35:01,1658860501160,1,26/07/2022 19:35:01,93981,5,task-xidh,NA,23318236,6842948,NA,complete,NA,62e032c3d5f8373be766ea87,computer,Desktop or Laptop,Mac OS 10.15.7,Safari 15.6,1280x800,1241x606,NA,ITT Ratings,3,against,9,NA,NA,NA,NA,NA,NA,NA,ACCEPT,NA,NA,batch9hes,batch9hes,55,54,1,Screen 1,continueButton,response_rating_scale_likert_active,1868,NA,NA,Disagree,1,0,1,0,NA,NA,NA,NA,1,statements,It's selfish not to get one. Think of others.,1,17/05/2021 12:55,17/05/2021 13:08,764,Most months,Most weeks,40,Female,-99,A levels,89,1,Against,For
57,1658860503973,26/07/2022 18:35:03,1658860503912,1,26/07/2022 19:35:03,93981,5,task-xidh,NA,23318236,6842948,NA,complete,NA,62e032c3d5f8373be766ea87,computer,Desktop or Laptop,Mac OS 10.15.7,Safari 15.6,1280x800,1241x606,NA,ITT Ratings,3,against,9,NA,NA,NA,NA,NA,NA,NA,ACCEPT,NA,NA,batch9hes,batch9hes,5,55,1,Screen 1,continueButton,response_rating_scale_likert_active,2739,NA,NA,Agree,1,0,1,0,NA,NA,NA,NA,1,statements,People get blood clots from it so it's unsafe to have,1,17/05/2021 12:50,17/05/2021 12:55,305,Never,Never,32,Female,-99,"Postgraduate degree (MSc, MA, MPhil)",81,2,Against,Against
58,1658860506206,26/07/2022 18:35:06,1658860506145,1,26/07/2022 19:35:06,93981,5,task-xidh,NA,23318236,6842948,NA,complete,NA,62e032c3d5f8373be766ea87,computer,Desktop or Laptop,Mac OS 10.15.7,Safari 15.6,1280x800,1241x606,NA,ITT Ratings,3,against,9,NA,NA,NA,NA,NA,NA,NA,ACCEPT,NA,NA,batch9hes,batch9hes,9,56,1,Screen 1,continueButton,response_rating_scale_likert_active,2221.000000000029,NA,NA,Disagree,1,0,1,0,NA,NA,NA,NA,1,statements,It is the only way to open up society,1,17/05/2021 12:50,17/05/2021 12:55,305,Never,Never,32,Female,-99,"Postgraduate degree (MSc, MA, MPhil)",81,3,Against,For
59,1658860510347,26/07/2022 18:35:10,1658860510280,1,26/07/2022 19:35:10,93981,5,task-xidh,NA,23318236,6842948,NA,complete,NA,62e032c3d5f8373be766ea87,computer,Desktop or Laptop,Mac OS 10.15.7,Safari 15.6,1280x800,1241x606,NA,ITT Ratings,3,against,9,NA,NA,NA,NA,NA,NA,NA,ACCEPT,NA,NA,batch9hes,batch9hes,42,57,1,Screen 1,continueButton,response_rating_scale_likert_active,4123,NA,NA,Agree,1,0,1,0,NA,NA,NA,NA,1,statements,They are still undergoing clinical trials and given the side effects and deaths from these vaccines to date these trials should have been stopped months ago,1,17/05/2021 13:02,17/05/2021 13:07,303,Rarely,Most weeks,47,Female,-99,"Postgraduate degree (MSc, MA, MPhil)",87,3,Against,Against
60,1658860512795,26/07/2022 18:35:12,1658860512728,1,26/07/2022 19:35:12,93981,5,task-xidh,NA,23318236,6842948,NA,complete,NA,62e032c3d5f8373be766ea87,computer,Desktop or Laptop,Mac OS 10.15.7,Safari 15.6,1280x800,1241x606,NA,ITT Ratings,3,against,9,NA,NA,NA,NA,NA,NA,NA,ACCEPT,NA,NA,batch9hes,batch9hes,54,58,1,Screen 1,continueButton,response_rating_scale_likert_active,2436,NA,NA,Somewhat Agree,1,0,1,0,NA,NA,NA,NA,1,statements,The vaccines will not work,1,17/05/2021 12:55,17/05/2021 13:08,764,Most months,Most weeks,40,Female,-99,A levels,89,3,Against,Against
61,1658860515643,26/07/2022 18:35:15,1658860515576,1,26/07/2022 19:35:15,93981,5,task-xidh,NA,23318236,6842948,NA,complete,NA,62e032c3d5f8373be766ea87,computer,Desktop or Laptop,Mac OS 10.15.7,Safari 15.6,1280x800,1241x606,NA,ITT Ratings,3,against,9,NA,NA,NA,NA,NA,NA,NA,ACCEPT,NA,NA,batch9hes,batch9hes,43,59,1,Screen 1,continueButton,response_rating_scale_likert_active,2836,NA,NA,Disagree,1,0,1,0,NA,NA,NA,NA,1,statements,I believe everything the government and MSM tells me without question,1,17/05/2021 13:02,17/05/2021 13:07,303,Rarely,Most weeks,47,Female,-99,"Postgraduate degree (MSc, MA, MPhil)",87,1,Against,For
62,1658860517398,26/07/2022 18:35:17,1658860517336,1,26/07/2022 19:35:17,93981,5,task-xidh,NA,23318236,6842948,NA,complete,NA,62e032c3d5f8373be766ea87,computer,Desktop or Laptop,Mac OS 10.15.7,Safari 15.6,1280x800,1241x606,NA,ITT Ratings,3,against,9,NA,NA,NA,NA,NA,NA,NA,ACCEPT,NA,NA,batch9hes,batch9hes,32,60,1,Screen 1,continueButton,response_rating_scale_likert_active,1748,NA,NA,Disagree,1,0,1,0,NA,NA,NA,NA,1,statements,reduce the spread to others,1,17/05/2021 12:56,17/05/2021 13:03,426,Most weeks,Most weeks,37,Female,-99,"Undergraduate degree (BSc, BA)",85,2,Against,For
63,1658860519998,26/07/2022 18:35:19,1658860519920,1,26/07/2022 19:35:19,93981,5,task-xidh,NA,23318236,6842948,NA,complete,NA,62e032c3d5f8373be766ea87,computer,Desktop or Laptop,Mac OS 10.15.7,Safari 15.6,1280x800,1241x606,NA,ITT Ratings,3,against,9,NA,NA,NA,NA,NA,NA,NA,ACCEPT,NA,NA,batch9hes,batch9hes,22,61,1,Screen 1,continueButton,response_rating_scale_likert_active,2572,NA,NA,Agree,1,0,1,0,NA,NA,NA,NA,1,statements,Not enough trials on different people and ages,1,17/05/2021 12:56,17/05/2021 13:02,334,Rarely,Rarely,29,Female,-99,Vocational Training / Apprenticeship,84,1,Against,Against
64,1658860521993,26/07/2022 18:35:21,1658860521927,1,26/07/2022 19:35:21,93981,5,task-xidh,NA,23318236,6842948,NA,complete,NA,62e032c3d5f8373be766ea87,computer,Desktop or Laptop,Mac OS 10.15.7,Safari 15.6,1280x800,1241x606,NA,ITT Ratings,3,against,9,NA,NA,NA,NA,NA,NA,NA,ACCEPT,NA,NA,batch9hes,batch9hes,7,62,1,Screen 1,continueButton,response_rating_scale_likert_active,1998,NA,NA,Disagree,1,0,1,0,NA,NA,NA,NA,1,statements,It will mean shops can open,1,17/05/2021 12:50,17/05/2021 12:55,305,Never,Never,32,Female,-99,"Postgraduate degree (MSc, MA, MPhil)",81,1,Against,For
65,1658860522081,26/07/2022 18:35:22,1658860521931,1,26/07/2022 19:35:21,93981,5,task-xidh,NA,23318236,6842948,NA,complete,NA,62e032c3d5f8373be766ea87,computer,Desktop or Laptop,Mac OS 10.15.7,Safari 15.6,1280x800,1241x606,NA,ITT Ratings,3,against,9,NA,NA,NA,NA,NA,NA,NA,ACCEPT,NA,NA,batch9hes,NA,NA,END TASK,NA,NA,NA,NA,247804,NA,NA,NA,NA,0,1,0,NA,NA,NA,NA,NA,NA,NA,NA,NA,NA,NA,NA,NA,NA,NA,NA,NA,NA,NA,NA,NA
1,1658860373675,26/07/2022 18:32:53,1658860373244,1,26/07/2022 19:32:53,93981,5,task-xidh,NA,23318270,6842954,NA,complete,NA,62e032e819436e3e5a5ee8b3,computer,Desktop or Laptop,Windows 10,Firefox 102.0,1920x1080,1920x955,NA,ITT Ratings,3,against,9,NA,NA,NA,NA,NA,NA,NA,ACCEPT,NA,NA,batch9hes,NA,NA,BEGIN TASK,NA,NA,NA,NA,NA,NA,NA,NA,NA,0,1,0,NA,NA,NA,NA,NA,NA,NA,NA,NA,NA,NA,NA,NA,NA,NA,NA,NA,NA,NA,NA,NA
2,1658860394637,26/07/2022 18:33:14,1658860394254,1,26/07/2022 19:33:14,93981,5,task-xidh,NA,23318270,6842954,NA,complete,NA,62e032e819436e3e5a5ee8b3,computer,Desktop or Laptop,Windows 10,Firefox 102.0,1920x1080,1920x955,NA,ITT Ratings,3,against,9,NA,NA,NA,NA,NA,NA,NA,ACCEPT,NA,NA,batch9hes,batch9hes,1,1,1,Screen 1,advancementZone,continue_button,20981,NA,NA,NA,NA,0,1,0,NA,NA,NA,NA,NA,instructions,NA,NA,NA,NA,NA,NA,NA,NA,NA,NA,NA,NA,NA,NA,NA
3,1658860401421,26/07/2022 18:33:21,1658860401036,1,26/07/2022 19:33:21,93981,5,task-xidh,NA,23318270,6842954,NA,complete,NA,62e032e819436e3e5a5ee8b3,computer,Desktop or Laptop,Windows 10,Firefox 102.0,1920x1080,1920x955,NA,ITT Ratings,3,against,9,NA,NA,NA,NA,NA,NA,NA,ACCEPT,NA,NA,batch9hes,batch9hes,31,1,1,Screen 1,continueButton,response_rating_scale_likert_active,6760,NA,NA,Strongly Disagree,1,0,1,0,NA,NA,NA,NA,1,statements,I am concerned I will get covid and die,1,17/05/2021 12:56,17/05/2021 13:03,426,Most weeks,Most weeks,37,Female,-99,"Undergraduate degree (BSc, BA)",85,1,Against,For
4,1658860409115,26/07/2022 18:33:29,1658860408324,1,26/07/2022 19:33:28,93981,5,task-xidh,NA,23318270,6842954,NA,complete,NA,62e032e819436e3e5a5ee8b3,computer,Desktop or Laptop,Windows 10,Firefox 102.0,1920x1080,1920x955,NA,ITT Ratings,3,against,9,NA,NA,NA,NA,NA,NA,NA,ACCEPT,NA,NA,batch9hes,batch9hes,42,2,1,Screen 1,continueButton,response_rating_scale_likert_active,7273,NA,NA,Strongly Agree,1,0,1,0,NA,NA,NA,NA,1,statements,They are still undergoing clinical trials and given the side effects and deaths from these vaccines to date these trials should have been stopped months ago,1,17/05/2021 13:02,17/05/2021 13:07,303,Rarely,Most weeks,47,Female,-99,"Postgraduate degree (MSc, MA, MPhil)",87,3,Against,Against
5,1658860413335,26/07/2022 18:33:33,1658860412957,1,26/07/2022 19:33:32,93981,5,task-xidh,NA,23318270,6842954,NA,complete,NA,62e032e819436e3e5a5ee8b3,computer,Desktop or Laptop,Windows 10,Firefox 102.0,1920x1080,1920x955,NA,ITT Ratings,3,against,9,NA,NA,NA,NA,NA,NA,NA,ACCEPT,NA,NA,batch9hes,batch9hes,63,3,1,Screen 1,continueButton,response_rating_scale_likert_active,4619,NA,NA,Strongly Disagree,1,0,1,0,NA,NA,NA,NA,1,statements,The  pharmaceutical companies make no profit from this they genuinely want to help,1,17/05/2021 12:51,17/05/2021 13:08,1010,Rarely,Rarely,31,Female,-99,"Postgraduate degree (MSc, MA, MPhil)",90,3,Against,For
6,1658860421561,26/07/2022 18:33:41,1658860420477,1,26/07/2022 19:33:40,93981,5,task-xidh,NA,23318270,6842954,NA,complete,NA,62e032e819436e3e5a5ee8b3,computer,Desktop or Laptop,Windows 10,Firefox 102.0,1920x1080,1920x955,NA,ITT Ratings,3,against,9,NA,NA,NA,NA,NA,NA,NA,ACCEPT,NA,NA,batch9hes,batch9hes,39,4,1,Screen 1,continueButton,response_rating_scale_likert_active,7509,NA,NA,Strongly Disagree,1,0,1,0,NA,NA,NA,NA,1,statements,"Peer pressure. my friends have taken it, so I believe I should too.",1,17/05/2021 12:51,17/05/2021 13:05,836,Rarely,A few times a year,33,Female,-99,"Undergraduate degree (BSc, BA)",86,3,Against,For
7,1658860427910,26/07/2022 18:33:47,1658860427540,1,26/07/2022 19:33:47,93981,5,task-xidh,NA,23318270,6842954,NA,complete,NA,62e032e819436e3e5a5ee8b3,computer,Desktop or Laptop,Windows 10,Firefox 102.0,1920x1080,1920x955,NA,ITT Ratings,3,against,9,NA,NA,NA,NA,NA,NA,NA,ACCEPT,NA,NA,batch9hes,batch9hes,24,5,1,Screen 1,continueButton,response_rating_scale_likert_active,7043,NA,NA,Strongly Agree,1,0,1,0,NA,NA,NA,NA,1,statements,Not enough proof Covid-19 was as bad as the world made out,1,17/05/2021 12:56,17/05/2021 13:02,334,Rarely,Rarely,29,Female,-99,Vocational Training / Apprenticeship,84,3,Against,Against
8,1658860440768,26/07/2022 18:34:00,1658860440412,1,26/07/2022 19:34:00,93981,5,task-xidh,NA,23318270,6842954,NA,complete,NA,62e032e819436e3e5a5ee8b3,computer,Desktop or Laptop,Windows 10,Firefox 102.0,1920x1080,1920x955,NA,ITT Ratings,3,against,9,NA,NA,NA,NA,NA,NA,NA,ACCEPT,NA,NA,batch9hes,batch9hes,47,6,1,Screen 1,continueButton,response_rating_scale_likert_active,12858,NA,NA,Strongly Agree,1,0,1,0,NA,NA,NA,NA,1,statements,Not enough time to ensure safety and Covid isnÈt as bad as the flu,1,17/05/2021 12:59,17/05/2021 13:08,529,Most weeks,Most weeks,18,Female,-99,A levels,88,2,Against,Against
9,1658860447813,26/07/2022 18:34:07,1658860447452,1,26/07/2022 19:34:07,93981,5,task-xidh,NA,23318270,6842954,NA,complete,NA,62e032e819436e3e5a5ee8b3,computer,Desktop or Laptop,Windows 10,Firefox 102.0,1920x1080,1920x955,NA,ITT Ratings,3,against,9,NA,NA,NA,NA,NA,NA,NA,ACCEPT,NA,NA,batch9hes,batch9hes,35,7,1,Screen 1,continueButton,response_rating_scale_likert_active,7026,NA,NA,Strongly Agree,1,0,1,0,NA,NA,NA,NA,1,statements,I do not want to put foreign substances into my body and would rather rely on building my immune system naturally.,1,17/05/2021 12:51,17/05/2021 13:05,836,Rarely,A few times a year,33,Female,-99,"Undergraduate degree (BSc, BA)",86,2,Against,Against
10,1658860454576,26/07/2022 18:34:14,1658860454212,1,26/07/2022 19:34:14,93981,5,task-xidh,NA,23318270,6842954,NA,complete,NA,62e032e819436e3e5a5ee8b3,computer,Desktop or Laptop,Windows 10,Firefox 102.0,1920x1080,1920x955,NA,ITT Ratings,3,against,9,NA,NA,NA,NA,NA,NA,NA,ACCEPT,NA,NA,batch9hes,batch9hes,30,8,1,Screen 1,continueButton,response_rating_scale_likert_active,6746,NA,NA,Strongly Agree,1,0,1,0,NA,NA,NA,NA,1,statements,risk vs benefit - benefits don't outweigh the risks associated,1,17/05/2021 12:56,17/05/2021 13:03,426,Most weeks,Most weeks,37,Female,-99,"Undergraduate degree (BSc, BA)",85,3,Against,Against
11,1658860459727,26/07/2022 18:34:19,1658860459372,1,26/07/2022 19:34:19,93981,5,task-xidh,NA,23318270,6842954,NA,complete,NA,62e032e819436e3e5a5ee8b3,computer,Desktop or Laptop,Windows 10,Firefox 102.0,1920x1080,1920x955,NA,ITT Ratings,3,against,9,NA,NA,NA,NA,NA,NA,NA,ACCEPT,NA,NA,batch9hes,batch9hes,59,9,1,Screen 1,continueButton,response_rating_scale_likert_active,5150,NA,NA,Strongly Agree,1,0,1,0,NA,NA,NA,NA,1,statements,Some people have experienced bad side effects even death,1,17/05/2021 12:51,17/05/2021 13:08,1010,Rarely,Rarely,31,Female,-99,"Postgraduate degree (MSc, MA, MPhil)",90,2,Against,Against
12,1658860465292,26/07/2022 18:34:25,1658860464198,1,26/07/2022 19:34:24,93981,5,task-xidh,NA,23318270,6842954,NA,complete,NA,62e032e819436e3e5a5ee8b3,computer,Desktop or Laptop,Windows 10,Firefox 102.0,1920x1080,1920x955,NA,ITT Ratings,3,against,9,NA,NA,NA,NA,NA,NA,NA,ACCEPT,NA,NA,batch9hes,batch9hes,55,10,1,Screen 1,continueButton,response_rating_scale_likert_active,4815,NA,NA,Strongly Disagree,1,0,1,0,NA,NA,NA,NA,1,statements,It's selfish not to get one. Think of others.,1,17/05/2021 12:55,17/05/2021 13:08,764,Most months,Most weeks,40,Female,-99,A levels,89,1,Against,For
13,1658860479109,26/07/2022 18:34:39,1658860478742,1,26/07/2022 19:34:38,93981,5,task-xidh,NA,23318270,6842954,NA,complete,NA,62e032e819436e3e5a5ee8b3,computer,Desktop or Laptop,Windows 10,Firefox 102.0,1920x1080,1920x955,NA,ITT Ratings,3,against,9,NA,NA,NA,NA,NA,NA,NA,ACCEPT,NA,NA,batch9hes,batch9hes,32,11,1,Screen 1,continueButton,response_rating_scale_likert_active,14532,NA,NA,Strongly Disagree,1,0,1,0,NA,NA,NA,NA,1,statements,reduce the spread to others,1,17/05/2021 12:56,17/05/2021 13:03,426,Most weeks,Most weeks,37,Female,-99,"Undergraduate degree (BSc, BA)",85,2,Against,For
14,1658860486168,26/07/2022 18:34:46,1658860485797,1,26/07/2022 19:34:45,93981,5,task-xidh,NA,23318270,6842954,NA,complete,NA,62e032e819436e3e5a5ee8b3,computer,Desktop or Laptop,Windows 10,Firefox 102.0,1920x1080,1920x955,NA,ITT Ratings,3,against,9,NA,NA,NA,NA,NA,NA,NA,ACCEPT,NA,NA,batch9hes,batch9hes,14,12,1,Screen 1,continueButton,response_rating_scale_likert_active,7044,NA,NA,Strongly Disagree,1,0,1,0,NA,NA,NA,NA,1,statements,I can feel relaxed about COVID,1,17/05/2021 12:51,17/05/2021 12:58,428,Most weeks,Most months,20,Female,-99,A levels,82,2,Against,For
15,1658860489046,26/07/2022 18:34:49,1658860488692,1,26/07/2022 19:34:48,93981,5,task-xidh,NA,23318270,6842954,NA,complete,NA,62e032e819436e3e5a5ee8b3,computer,Desktop or Laptop,Windows 10,Firefox 102.0,1920x1080,1920x955,NA,ITT Ratings,3,against,9,NA,NA,NA,NA,NA,NA,NA,ACCEPT,NA,NA,batch9hes,batch9hes,16,13,1,Screen 1,continueButton,response_rating_scale_likert_active,2873,NA,NA,Strongly Agree,1,0,1,0,NA,NA,NA,NA,1,statements,Taking the vaccine is not safe,1,17/05/2021 12:50,17/05/2021 13:00,608,Rarely,Rarely,32,Male,-99,GCSEs,83,1,Against,Against
16,1658860493627,26/07/2022 18:34:53,1658860493261,1,26/07/2022 19:34:53,93981,5,task-xidh,NA,23318270,6842954,NA,complete,NA,62e032e819436e3e5a5ee8b3,computer,Desktop or Laptop,Windows 10,Firefox 102.0,1920x1080,1920x955,NA,ITT Ratings,3,against,9,NA,NA,NA,NA,NA,NA,NA,ACCEPT,NA,NA,batch9hes,batch9hes,50,14,1,Screen 1,continueButton,response_rating_scale_likert_active,4555,NA,NA,Strongly Disagree,1,0,1,0,NA,NA,NA,NA,1,statements,"Not to wear a mask, live life like before",1,17/05/2021 12:59,17/05/2021 13:08,529,Most weeks,Most weeks,18,Female,-99,A levels,88,2,Against,For
17,1658860512200,26/07/2022 18:35:12,1658860511845,1,26/07/2022 19:35:11,93981,5,task-xidh,NA,23318270,6842954,NA,complete,NA,62e032e819436e3e5a5ee8b3,computer,Desktop or Laptop,Windows 10,Firefox 102.0,1920x1080,1920x955,NA,ITT Ratings,3,against,9,NA,NA,NA,NA,NA,NA,NA,ACCEPT,NA,NA,batch9hes,batch9hes,56,15,1,Screen 1,continueButton,response_rating_scale_likert_active,18572,NA,NA,Strongly Disagree,1,0,1,0,NA,NA,NA,NA,1,statements,I do not want to get covid19,1,17/05/2021 12:55,17/05/2021 13:08,764,Most months,Most weeks,40,Female,-99,A levels,89,2,Against,For
18,1658860529374,26/07/2022 18:35:29,1658860529012,1,26/07/2022 19:35:29,93981,5,task-xidh,NA,23318270,6842954,NA,complete,NA,62e032e819436e3e5a5ee8b3,computer,Desktop or Laptop,Windows 10,Firefox 102.0,1920x1080,1920x955,NA,ITT Ratings,3,against,9,NA,NA,NA,NA,NA,NA,NA,ACCEPT,NA,NA,batch9hes,batch9hes,44,16,1,Screen 1,continueButton,response_rating_scale_likert_active,17157,NA,NA,Strongly Disagree,1,0,1,0,NA,NA,NA,NA,1,statements,"They said that they are safe and effective, so they must be, why would they lie?",1,17/05/2021 13:02,17/05/2021 13:07,303,Rarely,Most weeks,47,Female,-99,"Postgraduate degree (MSc, MA, MPhil)",87,2,Against,For
19,1658860538782,26/07/2022 18:35:38,1658860538421,1,26/07/2022 19:35:38,93981,5,task-xidh,NA,23318270,6842954,NA,complete,NA,62e032e819436e3e5a5ee8b3,computer,Desktop or Laptop,Windows 10,Firefox 102.0,1920x1080,1920x955,NA,ITT Ratings,3,against,9,NA,NA,NA,NA,NA,NA,NA,ACCEPT,NA,NA,batch9hes,batch9hes,3,17,1,Screen 1,continueButton,response_rating_scale_likert_active,9397,NA,NA,Somewhat Disagree,1,0,1,0,NA,NA,NA,NA,1,statements,We would like to check you are reading each argument carefully. Please select 'Somewhat Disagree' for this answer,1,NA,NA,NA,NA,NA,NA,NA,NA,NA,NA,check2,NA,NA
20,1658860549480,26/07/2022 18:35:49,1658860549124,1,26/07/2022 19:35:49,93981,5,task-xidh,NA,23318270,6842954,NA,complete,NA,62e032e819436e3e5a5ee8b3,computer,Desktop or Laptop,Windows 10,Firefox 102.0,1920x1080,1920x955,NA,ITT Ratings,3,against,9,NA,NA,NA,NA,NA,NA,NA,ACCEPT,NA,NA,batch9hes,batch9hes,25,18,1,Screen 1,continueButton,response_rating_scale_likert_active,10692,NA,NA,Strongly Disagree,1,0,1,0,NA,NA,NA,NA,1,statements,Want to safe for myself,1,17/05/2021 12:56,17/05/2021 13:02,334,Rarely,Rarely,29,Female,-99,Vocational Training / Apprenticeship,84,1,Against,For
21,1658860552890,26/07/2022 18:35:52,1658860552077,1,26/07/2022 19:35:52,93981,5,task-xidh,NA,23318270,6842954,NA,complete,NA,62e032e819436e3e5a5ee8b3,computer,Desktop or Laptop,Windows 10,Firefox 102.0,1920x1080,1920x955,NA,ITT Ratings,3,against,9,NA,NA,NA,NA,NA,NA,NA,ACCEPT,NA,NA,batch9hes,batch9hes,48,19,1,Screen 1,continueButton,response_rating_scale_likert_active,2940,NA,NA,Strongly Agree,1,0,1,0,NA,NA,NA,NA,1,statements,It's a way of controlling people,1,17/05/2021 12:59,17/05/2021 13:08,529,Most weeks,Most weeks,18,Female,-99,A levels,88,3,Against,Against
22,1658860560685,26/07/2022 18:36:00,1658860560325,1,26/07/2022 19:36:00,93981,5,task-xidh,NA,23318270,6842954,NA,complete,NA,62e032e819436e3e5a5ee8b3,computer,Desktop or Laptop,Windows 10,Firefox 102.0,1920x1080,1920x955,NA,ITT Ratings,3,against,9,NA,NA,NA,NA,NA,NA,NA,ACCEPT,NA,NA,batch9hes,batch9hes,61,20,1,Screen 1,continueButton,response_rating_scale_likert_active,8238,NA,NA,Strongly Disagree,1,0,1,0,NA,NA,NA,NA,1,statements,The vaccine has gone through 3 trials where it was tested on thousands of people before coming into the market,1,17/05/2021 12:51,17/05/2021 13:08,1010,Rarely,Rarely,31,Female,-99,"Postgraduate degree (MSc, MA, MPhil)",90,1,Against,For
23,1658860573170,26/07/2022 18:36:13,1658860572813,1,26/07/2022 19:36:12,93981,5,task-xidh,NA,23318270,6842954,NA,complete,NA,62e032e819436e3e5a5ee8b3,computer,Desktop or Laptop,Windows 10,Firefox 102.0,1920x1080,1920x955,NA,ITT Ratings,3,against,9,NA,NA,NA,NA,NA,NA,NA,ACCEPT,NA,NA,batch9hes,batch9hes,17,21,1,Screen 1,continueButton,response_rating_scale_likert_active,12478,NA,NA,Agree,1,0,1,0,NA,NA,NA,NA,1,statements,What if something happens to you,1,17/05/2021 12:50,17/05/2021 13:00,608,Rarely,Rarely,32,Male,-99,GCSEs,83,2,Against,Against
24,1658860576074,26/07/2022 18:36:16,1658860575709,1,26/07/2022 19:36:15,93981,5,task-xidh,NA,23318270,6842954,NA,complete,NA,62e032e819436e3e5a5ee8b3,computer,Desktop or Laptop,Windows 10,Firefox 102.0,1920x1080,1920x955,NA,ITT Ratings,3,against,9,NA,NA,NA,NA,NA,NA,NA,ACCEPT,NA,NA,batch9hes,batch9hes,58,22,1,Screen 1,continueButton,response_rating_scale_likert_active,2884,NA,NA,Strongly Agree,1,0,1,0,NA,NA,NA,NA,1,statements,The vaccine was formed to quickly,1,17/05/2021 12:51,17/05/2021 13:08,1010,Rarely,Rarely,31,Female,-99,"Postgraduate degree (MSc, MA, MPhil)",90,1,Against,Against
25,1658860579910,26/07/2022 18:36:19,1658860579548,1,26/07/2022 19:36:19,93981,5,task-xidh,NA,23318270,6842954,NA,complete,NA,62e032e819436e3e5a5ee8b3,computer,Desktop or Laptop,Windows 10,Firefox 102.0,1920x1080,1920x955,NA,ITT Ratings,3,against,9,NA,NA,NA,NA,NA,NA,NA,ACCEPT,NA,NA,batch9hes,batch9hes,37,23,1,Screen 1,continueButton,response_rating_scale_likert_active,3829,NA,NA,Strongly Disagree,1,0,1,0,NA,NA,NA,NA,1,statements,"I want to feel immune and get back to my normal, everyday life ASAP.",1,17/05/2021 12:51,17/05/2021 13:05,836,Rarely,A few times a year,33,Female,-99,"Undergraduate degree (BSc, BA)",86,1,Against,For
26,1658860585013,26/07/2022 18:36:25,1658860584653,1,26/07/2022 19:36:24,93981,5,task-xidh,NA,23318270,6842954,NA,complete,NA,62e032e819436e3e5a5ee8b3,computer,Desktop or Laptop,Windows 10,Firefox 102.0,1920x1080,1920x955,NA,ITT Ratings,3,against,9,NA,NA,NA,NA,NA,NA,NA,ACCEPT,NA,NA,batch9hes,batch9hes,21,24,1,Screen 1,continueButton,response_rating_scale_likert_active,5095,NA,NA,Disagree,1,0,1,0,NA,NA,NA,NA,1,statements,To be safe from any infections,1,17/05/2021 12:50,17/05/2021 13:00,608,Rarely,Rarely,32,Male,-99,GCSEs,83,3,Against,For
27,1658860588218,26/07/2022 18:36:28,1658860587868,1,26/07/2022 19:36:27,93981,5,task-xidh,NA,23318270,6842954,NA,complete,NA,62e032e819436e3e5a5ee8b3,computer,Desktop or Laptop,Windows 10,Firefox 102.0,1920x1080,1920x955,NA,ITT Ratings,3,against,9,NA,NA,NA,NA,NA,NA,NA,ACCEPT,NA,NA,batch9hes,batch9hes,49,25,1,Screen 1,continueButton,response_rating_scale_likert_active,3204,NA,NA,Strongly Disagree,1,0,1,0,NA,NA,NA,NA,1,statements,To be able to do things,1,17/05/2021 12:59,17/05/2021 13:08,529,Most weeks,Most weeks,18,Female,-99,A levels,88,1,Against,For
28,1658860630188,26/07/2022 18:37:10,1658860629828,1,26/07/2022 19:37:09,93981,5,task-xidh,NA,23318270,6842954,NA,complete,NA,62e032e819436e3e5a5ee8b3,computer,Desktop or Laptop,Windows 10,Firefox 102.0,1920x1080,1920x955,NA,ITT Ratings,3,against,9,NA,NA,NA,NA,NA,NA,NA,ACCEPT,NA,NA,batch9hes,batch9hes,27,26,1,Screen 1,continueButton,response_rating_scale_likert_active,41951,NA,NA,Strongly Disagree,1,0,1,0,NA,NA,NA,NA,1,statements,Want to travel abroad,1,17/05/2021 12:56,17/05/2021 13:02,334,Rarely,Rarely,29,Female,-99,Vocational Training / Apprenticeship,84,3,Against,For
29,1658860648091,26/07/2022 18:37:28,1658860647732,1,26/07/2022 19:37:27,93981,5,task-xidh,NA,23318270,6842954,NA,complete,NA,62e032e819436e3e5a5ee8b3,computer,Desktop or Laptop,Windows 10,Firefox 102.0,1920x1080,1920x955,NA,ITT Ratings,3,against,9,NA,NA,NA,NA,NA,NA,NA,ACCEPT,NA,NA,batch9hes,batch9hes,29,27,1,Screen 1,continueButton,response_rating_scale_likert_active,17893,NA,NA,Strongly Agree,1,0,1,0,NA,NA,NA,NA,1,statements,trial period ongoing until 2023,1,17/05/2021 12:56,17/05/2021 13:03,426,Most weeks,Most weeks,37,Female,-99,"Undergraduate degree (BSc, BA)",85,2,Against,Against
30,1658860659935,26/07/2022 18:37:39,1658860659572,1,26/07/2022 19:37:39,93981,5,task-xidh,NA,23318270,6842954,NA,complete,NA,62e032e819436e3e5a5ee8b3,computer,Desktop or Laptop,Windows 10,Firefox 102.0,1920x1080,1920x955,NA,ITT Ratings,3,against,9,NA,NA,NA,NA,NA,NA,NA,ACCEPT,NA,NA,batch9hes,batch9hes,41,28,1,Screen 1,continueButton,response_rating_scale_likert_active,11830,NA,NA,Strongly Agree,1,0,1,0,NA,NA,NA,NA,1,statements,They are approved under emergency use authorisation only and are not approved,1,17/05/2021 13:02,17/05/2021 13:07,303,Rarely,Most weeks,47,Female,-99,"Postgraduate degree (MSc, MA, MPhil)",87,2,Against,Against
31,1658860662588,26/07/2022 18:37:42,1658860662237,1,26/07/2022 19:37:42,93981,5,task-xidh,NA,23318270,6842954,NA,complete,NA,62e032e819436e3e5a5ee8b3,computer,Desktop or Laptop,Windows 10,Firefox 102.0,1920x1080,1920x955,NA,ITT Ratings,3,against,9,NA,NA,NA,NA,NA,NA,NA,ACCEPT,NA,NA,batch9hes,batch9hes,20,29,1,Screen 1,continueButton,response_rating_scale_likert_active,2654,NA,NA,Strongly Disagree,1,0,1,0,NA,NA,NA,NA,1,statements,To be able to travel abroad,1,17/05/2021 12:50,17/05/2021 13:00,608,Rarely,Rarely,32,Male,-99,GCSEs,83,2,Against,For
32,1658860670366,26/07/2022 18:37:50,1658860668837,1,26/07/2022 19:37:48,93981,5,task-xidh,NA,23318270,6842954,NA,complete,NA,62e032e819436e3e5a5ee8b3,computer,Desktop or Laptop,Windows 10,Firefox 102.0,1920x1080,1920x955,NA,ITT Ratings,3,against,9,NA,NA,NA,NA,NA,NA,NA,ACCEPT,NA,NA,batch9hes,batch9hes,11,30,1,Screen 1,continueButton,response_rating_scale_likert_active,6592,NA,NA,Strongly Agree,1,0,1,0,NA,NA,NA,NA,1,statements,I don't like having vaccinations,1,17/05/2021 12:51,17/05/2021 12:58,428,Most weeks,Most months,20,Female,-99,A levels,82,2,Against,Against
33,1658860671854,26/07/2022 18:37:51,1658860671492,1,26/07/2022 19:37:51,93981,5,task-xidh,NA,23318270,6842954,NA,complete,NA,62e032e819436e3e5a5ee8b3,computer,Desktop or Laptop,Windows 10,Firefox 102.0,1920x1080,1920x955,NA,ITT Ratings,3,against,9,NA,NA,NA,NA,NA,NA,NA,ACCEPT,NA,NA,batch9hes,batch9hes,40,31,1,Screen 1,continueButton,response_rating_scale_likert_active,2647,NA,NA,Strongly Agree,1,0,1,0,NA,NA,NA,NA,1,statements,There is no need for it,1,17/05/2021 13:02,17/05/2021 13:07,303,Rarely,Most weeks,47,Female,-99,"Postgraduate degree (MSc, MA, MPhil)",87,1,Against,Against
34,1658860674686,26/07/2022 18:37:54,1658860674333,1,26/07/2022 19:37:54,93981,5,task-xidh,NA,23318270,6842954,NA,complete,NA,62e032e819436e3e5a5ee8b3,computer,Desktop or Laptop,Windows 10,Firefox 102.0,1920x1080,1920x955,NA,ITT Ratings,3,against,9,NA,NA,NA,NA,NA,NA,NA,ACCEPT,NA,NA,batch9hes,batch9hes,33,32,1,Screen 1,continueButton,response_rating_scale_likert_active,2832,NA,NA,Strongly Disagree,1,0,1,0,NA,NA,NA,NA,1,statements,government told me to,1,17/05/2021 12:56,17/05/2021 13:03,426,Most weeks,Most weeks,37,Female,-99,"Undergraduate degree (BSc, BA)",85,3,Against,For
35,1658860677173,26/07/2022 18:37:57,1658860676813,1,26/07/2022 19:37:56,93981,5,task-xidh,NA,23318270,6842954,NA,complete,NA,62e032e819436e3e5a5ee8b3,computer,Desktop or Laptop,Windows 10,Firefox 102.0,1920x1080,1920x955,NA,ITT Ratings,3,against,9,NA,NA,NA,NA,NA,NA,NA,ACCEPT,NA,NA,batch9hes,batch9hes,23,33,1,Screen 1,continueButton,response_rating_scale_likert_active,2470,NA,NA,Strongly Agree,1,0,1,0,NA,NA,NA,NA,1,statements,Rushed vaccine and pushed on people to have it,1,17/05/2021 12:56,17/05/2021 13:02,334,Rarely,Rarely,29,Female,-99,Vocational Training / Apprenticeship,84,2,Against,Against
36,1658860679868,26/07/2022 18:37:59,1658860679516,1,26/07/2022 19:37:59,93981,5,task-xidh,NA,23318270,6842954,NA,complete,NA,62e032e819436e3e5a5ee8b3,computer,Desktop or Laptop,Windows 10,Firefox 102.0,1920x1080,1920x955,NA,ITT Ratings,3,against,9,NA,NA,NA,NA,NA,NA,NA,ACCEPT,NA,NA,batch9hes,batch9hes,9,34,1,Screen 1,continueButton,response_rating_scale_likert_active,2694,NA,NA,Strongly Disagree,1,0,1,0,NA,NA,NA,NA,1,statements,It is the only way to open up society,1,17/05/2021 12:50,17/05/2021 12:55,305,Never,Never,32,Female,-99,"Postgraduate degree (MSc, MA, MPhil)",81,3,Against,For
37,1658860684016,26/07/2022 18:38:04,1658860683669,1,26/07/2022 19:38:03,93981,5,task-xidh,NA,23318270,6842954,NA,complete,NA,62e032e819436e3e5a5ee8b3,computer,Desktop or Laptop,Windows 10,Firefox 102.0,1920x1080,1920x955,NA,ITT Ratings,3,against,9,NA,NA,NA,NA,NA,NA,NA,ACCEPT,NA,NA,batch9hes,batch9hes,38,35,1,Screen 1,continueButton,response_rating_scale_likert_active,4144,NA,NA,Strongly Disagree,1,0,1,0,NA,NA,NA,NA,1,statements,"I believe it's selfish to not take it, so comply.",1,17/05/2021 12:51,17/05/2021 13:05,836,Rarely,A few times a year,33,Female,-99,"Undergraduate degree (BSc, BA)",86,2,Against,For
38,1658860686131,26/07/2022 18:38:06,1658860685773,1,26/07/2022 19:38:05,93981,5,task-xidh,NA,23318270,6842954,NA,complete,NA,62e032e819436e3e5a5ee8b3,computer,Desktop or Laptop,Windows 10,Firefox 102.0,1920x1080,1920x955,NA,ITT Ratings,3,against,9,NA,NA,NA,NA,NA,NA,NA,ACCEPT,NA,NA,batch9hes,batch9hes,7,36,1,Screen 1,continueButton,response_rating_scale_likert_active,2096,NA,NA,Strongly Disagree,1,0,1,0,NA,NA,NA,NA,1,statements,It will mean shops can open,1,17/05/2021 12:50,17/05/2021 12:55,305,Never,Never,32,Female,-99,"Postgraduate degree (MSc, MA, MPhil)",81,1,Against,For
39,1658860689565,26/07/2022 18:38:09,1658860689213,1,26/07/2022 19:38:09,93981,5,task-xidh,NA,23318270,6842954,NA,complete,NA,62e032e819436e3e5a5ee8b3,computer,Desktop or Laptop,Windows 10,Firefox 102.0,1920x1080,1920x955,NA,ITT Ratings,3,against,9,NA,NA,NA,NA,NA,NA,NA,ACCEPT,NA,NA,batch9hes,batch9hes,22,37,1,Screen 1,continueButton,response_rating_scale_likert_active,3429,NA,NA,Strongly Agree,1,0,1,0,NA,NA,NA,NA,1,statements,Not enough trials on different people and ages,1,17/05/2021 12:56,17/05/2021 13:02,334,Rarely,Rarely,29,Female,-99,Vocational Training / Apprenticeship,84,1,Against,Against
40,1658860694075,26/07/2022 18:38:14,1658860693645,1,26/07/2022 19:38:13,93981,5,task-xidh,NA,23318270,6842954,NA,complete,NA,62e032e819436e3e5a5ee8b3,computer,Desktop or Laptop,Windows 10,Firefox 102.0,1920x1080,1920x955,NA,ITT Ratings,3,against,9,NA,NA,NA,NA,NA,NA,NA,ACCEPT,NA,NA,batch9hes,batch9hes,43,38,1,Screen 1,continueButton,response_rating_scale_likert_active,4422,NA,NA,Strongly Disagree,1,0,1,0,NA,NA,NA,NA,1,statements,I believe everything the government and MSM tells me without question,1,17/05/2021 13:02,17/05/2021 13:07,303,Rarely,Most weeks,47,Female,-99,"Postgraduate degree (MSc, MA, MPhil)",87,1,Against,For
41,1658860701732,26/07/2022 18:38:21,1658860700572,1,26/07/2022 19:38:20,93981,5,task-xidh,NA,23318270,6842954,NA,complete,NA,62e032e819436e3e5a5ee8b3,computer,Desktop or Laptop,Windows 10,Firefox 102.0,1920x1080,1920x955,NA,ITT Ratings,3,against,9,NA,NA,NA,NA,NA,NA,NA,ACCEPT,NA,NA,batch9hes,batch9hes,45,39,1,Screen 1,continueButton,response_rating_scale_likert_active,6917,NA,NA,Strongly Disagree,1,0,1,0,NA,NA,NA,NA,1,statements,Doctors won't administer something that would cause harm,1,17/05/2021 13:02,17/05/2021 13:07,303,Rarely,Most weeks,47,Female,-99,"Postgraduate degree (MSc, MA, MPhil)",87,3,Against,For
42,1658860707945,26/07/2022 18:38:27,1658860706653,1,26/07/2022 19:38:26,93981,5,task-xidh,NA,23318270,6842954,NA,complete,NA,62e032e819436e3e5a5ee8b3,computer,Desktop or Laptop,Windows 10,Firefox 102.0,1920x1080,1920x955,NA,ITT Ratings,3,against,9,NA,NA,NA,NA,NA,NA,NA,ACCEPT,NA,NA,batch9hes,batch9hes,52,40,1,Screen 1,continueButton,response_rating_scale_likert_active,6071,NA,NA,Strongly Agree,1,0,1,0,NA,NA,NA,NA,1,statements,I do not believe in Covid 19,1,17/05/2021 12:55,17/05/2021 13:08,764,Most months,Most weeks,40,Female,-99,A levels,89,1,Against,Against
43,1658860709353,26/07/2022 18:38:29,1658860708996,1,26/07/2022 19:38:28,93981,5,task-xidh,NA,23318270,6842954,NA,complete,NA,62e032e819436e3e5a5ee8b3,computer,Desktop or Laptop,Windows 10,Firefox 102.0,1920x1080,1920x955,NA,ITT Ratings,3,against,9,NA,NA,NA,NA,NA,NA,NA,ACCEPT,NA,NA,batch9hes,batch9hes,54,41,1,Screen 1,continueButton,response_rating_scale_likert_active,2334,NA,NA,Strongly Agree,1,0,1,0,NA,NA,NA,NA,1,statements,The vaccines will not work,1,17/05/2021 12:55,17/05/2021 13:08,764,Most months,Most weeks,40,Female,-99,A levels,89,3,Against,Against
44,1658860715711,26/07/2022 18:38:35,1658860715366,1,26/07/2022 19:38:35,93981,5,task-xidh,NA,23318270,6842954,NA,complete,NA,62e032e819436e3e5a5ee8b3,computer,Desktop or Laptop,Windows 10,Firefox 102.0,1920x1080,1920x955,NA,ITT Ratings,3,against,9,NA,NA,NA,NA,NA,NA,NA,ACCEPT,NA,NA,batch9hes,batch9hes,19,42,1,Screen 1,continueButton,response_rating_scale_likert_active,6361,NA,NA,Strongly Disagree,1,0,1,0,NA,NA,NA,NA,1,statements,To prevent from COVID-19,1,17/05/2021 12:50,17/05/2021 13:00,608,Rarely,Rarely,32,Male,-99,GCSEs,83,1,Against,For
45,1658860721199,26/07/2022 18:38:41,1658860720844,1,26/07/2022 19:38:40,93981,5,task-xidh,NA,23318270,6842954,NA,complete,NA,62e032e819436e3e5a5ee8b3,computer,Desktop or Laptop,Windows 10,Firefox 102.0,1920x1080,1920x955,NA,ITT Ratings,3,against,9,NA,NA,NA,NA,NA,NA,NA,ACCEPT,NA,NA,batch9hes,batch9hes,34,43,1,Screen 1,continueButton,response_rating_scale_likert_active,5470,NA,NA,Strongly Agree,1,0,1,0,NA,NA,NA,NA,1,statements,The vaccines are new and haven't been tested for long enough to know the long term side-effects.,1,17/05/2021 12:51,17/05/2021 13:05,836,Rarely,A few times a year,33,Female,-99,"Undergraduate degree (BSc, BA)",86,1,Against,Against
46,1658860723031,26/07/2022 18:38:43,1658860722685,1,26/07/2022 19:38:42,93981,5,task-xidh,NA,23318270,6842954,NA,complete,NA,62e032e819436e3e5a5ee8b3,computer,Desktop or Laptop,Windows 10,Firefox 102.0,1920x1080,1920x955,NA,ITT Ratings,3,against,9,NA,NA,NA,NA,NA,NA,NA,ACCEPT,NA,NA,batch9hes,batch9hes,53,44,1,Screen 1,continueButton,response_rating_scale_likert_active,1830,NA,NA,Strongly Agree,1,0,1,0,NA,NA,NA,NA,1,statements,I trust my own immune system,1,17/05/2021 12:55,17/05/2021 13:08,764,Most months,Most weeks,40,Female,-99,A levels,89,2,Against,Against
47,1658860727930,26/07/2022 18:38:47,1658860727565,1,26/07/2022 19:38:47,93981,5,task-xidh,NA,23318270,6842954,NA,complete,NA,62e032e819436e3e5a5ee8b3,computer,Desktop or Laptop,Windows 10,Firefox 102.0,1920x1080,1920x955,NA,ITT Ratings,3,against,9,NA,NA,NA,NA,NA,NA,NA,ACCEPT,NA,NA,batch9hes,batch9hes,5,45,1,Screen 1,continueButton,response_rating_scale_likert_active,4871,NA,NA,Strongly Agree,1,0,1,0,NA,NA,NA,NA,1,statements,People get blood clots from it so it's unsafe to have,1,17/05/2021 12:50,17/05/2021 12:55,305,Never,Never,32,Female,-99,"Postgraduate degree (MSc, MA, MPhil)",81,2,Against,Against
48,1658860730287,26/07/2022 18:38:50,1658860729933,1,26/07/2022 19:38:49,93981,5,task-xidh,NA,23318270,6842954,NA,complete,NA,62e032e819436e3e5a5ee8b3,computer,Desktop or Laptop,Windows 10,Firefox 102.0,1920x1080,1920x955,NA,ITT Ratings,3,against,9,NA,NA,NA,NA,NA,NA,NA,ACCEPT,NA,NA,batch9hes,batch9hes,6,46,1,Screen 1,continueButton,response_rating_scale_likert_active,2357,NA,NA,Strongly Agree,1,0,1,0,NA,NA,NA,NA,1,statements,There wasn't enough time to develop it,1,17/05/2021 12:50,17/05/2021 12:55,305,Never,Never,32,Female,-99,"Postgraduate degree (MSc, MA, MPhil)",81,3,Against,Against
49,1658860734866,26/07/2022 18:38:54,1658860734525,1,26/07/2022 19:38:54,93981,5,task-xidh,NA,23318270,6842954,NA,complete,NA,62e032e819436e3e5a5ee8b3,computer,Desktop or Laptop,Windows 10,Firefox 102.0,1920x1080,1920x955,NA,ITT Ratings,3,against,9,NA,NA,NA,NA,NA,NA,NA,ACCEPT,NA,NA,batch9hes,batch9hes,36,47,1,Screen 1,continueButton,response_rating_scale_likert_active,4582,NA,NA,Strongly Agree,1,0,1,0,NA,NA,NA,NA,1,statements,"I do not trust the pharmaceutical companies producing the vaccines, nor the government, who are pushing them.",1,17/05/2021 12:51,17/05/2021 13:05,836,Rarely,A few times a year,33,Female,-99,"Undergraduate degree (BSc, BA)",86,3,Against,Against
50,1658860739086,26/07/2022 18:38:59,1658860738460,1,26/07/2022 19:38:58,93981,5,task-xidh,NA,23318270,6842954,NA,complete,NA,62e032e819436e3e5a5ee8b3,computer,Desktop or Laptop,Windows 10,Firefox 102.0,1920x1080,1920x955,NA,ITT Ratings,3,against,9,NA,NA,NA,NA,NA,NA,NA,ACCEPT,NA,NA,batch9hes,batch9hes,46,48,1,Screen 1,continueButton,response_rating_scale_likert_active,3928,NA,NA,Strongly Agree,1,0,1,0,NA,NA,NA,NA,1,statements,The side effect of people around the world have been horrific,1,17/05/2021 12:59,17/05/2021 13:08,529,Most weeks,Most weeks,18,Female,-99,A levels,88,1,Against,Against
51,1658860742134,26/07/2022 18:39:02,1658860741788,1,26/07/2022 19:39:01,93981,5,task-xidh,NA,23318270,6842954,NA,complete,NA,62e032e819436e3e5a5ee8b3,computer,Desktop or Laptop,Windows 10,Firefox 102.0,1920x1080,1920x955,NA,ITT Ratings,3,against,9,NA,NA,NA,NA,NA,NA,NA,ACCEPT,NA,NA,batch9hes,batch9hes,18,49,1,Screen 1,continueButton,response_rating_scale_likert_active,3320,NA,NA,Strongly Agree,1,0,1,0,NA,NA,NA,NA,1,statements,I don't like taking vaccines,1,17/05/2021 12:50,17/05/2021 13:00,608,Rarely,Rarely,32,Male,-99,GCSEs,83,3,Against,Against
52,1658860745934,26/07/2022 18:39:05,1658860745588,1,26/07/2022 19:39:05,93981,5,task-xidh,NA,23318270,6842954,NA,complete,NA,62e032e819436e3e5a5ee8b3,computer,Desktop or Laptop,Windows 10,Firefox 102.0,1920x1080,1920x955,NA,ITT Ratings,3,against,9,NA,NA,NA,NA,NA,NA,NA,ACCEPT,NA,NA,batch9hes,batch9hes,12,50,1,Screen 1,continueButton,response_rating_scale_likert_active,3792,NA,NA,Strongly Disagree,1,0,1,0,NA,NA,NA,NA,1,statements,Fear of COVID and the whole ordeal,1,17/05/2021 12:51,17/05/2021 12:58,428,Most weeks,Most months,20,Female,-99,A levels,82,3,Against,Against
53,1658860749698,26/07/2022 18:39:09,1658860749356,1,26/07/2022 19:39:09,93981,5,task-xidh,NA,23318270,6842954,NA,complete,NA,62e032e819436e3e5a5ee8b3,computer,Desktop or Laptop,Windows 10,Firefox 102.0,1920x1080,1920x955,NA,ITT Ratings,3,against,9,NA,NA,NA,NA,NA,NA,NA,ACCEPT,NA,NA,batch9hes,batch9hes,10,51,1,Screen 1,continueButton,response_rating_scale_likert_active,3760,NA,NA,Strongly Agree,1,0,1,0,NA,NA,NA,NA,1,statements,I don't trust the vaccination and the intentions,1,17/05/2021 12:51,17/05/2021 12:58,428,Most weeks,Most months,20,Female,-99,A levels,82,1,Against,Against
54,1658860757980,26/07/2022 18:39:17,1658860757262,1,26/07/2022 19:39:17,93981,5,task-xidh,NA,23318270,6842954,NA,complete,NA,62e032e819436e3e5a5ee8b3,computer,Desktop or Laptop,Windows 10,Firefox 102.0,1920x1080,1920x955,NA,ITT Ratings,3,against,9,NA,NA,NA,NA,NA,NA,NA,ACCEPT,NA,NA,batch9hes,batch9hes,28,52,1,Screen 1,continueButton,response_rating_scale_likert_active,7897,NA,NA,Strongly Agree,1,0,1,0,NA,NA,NA,NA,1,statements,there have been more deaths from adverse reactions to vaccines from this vaccine than any others within the last 20 years,1,17/05/2021 12:56,17/05/2021 13:03,426,Most weeks,Most weeks,37,Female,-99,"Undergraduate degree (BSc, BA)",85,1,Against,Against
55,1658860761523,26/07/2022 18:39:21,1658860761173,1,26/07/2022 19:39:21,93981,5,task-xidh,NA,23318270,6842954,NA,complete,NA,62e032e819436e3e5a5ee8b3,computer,Desktop or Laptop,Windows 10,Firefox 102.0,1920x1080,1920x955,NA,ITT Ratings,3,against,9,NA,NA,NA,NA,NA,NA,NA,ACCEPT,NA,NA,batch9hes,batch9hes,4,53,1,Screen 1,continueButton,response_rating_scale_likert_active,3900,NA,NA,Strongly Agree,1,0,1,0,NA,NA,NA,NA,1,statements,It is not safe to take as there have been adverse effects,1,17/05/2021 12:50,17/05/2021 12:55,305,Never,Never,32,Female,-99,"Postgraduate degree (MSc, MA, MPhil)",81,1,Against,Against
56,1658860775305,26/07/2022 18:39:35,1658860774949,1,26/07/2022 19:39:34,93981,5,task-xidh,NA,23318270,6842954,NA,complete,NA,62e032e819436e3e5a5ee8b3,computer,Desktop or Laptop,Windows 10,Firefox 102.0,1920x1080,1920x955,NA,ITT Ratings,3,against,9,NA,NA,NA,NA,NA,NA,NA,ACCEPT,NA,NA,batch9hes,batch9hes,51,54,1,Screen 1,continueButton,response_rating_scale_likert_active,13768,NA,NA,Neither Agree nor Disagree,1,0,1,0,NA,NA,NA,NA,1,statements,Immune to the vaccine,1,17/05/2021 12:59,17/05/2021 13:08,529,Most weeks,Most weeks,18,Female,-99,A levels,88,3,Against,For
57,1658860782854,26/07/2022 18:39:42,1658860781388,1,26/07/2022 19:39:41,93981,5,task-xidh,NA,23318270,6842954,NA,complete,NA,62e032e819436e3e5a5ee8b3,computer,Desktop or Laptop,Windows 10,Firefox 102.0,1920x1080,1920x955,NA,ITT Ratings,3,against,9,NA,NA,NA,NA,NA,NA,NA,ACCEPT,NA,NA,batch9hes,batch9hes,2,55,1,Screen 1,continueButton,response_rating_scale_likert_active,6429,NA,NA,Somewhat Agree,1,0,1,0,NA,NA,NA,NA,1,statements,We would like to check you are reading each argument carefully. Please select 'Somewhat Agree' for this answer,1,NA,NA,NA,NA,NA,NA,NA,NA,NA,NA,check1,NA,NA
58,1658860789714,26/07/2022 18:39:49,1658860789365,1,26/07/2022 19:39:49,93981,5,task-xidh,NA,23318270,6842954,NA,complete,NA,62e032e819436e3e5a5ee8b3,computer,Desktop or Laptop,Windows 10,Firefox 102.0,1920x1080,1920x955,NA,ITT Ratings,3,against,9,NA,NA,NA,NA,NA,NA,NA,ACCEPT,NA,NA,batch9hes,batch9hes,15,56,1,Screen 1,continueButton,response_rating_scale_likert_active,7967,NA,NA,Strongly Disagree,1,0,1,0,NA,NA,NA,NA,1,statements,I want everything to go back to normal,1,17/05/2021 12:51,17/05/2021 12:58,428,Most weeks,Most months,20,Female,-99,A levels,82,3,Against,For
59,1658860795364,26/07/2022 18:39:55,1658860794685,1,26/07/2022 19:39:54,93981,5,task-xidh,NA,23318270,6842954,NA,complete,NA,62e032e819436e3e5a5ee8b3,computer,Desktop or Laptop,Windows 10,Firefox 102.0,1920x1080,1920x955,NA,ITT Ratings,3,against,9,NA,NA,NA,NA,NA,NA,NA,ACCEPT,NA,NA,batch9hes,batch9hes,62,57,1,Screen 1,continueButton,response_rating_scale_likert_active,5312,NA,NA,Strongly Disagree,1,0,1,0,NA,NA,NA,NA,1,statements,"The vaccine only gives you minor side effects such as fatigue, fever",1,17/05/2021 12:51,17/05/2021 13:08,1010,Rarely,Rarely,31,Female,-99,"Postgraduate degree (MSc, MA, MPhil)",90,2,Against,For
60,1658860798118,26/07/2022 18:39:58,1658860797772,1,26/07/2022 19:39:57,93981,5,task-xidh,NA,23318270,6842954,NA,complete,NA,62e032e819436e3e5a5ee8b3,computer,Desktop or Laptop,Windows 10,Firefox 102.0,1920x1080,1920x955,NA,ITT Ratings,3,against,9,NA,NA,NA,NA,NA,NA,NA,ACCEPT,NA,NA,batch9hes,batch9hes,8,58,1,Screen 1,continueButton,response_rating_scale_likert_active,3077,NA,NA,Strongly Disagree,1,0,1,0,NA,NA,NA,NA,1,statements,It will mean that we can stop wearing masks,1,17/05/2021 12:50,17/05/2021 12:55,305,Never,Never,32,Female,-99,"Postgraduate degree (MSc, MA, MPhil)",81,2,Against,For
61,1658860801754,26/07/2022 18:40:01,1658860800613,1,26/07/2022 19:40:00,93981,5,task-xidh,NA,23318270,6842954,NA,complete,NA,62e032e819436e3e5a5ee8b3,computer,Desktop or Laptop,Windows 10,Firefox 102.0,1920x1080,1920x955,NA,ITT Ratings,3,against,9,NA,NA,NA,NA,NA,NA,NA,ACCEPT,NA,NA,batch9hes,batch9hes,57,59,1,Screen 1,continueButton,response_rating_scale_likert_active,2830,NA,NA,Strongly Disagree,1,0,1,0,NA,NA,NA,NA,1,statements,It's reccomended that we take the vaccine.,1,17/05/2021 12:55,17/05/2021 13:08,764,Most months,Most weeks,40,Female,-99,A levels,89,3,Against,For
62,1658860804930,26/07/2022 18:40:04,1658860804573,1,26/07/2022 19:40:04,93981,5,task-xidh,NA,23318270,6842954,NA,complete,NA,62e032e819436e3e5a5ee8b3,computer,Desktop or Laptop,Windows 10,Firefox 102.0,1920x1080,1920x955,NA,ITT Ratings,3,against,9,NA,NA,NA,NA,NA,NA,NA,ACCEPT,NA,NA,batch9hes,batch9hes,60,60,1,Screen 1,continueButton,response_rating_scale_likert_active,3949,NA,NA,Strongly Agree,1,0,1,0,NA,NA,NA,NA,1,statements,There is no evidence to show how effective it is,1,17/05/2021 12:51,17/05/2021 13:08,1010,Rarely,Rarely,31,Female,-99,"Postgraduate degree (MSc, MA, MPhil)",90,3,Against,Against
63,1658860809073,26/07/2022 18:40:09,1658860808725,1,26/07/2022 19:40:08,93981,5,task-xidh,NA,23318270,6842954,NA,complete,NA,62e032e819436e3e5a5ee8b3,computer,Desktop or Laptop,Windows 10,Firefox 102.0,1920x1080,1920x955,NA,ITT Ratings,3,against,9,NA,NA,NA,NA,NA,NA,NA,ACCEPT,NA,NA,batch9hes,batch9hes,13,61,1,Screen 1,continueButton,response_rating_scale_likert_active,4146,NA,NA,Neither Agree nor Disagree,1,0,1,0,NA,NA,NA,NA,1,statements,I won't catch the virus,1,17/05/2021 12:51,17/05/2021 12:58,428,Most weeks,Most months,20,Female,-99,A levels,82,1,Against,For
64,1658860820621,26/07/2022 18:40:20,1658860819196,1,26/07/2022 19:40:19,93981,5,task-xidh,NA,23318270,6842954,NA,complete,NA,62e032e819436e3e5a5ee8b3,computer,Desktop or Laptop,Windows 10,Firefox 102.0,1920x1080,1920x955,NA,ITT Ratings,3,against,9,NA,NA,NA,NA,NA,NA,NA,ACCEPT,NA,NA,batch9hes,batch9hes,26,62,1,Screen 1,continueButton,response_rating_scale_likert_active,10465,NA,NA,Strongly Disagree,1,0,1,0,NA,NA,NA,NA,1,statements,Want to be safe around other people,1,17/05/2021 12:56,17/05/2021 13:02,334,Rarely,Rarely,29,Female,-99,Vocational Training / Apprenticeship,84,2,Against,For
65,1658860820686,26/07/2022 18:40:20,1658860819206,1,26/07/2022 19:40:19,93981,5,task-xidh,NA,23318270,6842954,NA,complete,NA,62e032e819436e3e5a5ee8b3,computer,Desktop or Laptop,Windows 10,Firefox 102.0,1920x1080,1920x955,NA,ITT Ratings,3,against,9,NA,NA,NA,NA,NA,NA,NA,ACCEPT,NA,NA,batch9hes,NA,NA,END TASK,NA,NA,NA,NA,445961,NA,NA,NA,NA,0,1,0,NA,NA,NA,NA,NA,NA,NA,NA,NA,NA,NA,NA,NA,NA,NA,NA,NA,NA,NA,NA,NA
1,1658860662388,26/07/2022 18:37:42,1658860662288,1,26/07/2022 19:37:42,93981,5,task-xidh,NA,23318397,6842985,NA,complete,NA,62e033a22adeca28bd11a0c9,computer,Desktop or Laptop,Mac OS 10.15.7,Safari 15.1,1440x900,1440x720,NA,ITT Ratings,3,against,9,NA,NA,NA,NA,NA,NA,NA,ACCEPT,NA,NA,batch9hes,NA,NA,BEGIN TASK,NA,NA,NA,NA,NA,NA,NA,NA,NA,0,1,0,NA,NA,NA,NA,NA,NA,NA,NA,NA,NA,NA,NA,NA,NA,NA,NA,NA,NA,NA,NA,NA
2,1658860679443,26/07/2022 18:37:59,1658860679364,1,26/07/2022 19:37:59,93981,5,task-xidh,NA,23318397,6842985,NA,complete,NA,62e033a22adeca28bd11a0c9,computer,Desktop or Laptop,Mac OS 10.15.7,Safari 15.1,1440x900,1440x720,NA,ITT Ratings,3,against,9,NA,NA,NA,NA,NA,NA,NA,ACCEPT,NA,NA,batch9hes,batch9hes,1,1,1,Screen 1,advancementZone,continue_button,17055,NA,NA,NA,NA,0,1,0,NA,NA,NA,NA,NA,instructions,NA,NA,NA,NA,NA,NA,NA,NA,NA,NA,NA,NA,NA,NA,NA
3,1658860690208,26/07/2022 18:38:10,1658860690127,1,26/07/2022 19:38:10,93981,5,task-xidh,NA,23318397,6842985,NA,complete,NA,62e033a22adeca28bd11a0c9,computer,Desktop or Laptop,Mac OS 10.15.7,Safari 15.1,1440x900,1440x720,NA,ITT Ratings,3,against,9,NA,NA,NA,NA,NA,NA,NA,ACCEPT,NA,NA,batch9hes,batch9hes,42,1,1,Screen 1,continueButton,response_rating_scale_likert_active,10754,NA,NA,Strongly Agree,1,0,1,0,NA,NA,NA,NA,1,statements,They are still undergoing clinical trials and given the side effects and deaths from these vaccines to date these trials should have been stopped months ago,1,17/05/2021 13:02,17/05/2021 13:07,303,Rarely,Most weeks,47,Female,-99,"Postgraduate degree (MSc, MA, MPhil)",87,3,Against,Against
4,1658860695034,26/07/2022 18:38:15,1658860694960,1,26/07/2022 19:38:14,93981,5,task-xidh,NA,23318397,6842985,NA,complete,NA,62e033a22adeca28bd11a0c9,computer,Desktop or Laptop,Mac OS 10.15.7,Safari 15.1,1440x900,1440x720,NA,ITT Ratings,3,against,9,NA,NA,NA,NA,NA,NA,NA,ACCEPT,NA,NA,batch9hes,batch9hes,2,2,1,Screen 1,continueButton,response_rating_scale_likert_active,4816,NA,NA,Somewhat Agree,1,0,1,0,NA,NA,NA,NA,1,statements,We would like to check you are reading each argument carefully. Please select 'Somewhat Agree' for this answer,1,NA,NA,NA,NA,NA,NA,NA,NA,NA,NA,check1,NA,NA
5,1658860710113,26/07/2022 18:38:30,1658860710043,1,26/07/2022 19:38:30,93981,5,task-xidh,NA,23318397,6842985,NA,complete,NA,62e033a22adeca28bd11a0c9,computer,Desktop or Laptop,Mac OS 10.15.7,Safari 15.1,1440x900,1440x720,NA,ITT Ratings,3,against,9,NA,NA,NA,NA,NA,NA,NA,ACCEPT,NA,NA,batch9hes,batch9hes,50,3,1,Screen 1,continueButton,response_rating_scale_likert_active,15068,NA,NA,Strongly Agree,1,0,1,0,NA,NA,NA,NA,1,statements,"Not to wear a mask, live life like before",1,17/05/2021 12:59,17/05/2021 13:08,529,Most weeks,Most weeks,18,Female,-99,A levels,88,2,Against,For
6,1658860714100,26/07/2022 18:38:34,1658860713994,1,26/07/2022 19:38:33,93981,5,task-xidh,NA,23318397,6842985,NA,complete,NA,62e033a22adeca28bd11a0c9,computer,Desktop or Laptop,Mac OS 10.15.7,Safari 15.1,1440x900,1440x720,NA,ITT Ratings,3,against,9,NA,NA,NA,NA,NA,NA,NA,ACCEPT,NA,NA,batch9hes,batch9hes,39,4,1,Screen 1,continueButton,response_rating_scale_likert_active,3936,NA,NA,Strongly Disagree,1,0,1,0,NA,NA,NA,NA,1,statements,"Peer pressure. my friends have taken it, so I believe I should too.",1,17/05/2021 12:51,17/05/2021 13:05,836,Rarely,A few times a year,33,Female,-99,"Undergraduate degree (BSc, BA)",86,3,Against,For
7,1658860721111,26/07/2022 18:38:41,1658860721026,1,26/07/2022 19:38:41,93981,5,task-xidh,NA,23318397,6842985,NA,complete,NA,62e033a22adeca28bd11a0c9,computer,Desktop or Laptop,Mac OS 10.15.7,Safari 15.1,1440x900,1440x720,NA,ITT Ratings,3,against,9,NA,NA,NA,NA,NA,NA,NA,ACCEPT,NA,NA,batch9hes,batch9hes,41,5,1,Screen 1,continueButton,response_rating_scale_likert_active,7016.999999999993,NA,NA,Strongly Agree,1,0,1,0,NA,NA,NA,NA,1,statements,They are approved under emergency use authorisation only and are not approved,1,17/05/2021 13:02,17/05/2021 13:07,303,Rarely,Most weeks,47,Female,-99,"Postgraduate degree (MSc, MA, MPhil)",87,2,Against,Against
8,1658860724932,26/07/2022 18:38:44,1658860724860,1,26/07/2022 19:38:44,93981,5,task-xidh,NA,23318397,6842985,NA,complete,NA,62e033a22adeca28bd11a0c9,computer,Desktop or Laptop,Mac OS 10.15.7,Safari 15.1,1440x900,1440x720,NA,ITT Ratings,3,against,9,NA,NA,NA,NA,NA,NA,NA,ACCEPT,NA,NA,batch9hes,batch9hes,40,6,1,Screen 1,continueButton,response_rating_scale_likert_active,3819,NA,NA,Strongly Agree,1,0,1,0,NA,NA,NA,NA,1,statements,There is no need for it,1,17/05/2021 13:02,17/05/2021 13:07,303,Rarely,Most weeks,47,Female,-99,"Postgraduate degree (MSc, MA, MPhil)",87,1,Against,Against
9,1658860726720,26/07/2022 18:38:46,1658860726658,1,26/07/2022 19:38:46,93981,5,task-xidh,NA,23318397,6842985,NA,complete,NA,62e033a22adeca28bd11a0c9,computer,Desktop or Laptop,Mac OS 10.15.7,Safari 15.1,1440x900,1440x720,NA,ITT Ratings,3,against,9,NA,NA,NA,NA,NA,NA,NA,ACCEPT,NA,NA,batch9hes,batch9hes,60,7,1,Screen 1,continueButton,response_rating_scale_likert_active,1783,NA,NA,Strongly Agree,1,0,1,0,NA,NA,NA,NA,1,statements,There is no evidence to show how effective it is,1,17/05/2021 12:51,17/05/2021 13:08,1010,Rarely,Rarely,31,Female,-99,"Postgraduate degree (MSc, MA, MPhil)",90,3,Against,Against
10,1658860728595,26/07/2022 18:38:48,1658860728525,1,26/07/2022 19:38:48,93981,5,task-xidh,NA,23318397,6842985,NA,complete,NA,62e033a22adeca28bd11a0c9,computer,Desktop or Laptop,Mac OS 10.15.7,Safari 15.1,1440x900,1440x720,NA,ITT Ratings,3,against,9,NA,NA,NA,NA,NA,NA,NA,ACCEPT,NA,NA,batch9hes,batch9hes,14,8,1,Screen 1,continueButton,response_rating_scale_likert_active,1852,NA,NA,Strongly Agree,1,0,1,0,NA,NA,NA,NA,1,statements,I can feel relaxed about COVID,1,17/05/2021 12:51,17/05/2021 12:58,428,Most weeks,Most months,20,Female,-99,A levels,82,2,Against,For
11,1658860746193,26/07/2022 18:39:06,1658860746124,1,26/07/2022 19:39:06,93981,5,task-xidh,NA,23318397,6842985,NA,complete,NA,62e033a22adeca28bd11a0c9,computer,Desktop or Laptop,Mac OS 10.15.7,Safari 15.1,1440x900,1440x720,NA,ITT Ratings,3,against,9,NA,NA,NA,NA,NA,NA,NA,ACCEPT,NA,NA,batch9hes,batch9hes,47,9,1,Screen 1,continueButton,response_rating_scale_likert_active,17584,NA,NA,Strongly Agree,1,0,1,0,NA,NA,NA,NA,1,statements,Not enough time to ensure safety and Covid isnÈt as bad as the flu,1,17/05/2021 12:59,17/05/2021 13:08,529,Most weeks,Most weeks,18,Female,-99,A levels,88,2,Against,Against
12,1658860751850,26/07/2022 18:39:11,1658860751793,1,26/07/2022 19:39:11,93981,5,task-xidh,NA,23318397,6842985,NA,complete,NA,62e033a22adeca28bd11a0c9,computer,Desktop or Laptop,Mac OS 10.15.7,Safari 15.1,1440x900,1440x720,NA,ITT Ratings,3,against,9,NA,NA,NA,NA,NA,NA,NA,ACCEPT,NA,NA,batch9hes,batch9hes,25,10,1,Screen 1,continueButton,response_rating_scale_likert_active,5652.000000000015,NA,NA,Strongly Agree,1,0,1,0,NA,NA,NA,NA,1,statements,Want to safe for myself,1,17/05/2021 12:56,17/05/2021 13:02,334,Rarely,Rarely,29,Female,-99,Vocational Training / Apprenticeship,84,1,Against,For
13,1658860754764,26/07/2022 18:39:14,1658860754692,1,26/07/2022 19:39:14,93981,5,task-xidh,NA,23318397,6842985,NA,complete,NA,62e033a22adeca28bd11a0c9,computer,Desktop or Laptop,Mac OS 10.15.7,Safari 15.1,1440x900,1440x720,NA,ITT Ratings,3,against,9,NA,NA,NA,NA,NA,NA,NA,ACCEPT,NA,NA,batch9hes,batch9hes,22,11,1,Screen 1,continueButton,response_rating_scale_likert_active,2884.9999999999854,NA,NA,Strongly Agree,1,0,1,0,NA,NA,NA,NA,1,statements,Not enough trials on different people and ages,1,17/05/2021 12:56,17/05/2021 13:02,334,Rarely,Rarely,29,Female,-99,Vocational Training / Apprenticeship,84,1,Against,Against
14,1658860756862,26/07/2022 18:39:16,1658860756793,1,26/07/2022 19:39:16,93981,5,task-xidh,NA,23318397,6842985,NA,complete,NA,62e033a22adeca28bd11a0c9,computer,Desktop or Laptop,Mac OS 10.15.7,Safari 15.1,1440x900,1440x720,NA,ITT Ratings,3,against,9,NA,NA,NA,NA,NA,NA,NA,ACCEPT,NA,NA,batch9hes,batch9hes,10,12,1,Screen 1,continueButton,response_rating_scale_likert_active,2087.0000000000146,NA,NA,Strongly Agree,1,0,1,0,NA,NA,NA,NA,1,statements,I don't trust the vaccination and the intentions,1,17/05/2021 12:51,17/05/2021 12:58,428,Most weeks,Most months,20,Female,-99,A levels,82,1,Against,Against
15,1658860761581,26/07/2022 18:39:21,1658860761509,1,26/07/2022 19:39:21,93981,5,task-xidh,NA,23318397,6842985,NA,complete,NA,62e033a22adeca28bd11a0c9,computer,Desktop or Laptop,Mac OS 10.15.7,Safari 15.1,1440x900,1440x720,NA,ITT Ratings,3,against,9,NA,NA,NA,NA,NA,NA,NA,ACCEPT,NA,NA,batch9hes,batch9hes,37,13,1,Screen 1,continueButton,response_rating_scale_likert_active,4700.999999999985,NA,NA,Strongly Agree,1,0,1,0,NA,NA,NA,NA,1,statements,"I want to feel immune and get back to my normal, everyday life ASAP.",1,17/05/2021 12:51,17/05/2021 13:05,836,Rarely,A few times a year,33,Female,-99,"Undergraduate degree (BSc, BA)",86,1,Against,For
16,1658860763463,26/07/2022 18:39:23,1658860763391,1,26/07/2022 19:39:23,93981,5,task-xidh,NA,23318397,6842985,NA,complete,NA,62e033a22adeca28bd11a0c9,computer,Desktop or Laptop,Mac OS 10.15.7,Safari 15.1,1440x900,1440x720,NA,ITT Ratings,3,against,9,NA,NA,NA,NA,NA,NA,NA,ACCEPT,NA,NA,batch9hes,batch9hes,6,14,1,Screen 1,continueButton,response_rating_scale_likert_active,1867,NA,NA,Strongly Agree,1,0,1,0,NA,NA,NA,NA,1,statements,There wasn't enough time to develop it,1,17/05/2021 12:50,17/05/2021 12:55,305,Never,Never,32,Female,-99,"Postgraduate degree (MSc, MA, MPhil)",81,3,Against,Against
17,1658860770035,26/07/2022 18:39:30,1658860769975,1,26/07/2022 19:39:29,93981,5,task-xidh,NA,23318397,6842985,NA,complete,NA,62e033a22adeca28bd11a0c9,computer,Desktop or Laptop,Mac OS 10.15.7,Safari 15.1,1440x900,1440x720,NA,ITT Ratings,3,against,9,NA,NA,NA,NA,NA,NA,NA,ACCEPT,NA,NA,batch9hes,batch9hes,61,15,1,Screen 1,continueButton,response_rating_scale_likert_active,6570,NA,NA,Neither Agree nor Disagree,1,0,1,0,NA,NA,NA,NA,1,statements,The vaccine has gone through 3 trials where it was tested on thousands of people before coming into the market,1,17/05/2021 12:51,17/05/2021 13:08,1010,Rarely,Rarely,31,Female,-99,"Postgraduate degree (MSc, MA, MPhil)",90,1,Against,For
18,1658860786915,26/07/2022 18:39:46,1658860786842,1,26/07/2022 19:39:46,93981,5,task-xidh,NA,23318397,6842985,NA,complete,NA,62e033a22adeca28bd11a0c9,computer,Desktop or Laptop,Mac OS 10.15.7,Safari 15.1,1440x900,1440x720,NA,ITT Ratings,3,against,9,NA,NA,NA,NA,NA,NA,NA,ACCEPT,NA,NA,batch9hes,batch9hes,43,16,1,Screen 1,continueButton,response_rating_scale_likert_active,16853.000000000015,NA,NA,Strongly Disagree,1,0,1,0,NA,NA,NA,NA,1,statements,I believe everything the government and MSM tells me without question,1,17/05/2021 13:02,17/05/2021 13:07,303,Rarely,Most weeks,47,Female,-99,"Postgraduate degree (MSc, MA, MPhil)",87,1,Against,For
19,1658860789947,26/07/2022 18:39:49,1658860789891,1,26/07/2022 19:39:49,93981,5,task-xidh,NA,23318397,6842985,NA,complete,NA,62e033a22adeca28bd11a0c9,computer,Desktop or Laptop,Mac OS 10.15.7,Safari 15.1,1440x900,1440x720,NA,ITT Ratings,3,against,9,NA,NA,NA,NA,NA,NA,NA,ACCEPT,NA,NA,batch9hes,batch9hes,11,17,1,Screen 1,continueButton,response_rating_scale_likert_active,3038.9999999999854,NA,NA,Neither Agree nor Disagree,1,0,1,0,NA,NA,NA,NA,1,statements,I don't like having vaccinations,1,17/05/2021 12:51,17/05/2021 12:58,428,Most weeks,Most months,20,Female,-99,A levels,82,2,Against,Against
20,1658860793565,26/07/2022 18:39:53,1658860793460,1,26/07/2022 19:39:53,93981,5,task-xidh,NA,23318397,6842985,NA,complete,NA,62e033a22adeca28bd11a0c9,computer,Desktop or Laptop,Mac OS 10.15.7,Safari 15.1,1440x900,1440x720,NA,ITT Ratings,3,against,9,NA,NA,NA,NA,NA,NA,NA,ACCEPT,NA,NA,batch9hes,batch9hes,45,18,1,Screen 1,continueButton,response_rating_scale_likert_active,3556,NA,NA,Strongly Disagree,1,0,1,0,NA,NA,NA,NA,1,statements,Doctors won't administer something that would cause harm,1,17/05/2021 13:02,17/05/2021 13:07,303,Rarely,Most weeks,47,Female,-99,"Postgraduate degree (MSc, MA, MPhil)",87,3,Against,For
21,1658860795681,26/07/2022 18:39:55,1658860795609,1,26/07/2022 19:39:55,93981,5,task-xidh,NA,23318397,6842985,NA,complete,NA,62e033a22adeca28bd11a0c9,computer,Desktop or Laptop,Mac OS 10.15.7,Safari 15.1,1440x900,1440x720,NA,ITT Ratings,3,against,9,NA,NA,NA,NA,NA,NA,NA,ACCEPT,NA,NA,batch9hes,batch9hes,58,19,1,Screen 1,continueButton,response_rating_scale_likert_active,2136,NA,NA,Strongly Agree,1,0,1,0,NA,NA,NA,NA,1,statements,The vaccine was formed to quickly,1,17/05/2021 12:51,17/05/2021 13:08,1010,Rarely,Rarely,31,Female,-99,"Postgraduate degree (MSc, MA, MPhil)",90,1,Against,Against
22,1658860800055,26/07/2022 18:40:00,1658860799993,1,26/07/2022 19:39:59,93981,5,task-xidh,NA,23318397,6842985,NA,complete,NA,62e033a22adeca28bd11a0c9,computer,Desktop or Laptop,Mac OS 10.15.7,Safari 15.1,1440x900,1440x720,NA,ITT Ratings,3,against,9,NA,NA,NA,NA,NA,NA,NA,ACCEPT,NA,NA,batch9hes,batch9hes,19,20,1,Screen 1,continueButton,response_rating_scale_likert_active,4369,NA,NA,Neither Agree nor Disagree,1,0,1,0,NA,NA,NA,NA,1,statements,To prevent from COVID-19,1,17/05/2021 12:50,17/05/2021 13:00,608,Rarely,Rarely,32,Male,-99,GCSEs,83,1,Against,For
23,1658860809460,26/07/2022 18:40:09,1658860809394,1,26/07/2022 19:40:09,93981,5,task-xidh,NA,23318397,6842985,NA,complete,NA,62e033a22adeca28bd11a0c9,computer,Desktop or Laptop,Mac OS 10.15.7,Safari 15.1,1440x900,1440x720,NA,ITT Ratings,3,against,9,NA,NA,NA,NA,NA,NA,NA,ACCEPT,NA,NA,batch9hes,batch9hes,52,21,1,Screen 1,continueButton,response_rating_scale_likert_active,9388,NA,NA,Disagree,1,0,1,0,NA,NA,NA,NA,1,statements,I do not believe in Covid 19,1,17/05/2021 12:55,17/05/2021 13:08,764,Most months,Most weeks,40,Female,-99,A levels,89,1,Against,Against
24,1658860812230,26/07/2022 18:40:12,1658860812160,1,26/07/2022 19:40:12,93981,5,task-xidh,NA,23318397,6842985,NA,complete,NA,62e033a22adeca28bd11a0c9,computer,Desktop or Laptop,Mac OS 10.15.7,Safari 15.1,1440x900,1440x720,NA,ITT Ratings,3,against,9,NA,NA,NA,NA,NA,NA,NA,ACCEPT,NA,NA,batch9hes,batch9hes,12,22,1,Screen 1,continueButton,response_rating_scale_likert_active,2751.999999999971,NA,NA,Neither Agree nor Disagree,1,0,1,0,NA,NA,NA,NA,1,statements,Fear of COVID and the whole ordeal,1,17/05/2021 12:51,17/05/2021 12:58,428,Most weeks,Most months,20,Female,-99,A levels,82,3,Against,Against
25,1658860815769,26/07/2022 18:40:15,1658860815708,1,26/07/2022 19:40:15,93981,5,task-xidh,NA,23318397,6842985,NA,complete,NA,62e033a22adeca28bd11a0c9,computer,Desktop or Laptop,Mac OS 10.15.7,Safari 15.1,1440x900,1440x720,NA,ITT Ratings,3,against,9,NA,NA,NA,NA,NA,NA,NA,ACCEPT,NA,NA,batch9hes,batch9hes,17,23,1,Screen 1,continueButton,response_rating_scale_likert_active,3535,NA,NA,Neither Agree nor Disagree,1,0,1,0,NA,NA,NA,NA,1,statements,What if something happens to you,1,17/05/2021 12:50,17/05/2021 13:00,608,Rarely,Rarely,32,Male,-99,GCSEs,83,2,Against,Against
26,1658860818658,26/07/2022 18:40:18,1658860818596,1,26/07/2022 19:40:18,93981,5,task-xidh,NA,23318397,6842985,NA,complete,NA,62e033a22adeca28bd11a0c9,computer,Desktop or Laptop,Mac OS 10.15.7,Safari 15.1,1440x900,1440x720,NA,ITT Ratings,3,against,9,NA,NA,NA,NA,NA,NA,NA,ACCEPT,NA,NA,batch9hes,batch9hes,4,24,1,Screen 1,continueButton,response_rating_scale_likert_active,2875,NA,NA,Strongly Agree,1,0,1,0,NA,NA,NA,NA,1,statements,It is not safe to take as there have been adverse effects,1,17/05/2021 12:50,17/05/2021 12:55,305,Never,Never,32,Female,-99,"Postgraduate degree (MSc, MA, MPhil)",81,1,Against,Against
27,1658860822330,26/07/2022 18:40:22,1658860822259,1,26/07/2022 19:40:22,93981,5,task-xidh,NA,23318397,6842985,NA,complete,NA,62e033a22adeca28bd11a0c9,computer,Desktop or Laptop,Mac OS 10.15.7,Safari 15.1,1440x900,1440x720,NA,ITT Ratings,3,against,9,NA,NA,NA,NA,NA,NA,NA,ACCEPT,NA,NA,batch9hes,batch9hes,8,25,1,Screen 1,continueButton,response_rating_scale_likert_active,3649,NA,NA,Strongly Disagree,1,0,1,0,NA,NA,NA,NA,1,statements,It will mean that we can stop wearing masks,1,17/05/2021 12:50,17/05/2021 12:55,305,Never,Never,32,Female,-99,"Postgraduate degree (MSc, MA, MPhil)",81,2,Against,For
28,1658860830697,26/07/2022 18:40:30,1658860830592,1,26/07/2022 19:40:30,93981,5,task-xidh,NA,23318397,6842985,NA,complete,NA,62e033a22adeca28bd11a0c9,computer,Desktop or Laptop,Mac OS 10.15.7,Safari 15.1,1440x900,1440x720,NA,ITT Ratings,3,against,9,NA,NA,NA,NA,NA,NA,NA,ACCEPT,NA,NA,batch9hes,batch9hes,33,26,1,Screen 1,continueButton,response_rating_scale_likert_active,8318,NA,NA,Strongly Disagree,1,0,1,0,NA,NA,NA,NA,1,statements,government told me to,1,17/05/2021 12:56,17/05/2021 13:03,426,Most weeks,Most weeks,37,Female,-99,"Undergraduate degree (BSc, BA)",85,3,Against,For
29,1658860833732,26/07/2022 18:40:33,1658860833660,1,26/07/2022 19:40:33,93981,5,task-xidh,NA,23318397,6842985,NA,complete,NA,62e033a22adeca28bd11a0c9,computer,Desktop or Laptop,Mac OS 10.15.7,Safari 15.1,1440x900,1440x720,NA,ITT Ratings,3,against,9,NA,NA,NA,NA,NA,NA,NA,ACCEPT,NA,NA,batch9hes,batch9hes,34,27,1,Screen 1,continueButton,response_rating_scale_likert_active,3055,NA,NA,Strongly Agree,1,0,1,0,NA,NA,NA,NA,1,statements,The vaccines are new and haven't been tested for long enough to know the long term side-effects.,1,17/05/2021 12:51,17/05/2021 13:05,836,Rarely,A few times a year,33,Female,-99,"Undergraduate degree (BSc, BA)",86,1,Against,Against
30,1658860835922,26/07/2022 18:40:35,1658860835860,1,26/07/2022 19:40:35,93981,5,task-xidh,NA,23318397,6842985,NA,complete,NA,62e033a22adeca28bd11a0c9,computer,Desktop or Laptop,Mac OS 10.15.7,Safari 15.1,1440x900,1440x720,NA,ITT Ratings,3,against,9,NA,NA,NA,NA,NA,NA,NA,ACCEPT,NA,NA,batch9hes,batch9hes,31,28,1,Screen 1,continueButton,response_rating_scale_likert_active,2186,NA,NA,Strongly Disagree,1,0,1,0,NA,NA,NA,NA,1,statements,I am concerned I will get covid and die,1,17/05/2021 12:56,17/05/2021 13:03,426,Most weeks,Most weeks,37,Female,-99,"Undergraduate degree (BSc, BA)",85,1,Against,For
31,1658860837840,26/07/2022 18:40:37,1658860837775,1,26/07/2022 19:40:37,93981,5,task-xidh,NA,23318397,6842985,NA,complete,NA,62e033a22adeca28bd11a0c9,computer,Desktop or Laptop,Mac OS 10.15.7,Safari 15.1,1440x900,1440x720,NA,ITT Ratings,3,against,9,NA,NA,NA,NA,NA,NA,NA,ACCEPT,NA,NA,batch9hes,batch9hes,57,29,1,Screen 1,continueButton,response_rating_scale_likert_active,1902,NA,NA,Strongly Disagree,1,0,1,0,NA,NA,NA,NA,1,statements,It's reccomended that we take the vaccine.,1,17/05/2021 12:55,17/05/2021 13:08,764,Most months,Most weeks,40,Female,-99,A levels,89,3,Against,For
32,1658860840357,26/07/2022 18:40:40,1658860840295,1,26/07/2022 19:40:40,93981,5,task-xidh,NA,23318397,6842985,NA,complete,NA,62e033a22adeca28bd11a0c9,computer,Desktop or Laptop,Mac OS 10.15.7,Safari 15.1,1440x900,1440x720,NA,ITT Ratings,3,against,9,NA,NA,NA,NA,NA,NA,NA,ACCEPT,NA,NA,batch9hes,batch9hes,59,30,1,Screen 1,continueButton,response_rating_scale_likert_active,2506,NA,NA,Strongly Agree,1,0,1,0,NA,NA,NA,NA,1,statements,Some people have experienced bad side effects even death,1,17/05/2021 12:51,17/05/2021 13:08,1010,Rarely,Rarely,31,Female,-99,"Postgraduate degree (MSc, MA, MPhil)",90,2,Against,Against
33,1658860845792,26/07/2022 18:40:45,1658860845741,1,26/07/2022 19:40:45,93981,5,task-xidh,NA,23318397,6842985,NA,complete,NA,62e033a22adeca28bd11a0c9,computer,Desktop or Laptop,Mac OS 10.15.7,Safari 15.1,1440x900,1440x720,NA,ITT Ratings,3,against,9,NA,NA,NA,NA,NA,NA,NA,ACCEPT,NA,NA,batch9hes,batch9hes,26,31,1,Screen 1,continueButton,response_rating_scale_likert_active,5434,NA,NA,Neither Agree nor Disagree,1,0,1,0,NA,NA,NA,NA,1,statements,Want to be safe around other people,1,17/05/2021 12:56,17/05/2021 13:02,334,Rarely,Rarely,29,Female,-99,Vocational Training / Apprenticeship,84,2,Against,For
34,1658860860602,26/07/2022 18:41:00,1658860860527,1,26/07/2022 19:41:00,93981,5,task-xidh,NA,23318397,6842985,NA,complete,NA,62e033a22adeca28bd11a0c9,computer,Desktop or Laptop,Mac OS 10.15.7,Safari 15.1,1440x900,1440x720,NA,ITT Ratings,3,against,9,NA,NA,NA,NA,NA,NA,NA,ACCEPT,NA,NA,batch9hes,batch9hes,63,32,1,Screen 1,continueButton,response_rating_scale_likert_active,14774,NA,NA,Neither Agree nor Disagree,1,0,1,0,NA,NA,NA,NA,1,statements,The  pharmaceutical companies make no profit from this they genuinely want to help,1,17/05/2021 12:51,17/05/2021 13:08,1010,Rarely,Rarely,31,Female,-99,"Postgraduate degree (MSc, MA, MPhil)",90,3,Against,For
35,1658860864745,26/07/2022 18:41:04,1658860864675,1,26/07/2022 19:41:04,93981,5,task-xidh,NA,23318397,6842985,NA,complete,NA,62e033a22adeca28bd11a0c9,computer,Desktop or Laptop,Mac OS 10.15.7,Safari 15.1,1440x900,1440x720,NA,ITT Ratings,3,against,9,NA,NA,NA,NA,NA,NA,NA,ACCEPT,NA,NA,batch9hes,batch9hes,24,33,1,Screen 1,continueButton,response_rating_scale_likert_active,4132,NA,NA,Neither Agree nor Disagree,1,0,1,0,NA,NA,NA,NA,1,statements,Not enough proof Covid-19 was as bad as the world made out,1,17/05/2021 12:56,17/05/2021 13:02,334,Rarely,Rarely,29,Female,-99,Vocational Training / Apprenticeship,84,3,Against,Against
36,1658860866555,26/07/2022 18:41:06,1658860866476,1,26/07/2022 19:41:06,93981,5,task-xidh,NA,23318397,6842985,NA,complete,NA,62e033a22adeca28bd11a0c9,computer,Desktop or Laptop,Mac OS 10.15.7,Safari 15.1,1440x900,1440x720,NA,ITT Ratings,3,against,9,NA,NA,NA,NA,NA,NA,NA,ACCEPT,NA,NA,batch9hes,batch9hes,53,34,1,Screen 1,continueButton,response_rating_scale_likert_active,1786,NA,NA,Neither Agree nor Disagree,1,0,1,0,NA,NA,NA,NA,1,statements,I trust my own immune system,1,17/05/2021 12:55,17/05/2021 13:08,764,Most months,Most weeks,40,Female,-99,A levels,89,2,Against,Against
37,1658860869349,26/07/2022 18:41:09,1658860869292,1,26/07/2022 19:41:09,93981,5,task-xidh,NA,23318397,6842985,NA,complete,NA,62e033a22adeca28bd11a0c9,computer,Desktop or Laptop,Mac OS 10.15.7,Safari 15.1,1440x900,1440x720,NA,ITT Ratings,3,against,9,NA,NA,NA,NA,NA,NA,NA,ACCEPT,NA,NA,batch9hes,batch9hes,46,35,1,Screen 1,continueButton,response_rating_scale_likert_active,2803.000000000029,NA,NA,Strongly Agree,1,0,1,0,NA,NA,NA,NA,1,statements,The side effect of people around the world have been horrific,1,17/05/2021 12:59,17/05/2021 13:08,529,Most weeks,Most weeks,18,Female,-99,A levels,88,1,Against,Against
