Event.Index,UTC.Timestamp,UTC.Date,Local.Timestamp,Local.Timezone,Local.Date,Experiment.ID,Experiment.Version,Tree.Node.Key,Repeat.Key,Schedule.ID,Participant.Private.ID,Participant.Starting.Group,Participant.Status,Participant.Completion.Code,Participant.External.Session.ID,Participant.Device.Type,Participant.Device,Participant.OS,Participant.Browser,Participant.Monitor.Size,Participant.Viewport.Size,Checkpoint,Task.Name,Task.Version,branch.69an,randomiser.8vg2,quota.bqtt,quota.rycs,quota.wtfi,quota.usve,quota.zgic,quota.f3yz,quota.r9vy,quota.tfqq,quota.3dga,quota.dtj6,Spreadsheet,Spreadsheet.Name,Spreadsheet.Row,Trial.Number,Screen.Number,Screen.Name,Zone.Name,Zone.Type,Reaction.Time,Reaction.Onset,Response.Type,Response,Attempt,Correct,Incorrect,Dishonest,X.Coordinate,Y.Coordinate,Timed.Out,randomise_blocks,randomise_trials,display,Arguments,ShowProgressBar,StartDate,EndDate,Duration,discuss_1,read_1,age,gender,gender_4_TEXT,edu,ID,arg_ID,Position,Arg_Position
1,1658859220651,26/07/2022 18:13:40,1658859220243,1,26/07/2022 19:13:40,93981,5,task-k2dt,NA,23317869,6842833,NA,complete,NA,62e02eb90072f3948b769dbb,mobile,Apple iPhone,iOS 15.5,Mobile Safari 15.5,375x667,667x325,NA,ITT Ratings,3,against,7,NA,NA,NA,NA,NA,ACCEPT,NA,NA,NA,NA,batch7hes,NA,NA,BEGIN TASK,NA,NA,NA,NA,NA,NA,NA,NA,NA,0,1,0,NA,NA,NA,NA,NA,NA,NA,NA,NA,NA,NA,NA,NA,NA,NA,NA,NA,NA,NA,NA,NA
2,1658859221530,26/07/2022 18:13:41,1658859221219,1,26/07/2022 19:13:41,93981,5,task-k2dt,NA,23317869,6842833,NA,complete,NA,62e02eb90072f3948b769dbb,mobile,Apple iPhone,iOS 15.5,Mobile Safari 15.5,375x667,667x325,NA,ITT Ratings,3,against,7,NA,NA,NA,NA,NA,ACCEPT,NA,NA,NA,NA,batch7hes,batch7hes,1,1,1,Screen 1,advancementZone,continue_button,908,NA,NA,NA,NA,0,1,0,NA,NA,NA,NA,NA,instructions,NA,NA,NA,NA,NA,NA,NA,NA,NA,NA,NA,NA,NA,NA,NA
3,1658859239956,26/07/2022 18:13:59,1658859239631,1,26/07/2022 19:13:59,93981,5,task-k2dt,NA,23317869,6842833,NA,complete,NA,62e02eb90072f3948b769dbb,mobile,Apple iPhone,iOS 15.5,Mobile Safari 15.5,375x667,667x325,NA,ITT Ratings,3,against,7,NA,NA,NA,NA,NA,ACCEPT,NA,NA,NA,NA,batch7hes,batch7hes,18,1,1,Screen 1,continueButton,response_rating_scale_likert_active,18371,NA,NA,Somewhat Disagree,1,0,1,0,NA,NA,NA,NA,1,statements,The fast development was due to China sharing the COVID shape to the world so that it would reduce the time to research.,1,17/05/2021 12:08,17/05/2021 12:22,862,Rarely,Most months,20,Female,-99,A levels,63,3,Against,Against
4,1658859245835,26/07/2022 18:14:05,1658859245535,1,26/07/2022 19:14:05,93981,5,task-k2dt,NA,23317869,6842833,NA,complete,NA,62e02eb90072f3948b769dbb,mobile,Apple iPhone,iOS 15.5,Mobile Safari 15.5,375x667,667x325,NA,ITT Ratings,3,against,7,NA,NA,NA,NA,NA,ACCEPT,NA,NA,NA,NA,batch7hes,batch7hes,26,2,1,Screen 1,continueButton,response_rating_scale_likert_active,5874,NA,NA,Strongly Disagree,1,0,1,0,NA,NA,NA,NA,1,statements,Full confidence in the safety of the vaccination program,1,17/05/2021 12:03,17/05/2021 12:23,1164,Most weeks,Most days,34,Male,-99,A levels,64,2,Against,For
5,1658859249061,26/07/2022 18:14:09,1658859248720,1,26/07/2022 19:14:08,93981,5,task-k2dt,NA,23317869,6842833,NA,complete,NA,62e02eb90072f3948b769dbb,mobile,Apple iPhone,iOS 15.5,Mobile Safari 15.5,375x667,667x325,NA,ITT Ratings,3,against,7,NA,NA,NA,NA,NA,ACCEPT,NA,NA,NA,NA,batch7hes,batch7hes,59,3,1,Screen 1,continueButton,response_rating_scale_likert_active,3158.9999999999964,NA,NA,Strongly Agree,1,0,1,0,NA,NA,NA,NA,1,statements,Vaccinations still won't return life back to normal,1,17/05/2021 12:18,17/05/2021 12:35,1078,Never,Never,34,Female,-99,No formal qualifications,70,2,Against,Against
6,1658859250506,26/07/2022 18:14:10,1658859250172,1,26/07/2022 19:14:10,93981,5,task-k2dt,NA,23317869,6842833,NA,complete,NA,62e02eb90072f3948b769dbb,mobile,Apple iPhone,iOS 15.5,Mobile Safari 15.5,375x667,667x325,NA,ITT Ratings,3,against,7,NA,NA,NA,NA,NA,ACCEPT,NA,NA,NA,NA,batch7hes,batch7hes,50,4,1,Screen 1,continueButton,response_rating_scale_likert_active,1429,NA,NA,Strongly Disagree,1,0,1,0,NA,NA,NA,NA,1,statements,I am an elderly person,1,17/05/2021 12:22,17/05/2021 12:34,730,Once or twice a year,Most weeks,59,Male,-99,Vocational Training / Apprenticeship,68,2,Against,For
7,1658859253679,26/07/2022 18:14:13,1658859253283,1,26/07/2022 19:14:13,93981,5,task-k2dt,NA,23317869,6842833,NA,complete,NA,62e02eb90072f3948b769dbb,mobile,Apple iPhone,iOS 15.5,Mobile Safari 15.5,375x667,667x325,NA,ITT Ratings,3,against,7,NA,NA,NA,NA,NA,ACCEPT,NA,NA,NA,NA,batch7hes,batch7hes,10,5,1,Screen 1,continueButton,response_rating_scale_likert_active,3070,NA,NA,Disagree,1,0,1,0,NA,NA,NA,NA,1,statements,Unsure of side effects,1,17/05/2021 12:13,17/05/2021 12:20,381,Most weeks,Most months,36,Male,-99,A levels,62,1,Against,Against
8,1658859263090,26/07/2022 18:14:23,1658859262736,1,26/07/2022 19:14:22,93981,5,task-k2dt,NA,23317869,6842833,NA,complete,NA,62e02eb90072f3948b769dbb,mobile,Apple iPhone,iOS 15.5,Mobile Safari 15.5,375x667,667x325,NA,ITT Ratings,3,against,7,NA,NA,NA,NA,NA,ACCEPT,NA,NA,NA,NA,batch7hes,batch7hes,24,6,1,Screen 1,continueButton,response_rating_scale_likert_active,9423,NA,NA,Strongly Agree,1,0,1,0,NA,NA,NA,NA,1,statements,General disbelief in the effectiveness of requirement to be vaccinated in the first place,1,17/05/2021 12:03,17/05/2021 12:23,1164,Most weeks,Most days,34,Male,-99,A levels,64,3,Against,Against
9,1658859265656,26/07/2022 18:14:25,1658859265316,1,26/07/2022 19:14:25,93981,5,task-k2dt,NA,23317869,6842833,NA,complete,NA,62e02eb90072f3948b769dbb,mobile,Apple iPhone,iOS 15.5,Mobile Safari 15.5,375x667,667x325,NA,ITT Ratings,3,against,7,NA,NA,NA,NA,NA,ACCEPT,NA,NA,NA,NA,batch7hes,batch7hes,8,7,1,Screen 1,continueButton,response_rating_scale_likert_active,2549.9999999999927,NA,NA,Strongly Disagree,1,0,1,0,NA,NA,NA,NA,1,statements,To be able to go out and see elderly relatives.,1,17/05/2021 12:13,17/05/2021 12:18,332,Rarely,Rarely,31,Male,-99,"Undergraduate degree (BSc, BA)",61,2,Against,For
10,1658859271178,26/07/2022 18:14:31,1658859270800,1,26/07/2022 19:14:30,93981,5,task-k2dt,NA,23317869,6842833,NA,complete,NA,62e02eb90072f3948b769dbb,mobile,Apple iPhone,iOS 15.5,Mobile Safari 15.5,375x667,667x325,NA,ITT Ratings,3,against,7,NA,NA,NA,NA,NA,ACCEPT,NA,NA,NA,NA,batch7hes,batch7hes,2,8,1,Screen 1,continueButton,response_rating_scale_likert_active,5456,NA,NA,Somewhat Agree,1,0,1,0,NA,NA,NA,NA,1,statements,We would like to check you are reading each argument carefully. Please select 'Somewhat Agree' for this answer,1,NA,NA,NA,NA,NA,NA,NA,NA,NA,NA,check1,NA,NA
11,1658859278704,26/07/2022 18:14:38,1658859278420,1,26/07/2022 19:14:38,93981,5,task-k2dt,NA,23317869,6842833,NA,complete,NA,62e02eb90072f3948b769dbb,mobile,Apple iPhone,iOS 15.5,Mobile Safari 15.5,375x667,667x325,NA,ITT Ratings,3,against,7,NA,NA,NA,NA,NA,ACCEPT,NA,NA,NA,NA,batch7hes,batch7hes,57,9,1,Screen 1,continueButton,response_rating_scale_likert_active,7587,NA,NA,Disagree,1,0,1,0,NA,NA,NA,NA,1,statements,I want to help stop the spread of the virus,1,17/05/2021 12:30,17/05/2021 12:35,345,Most days,Most days,53,Female,-99,"GCSEs,Vocational Training / Apprenticeship",69,3,Against,For
12,1658859281948,26/07/2022 18:14:41,1658859281571,1,26/07/2022 19:14:41,93981,5,task-k2dt,NA,23317869,6842833,NA,complete,NA,62e02eb90072f3948b769dbb,mobile,Apple iPhone,iOS 15.5,Mobile Safari 15.5,375x667,667x325,NA,ITT Ratings,3,against,7,NA,NA,NA,NA,NA,ACCEPT,NA,NA,NA,NA,batch7hes,batch7hes,45,10,1,Screen 1,continueButton,response_rating_scale_likert_active,3116.0000000000073,NA,NA,Strongly Disagree,1,0,1,0,NA,NA,NA,NA,1,statements,The best scientist have made it so it should be safe,1,17/05/2021 12:21,17/05/2021 12:33,726,Most months,A few times a year,21,Female,-99,A levels,67,3,Against,For
13,1658859283422,26/07/2022 18:14:43,1658859283112,1,26/07/2022 19:14:43,93981,5,task-k2dt,NA,23317869,6842833,NA,complete,NA,62e02eb90072f3948b769dbb,mobile,Apple iPhone,iOS 15.5,Mobile Safari 15.5,375x667,667x325,NA,ITT Ratings,3,against,7,NA,NA,NA,NA,NA,ACCEPT,NA,NA,NA,NA,batch7hes,batch7hes,38,11,1,Screen 1,continueButton,response_rating_scale_likert_active,1506,NA,NA,Disagree,1,0,1,0,NA,NA,NA,NA,1,statements,Help prevent the spread,1,17/05/2021 12:21,17/05/2021 12:30,549,Most months,Most months,27,Female,-99,A levels,66,2,Against,For
14,1658859286790,26/07/2022 18:14:46,1658859284903,1,26/07/2022 19:14:44,93981,5,task-k2dt,NA,23317869,6842833,NA,complete,NA,62e02eb90072f3948b769dbb,mobile,Apple iPhone,iOS 15.5,Mobile Safari 15.5,375x667,667x325,NA,ITT Ratings,3,against,7,NA,NA,NA,NA,NA,ACCEPT,NA,NA,NA,NA,batch7hes,batch7hes,53,12,1,Screen 1,continueButton,response_rating_scale_likert_active,1774,NA,NA,Strongly Agree,1,0,1,0,NA,NA,NA,NA,1,statements,I think it is ineffective,1,17/05/2021 12:30,17/05/2021 12:35,345,Most days,Most days,53,Female,-99,"GCSEs,Vocational Training / Apprenticeship",69,2,Against,Against
15,1658859287136,26/07/2022 18:14:47,1658859286586,1,26/07/2022 19:14:46,93981,5,task-k2dt,NA,23317869,6842833,NA,complete,NA,62e02eb90072f3948b769dbb,mobile,Apple iPhone,iOS 15.5,Mobile Safari 15.5,375x667,667x325,NA,ITT Ratings,3,against,7,NA,NA,NA,NA,NA,ACCEPT,NA,NA,NA,NA,batch7hes,batch7hes,9,13,1,Screen 1,continueButton,response_rating_scale_likert_active,1650,NA,NA,Disagree,1,0,1,0,NA,NA,NA,NA,1,statements,To reduce the amount of deaths.,1,17/05/2021 12:13,17/05/2021 12:18,332,Rarely,Rarely,31,Male,-99,"Undergraduate degree (BSc, BA)",61,3,Against,For
16,1658859288994,26/07/2022 18:14:48,1658859288652,1,26/07/2022 19:14:48,93981,5,task-k2dt,NA,23317869,6842833,NA,complete,NA,62e02eb90072f3948b769dbb,mobile,Apple iPhone,iOS 15.5,Mobile Safari 15.5,375x667,667x325,NA,ITT Ratings,3,against,7,NA,NA,NA,NA,NA,ACCEPT,NA,NA,NA,NA,batch7hes,batch7hes,39,14,1,Screen 1,continueButton,response_rating_scale_likert_active,2039,NA,NA,Disagree,1,0,1,0,NA,NA,NA,NA,1,statements,To help protect against Underlying health conditions,1,17/05/2021 12:21,17/05/2021 12:30,549,Most months,Most months,27,Female,-99,A levels,66,3,Against,For
17,1658859290899,26/07/2022 18:14:50,1658859290616,1,26/07/2022 19:14:50,93981,5,task-k2dt,NA,23317869,6842833,NA,complete,NA,62e02eb90072f3948b769dbb,mobile,Apple iPhone,iOS 15.5,Mobile Safari 15.5,375x667,667x325,NA,ITT Ratings,3,against,7,NA,NA,NA,NA,NA,ACCEPT,NA,NA,NA,NA,batch7hes,batch7hes,36,15,1,Screen 1,continueButton,response_rating_scale_likert_active,1940,NA,NA,Strongly Agree,1,0,1,0,NA,NA,NA,NA,1,statements,Side effects or risks of taking the vaccine,1,17/05/2021 12:21,17/05/2021 12:30,549,Most months,Most months,27,Female,-99,A levels,66,3,Against,Against
18,1658859294846,26/07/2022 18:14:54,1658859294534,1,26/07/2022 19:14:54,93981,5,task-k2dt,NA,23317869,6842833,NA,complete,NA,62e02eb90072f3948b769dbb,mobile,Apple iPhone,iOS 15.5,Mobile Safari 15.5,375x667,667x325,NA,ITT Ratings,3,against,7,NA,NA,NA,NA,NA,ACCEPT,NA,NA,NA,NA,batch7hes,batch7hes,15,16,1,Screen 1,continueButton,response_rating_scale_likert_active,3893,NA,NA,Strongly Disagree,1,0,1,0,NA,NA,NA,NA,1,statements,ItÈs in the countries best interest,1,17/05/2021 12:13,17/05/2021 12:20,381,Most weeks,Most months,36,Male,-99,A levels,62,3,Against,For
19,1658859296689,26/07/2022 18:14:56,1658859296287,1,26/07/2022 19:14:56,93981,5,task-k2dt,NA,23317869,6842833,NA,complete,NA,62e02eb90072f3948b769dbb,mobile,Apple iPhone,iOS 15.5,Mobile Safari 15.5,375x667,667x325,NA,ITT Ratings,3,against,7,NA,NA,NA,NA,NA,ACCEPT,NA,NA,NA,NA,batch7hes,batch7hes,29,17,1,Screen 1,continueButton,response_rating_scale_likert_active,1721,NA,NA,Strongly Agree,1,0,1,0,NA,NA,NA,NA,1,statements,It has not been developed long enough to see the reactions or effectiveness.,1,17/05/2021 12:11,17/05/2021 12:24,783,Most months,Most months,27,Female,-99,"Undergraduate degree (BSc, BA)",65,2,Against,Against
20,1658859298325,26/07/2022 18:14:58,1658859297934,1,26/07/2022 19:14:57,93981,5,task-k2dt,NA,23317869,6842833,NA,complete,NA,62e02eb90072f3948b769dbb,mobile,Apple iPhone,iOS 15.5,Mobile Safari 15.5,375x667,667x325,NA,ITT Ratings,3,against,7,NA,NA,NA,NA,NA,ACCEPT,NA,NA,NA,NA,batch7hes,batch7hes,7,18,1,Screen 1,continueButton,response_rating_scale_likert_active,1619,NA,NA,Strongly Disagree,1,0,1,0,NA,NA,NA,NA,1,statements,To be safe from the virus.,1,17/05/2021 12:13,17/05/2021 12:18,332,Rarely,Rarely,31,Male,-99,"Undergraduate degree (BSc, BA)",61,1,Against,For
21,1658859300880,26/07/2022 18:15:00,1658859300554,1,26/07/2022 19:15:00,93981,5,task-k2dt,NA,23317869,6842833,NA,complete,NA,62e02eb90072f3948b769dbb,mobile,Apple iPhone,iOS 15.5,Mobile Safari 15.5,375x667,667x325,NA,ITT Ratings,3,against,7,NA,NA,NA,NA,NA,ACCEPT,NA,NA,NA,NA,batch7hes,batch7hes,28,19,1,Screen 1,continueButton,response_rating_scale_likert_active,2591,NA,NA,Strongly Agree,1,0,1,0,NA,NA,NA,NA,1,statements,We do not know the side effects of it in a couple of years time,1,17/05/2021 12:11,17/05/2021 12:24,783,Most months,Most months,27,Female,-99,"Undergraduate degree (BSc, BA)",65,1,Against,Against
22,1658859302332,26/07/2022 18:15:02,1658859301971,1,26/07/2022 19:15:01,93981,5,task-k2dt,NA,23317869,6842833,NA,complete,NA,62e02eb90072f3948b769dbb,mobile,Apple iPhone,iOS 15.5,Mobile Safari 15.5,375x667,667x325,NA,ITT Ratings,3,against,7,NA,NA,NA,NA,NA,ACCEPT,NA,NA,NA,NA,batch7hes,batch7hes,49,20,1,Screen 1,continueButton,response_rating_scale_likert_active,1387,NA,NA,Strongly Disagree,1,0,1,0,NA,NA,NA,NA,1,statements,I at risk with my medical condition,1,17/05/2021 12:22,17/05/2021 12:34,730,Once or twice a year,Most weeks,59,Male,-99,Vocational Training / Apprenticeship,68,1,Against,For
23,1658859303880,26/07/2022 18:15:03,1658859303554,1,26/07/2022 19:15:03,93981,5,task-k2dt,NA,23317869,6842833,NA,complete,NA,62e02eb90072f3948b769dbb,mobile,Apple iPhone,iOS 15.5,Mobile Safari 15.5,375x667,667x325,NA,ITT Ratings,3,against,7,NA,NA,NA,NA,NA,ACCEPT,NA,NA,NA,NA,batch7hes,batch7hes,5,21,1,Screen 1,continueButton,response_rating_scale_likert_active,1555.0000000000146,NA,NA,Strongly Agree,1,0,1,0,NA,NA,NA,NA,1,statements,Don't trust the people who are in charge of creating a vaccine.,1,17/05/2021 12:13,17/05/2021 12:18,332,Rarely,Rarely,31,Male,-99,"Undergraduate degree (BSc, BA)",61,2,Against,Against
24,1658859305598,26/07/2022 18:15:05,1658859305206,1,26/07/2022 19:15:05,93981,5,task-k2dt,NA,23317869,6842833,NA,complete,NA,62e02eb90072f3948b769dbb,mobile,Apple iPhone,iOS 15.5,Mobile Safari 15.5,375x667,667x325,NA,ITT Ratings,3,against,7,NA,NA,NA,NA,NA,ACCEPT,NA,NA,NA,NA,batch7hes,batch7hes,62,22,1,Screen 1,continueButton,response_rating_scale_likert_active,1623,NA,NA,Strongly Disagree,1,0,1,0,NA,NA,NA,NA,1,statements,Because I believe the death rate,1,17/05/2021 12:18,17/05/2021 12:35,1078,Never,Never,34,Female,-99,No formal qualifications,70,2,Against,For
25,1658859308432,26/07/2022 18:15:08,1658859308137,1,26/07/2022 19:15:08,93981,5,task-k2dt,NA,23317869,6842833,NA,complete,NA,62e02eb90072f3948b769dbb,mobile,Apple iPhone,iOS 15.5,Mobile Safari 15.5,375x667,667x325,NA,ITT Ratings,3,against,7,NA,NA,NA,NA,NA,ACCEPT,NA,NA,NA,NA,batch7hes,batch7hes,30,23,1,Screen 1,continueButton,response_rating_scale_likert_active,2904,NA,NA,Strongly Agree,1,0,1,0,NA,NA,NA,NA,1,statements,There are natural ways to help boost the immune system and fight the virus instead of putting artificial substances into the body.,1,17/05/2021 12:11,17/05/2021 12:24,783,Most months,Most months,27,Female,-99,"Undergraduate degree (BSc, BA)",65,3,Against,Against
26,1658859310205,26/07/2022 18:15:10,1658859309721,1,26/07/2022 19:15:09,93981,5,task-k2dt,NA,23317869,6842833,NA,complete,NA,62e02eb90072f3948b769dbb,mobile,Apple iPhone,iOS 15.5,Mobile Safari 15.5,375x667,667x325,NA,ITT Ratings,3,against,7,NA,NA,NA,NA,NA,ACCEPT,NA,NA,NA,NA,batch7hes,batch7hes,54,24,1,Screen 1,continueButton,response_rating_scale_likert_active,1554,NA,NA,Strongly Agree,1,0,1,0,NA,NA,NA,NA,1,statements,I think it hasn't had enough time to develop,1,17/05/2021 12:30,17/05/2021 12:35,345,Most days,Most days,53,Female,-99,"GCSEs,Vocational Training / Apprenticeship",69,3,Against,Against
27,1658859311875,26/07/2022 18:15:11,1658859311547,1,26/07/2022 19:15:11,93981,5,task-k2dt,NA,23317869,6842833,NA,complete,NA,62e02eb90072f3948b769dbb,mobile,Apple iPhone,iOS 15.5,Mobile Safari 15.5,375x667,667x325,NA,ITT Ratings,3,against,7,NA,NA,NA,NA,NA,ACCEPT,NA,NA,NA,NA,batch7hes,batch7hes,42,25,1,Screen 1,continueButton,response_rating_scale_likert_active,1795,NA,NA,Strongly Agree,1,0,1,0,NA,NA,NA,NA,1,statements,It's scary to feel forced in to taking a vaccine that's just been developed,1,17/05/2021 12:21,17/05/2021 12:33,726,Most months,A few times a year,21,Female,-99,A levels,67,3,Against,Against
28,1658859312963,26/07/2022 18:15:12,1658859312634,1,26/07/2022 19:15:12,93981,5,task-k2dt,NA,23317869,6842833,NA,complete,NA,62e02eb90072f3948b769dbb,mobile,Apple iPhone,iOS 15.5,Mobile Safari 15.5,375x667,667x325,NA,ITT Ratings,3,against,7,NA,NA,NA,NA,NA,ACCEPT,NA,NA,NA,NA,batch7hes,batch7hes,40,26,1,Screen 1,continueButton,response_rating_scale_likert_active,1058,NA,NA,Strongly Agree,1,0,1,0,NA,NA,NA,NA,1,statements,Don't know the long term effects,1,17/05/2021 12:21,17/05/2021 12:33,726,Most months,A few times a year,21,Female,-99,A levels,67,1,Against,Against
29,1658859318392,26/07/2022 18:15:18,1658859318005,1,26/07/2022 19:15:18,93981,5,task-k2dt,NA,23317869,6842833,NA,complete,NA,62e02eb90072f3948b769dbb,mobile,Apple iPhone,iOS 15.5,Mobile Safari 15.5,375x667,667x325,NA,ITT Ratings,3,against,7,NA,NA,NA,NA,NA,ACCEPT,NA,NA,NA,NA,batch7hes,batch7hes,17,27,1,Screen 1,continueButton,response_rating_scale_likert_active,5349,NA,NA,Somewhat Agree,1,0,1,0,NA,NA,NA,NA,1,statements,Most vaccines have side effects such as headaches and muscle aches so it is the same with eh COVID vaccines.,1,17/05/2021 12:08,17/05/2021 12:22,862,Rarely,Most months,20,Female,-99,A levels,63,2,Against,Against
30,1658859321062,26/07/2022 18:15:21,1658859320670,1,26/07/2022 19:15:20,93981,5,task-k2dt,NA,23317869,6842833,NA,complete,NA,62e02eb90072f3948b769dbb,mobile,Apple iPhone,iOS 15.5,Mobile Safari 15.5,375x667,667x325,NA,ITT Ratings,3,against,7,NA,NA,NA,NA,NA,ACCEPT,NA,NA,NA,NA,batch7hes,batch7hes,25,28,1,Screen 1,continueButton,response_rating_scale_likert_active,2635,NA,NA,Strongly Disagree,1,0,1,0,NA,NA,NA,NA,1,statements,Get life back to some sort of new normal with lifting restrictions on everyday life,1,17/05/2021 12:03,17/05/2021 12:23,1164,Most weeks,Most days,34,Male,-99,A levels,64,1,Against,For
31,1658859322289,26/07/2022 18:15:22,1658859321921,1,26/07/2022 19:15:21,93981,5,task-k2dt,NA,23317869,6842833,NA,complete,NA,62e02eb90072f3948b769dbb,mobile,Apple iPhone,iOS 15.5,Mobile Safari 15.5,375x667,667x325,NA,ITT Ratings,3,against,7,NA,NA,NA,NA,NA,ACCEPT,NA,NA,NA,NA,batch7hes,batch7hes,52,29,1,Screen 1,continueButton,response_rating_scale_likert_active,1224,NA,NA,Strongly Agree,1,0,1,0,NA,NA,NA,NA,1,statements,I think it is dangerous,1,17/05/2021 12:30,17/05/2021 12:35,345,Most days,Most days,53,Female,-99,"GCSEs,Vocational Training / Apprenticeship",69,1,Against,Against
32,1658859323400,26/07/2022 18:15:23,1658859323019,1,26/07/2022 19:15:23,93981,5,task-k2dt,NA,23317869,6842833,NA,complete,NA,62e02eb90072f3948b769dbb,mobile,Apple iPhone,iOS 15.5,Mobile Safari 15.5,375x667,667x325,NA,ITT Ratings,3,against,7,NA,NA,NA,NA,NA,ACCEPT,NA,NA,NA,NA,batch7hes,batch7hes,47,30,1,Screen 1,continueButton,response_rating_scale_likert_active,1068,NA,NA,Strongly Agree,1,0,1,0,NA,NA,NA,NA,1,statements,Vaccine not fully tested,1,17/05/2021 12:22,17/05/2021 12:34,730,Once or twice a year,Most weeks,59,Male,-99,Vocational Training / Apprenticeship,68,2,Against,Against
33,1658859325285,26/07/2022 18:15:25,1658859324735,1,26/07/2022 19:15:24,93981,5,task-k2dt,NA,23317869,6842833,NA,complete,NA,62e02eb90072f3948b769dbb,mobile,Apple iPhone,iOS 15.5,Mobile Safari 15.5,375x667,667x325,NA,ITT Ratings,3,against,7,NA,NA,NA,NA,NA,ACCEPT,NA,NA,NA,NA,batch7hes,batch7hes,60,31,1,Screen 1,continueButton,response_rating_scale_likert_active,1691.9999999999854,NA,NA,Strongly Agree,1,0,1,0,NA,NA,NA,NA,1,statements,Because of what's in it,1,17/05/2021 12:18,17/05/2021 12:35,1078,Never,Never,34,Female,-99,No formal qualifications,70,3,Against,Against
34,1658859328625,26/07/2022 18:15:28,1658859328309,1,26/07/2022 19:15:28,93981,5,task-k2dt,NA,23317869,6842833,NA,complete,NA,62e02eb90072f3948b769dbb,mobile,Apple iPhone,iOS 15.5,Mobile Safari 15.5,375x667,667x325,NA,ITT Ratings,3,against,7,NA,NA,NA,NA,NA,ACCEPT,NA,NA,NA,NA,batch7hes,batch7hes,41,32,1,Screen 1,continueButton,response_rating_scale_likert_active,3549,NA,NA,Agree,1,0,1,0,NA,NA,NA,NA,1,statements,It doesnt stop the spread just how much it impacts so young people wouldn't need it as much,1,17/05/2021 12:21,17/05/2021 12:33,726,Most months,A few times a year,21,Female,-99,A levels,67,2,Against,Against
35,1658859331388,26/07/2022 18:15:31,1658859331068,1,26/07/2022 19:15:31,93981,5,task-k2dt,NA,23317869,6842833,NA,complete,NA,62e02eb90072f3948b769dbb,mobile,Apple iPhone,iOS 15.5,Mobile Safari 15.5,375x667,667x325,NA,ITT Ratings,3,against,7,NA,NA,NA,NA,NA,ACCEPT,NA,NA,NA,NA,batch7hes,batch7hes,31,33,1,Screen 1,continueButton,response_rating_scale_likert_active,2724,NA,NA,Strongly Disagree,1,0,1,0,NA,NA,NA,NA,1,statements,Don't want to spread the virus,1,17/05/2021 12:11,17/05/2021 12:24,783,Most months,Most months,27,Female,-99,"Undergraduate degree (BSc, BA)",65,1,Against,For
36,1658859334266,26/07/2022 18:15:34,1658859333938,1,26/07/2022 19:15:33,93981,5,task-k2dt,NA,23317869,6842833,NA,complete,NA,62e02eb90072f3948b769dbb,mobile,Apple iPhone,iOS 15.5,Mobile Safari 15.5,375x667,667x325,NA,ITT Ratings,3,against,7,NA,NA,NA,NA,NA,ACCEPT,NA,NA,NA,NA,batch7hes,batch7hes,33,34,1,Screen 1,continueButton,response_rating_scale_likert_active,2844,NA,NA,Strongly Disagree,1,0,1,0,NA,NA,NA,NA,1,statements,"Because X Y Z (friends, family, celebrity, influencer etc) has had it, so it should be safe.",1,17/05/2021 12:11,17/05/2021 12:24,783,Most months,Most months,27,Female,-99,"Undergraduate degree (BSc, BA)",65,3,Against,For
37,1658859335596,26/07/2022 18:15:35,1658859335305,1,26/07/2022 19:15:35,93981,5,task-k2dt,NA,23317869,6842833,NA,complete,NA,62e02eb90072f3948b769dbb,mobile,Apple iPhone,iOS 15.5,Mobile Safari 15.5,375x667,667x325,NA,ITT Ratings,3,against,7,NA,NA,NA,NA,NA,ACCEPT,NA,NA,NA,NA,batch7hes,batch7hes,22,35,1,Screen 1,continueButton,response_rating_scale_likert_active,1339,NA,NA,Strongly Agree,1,0,1,0,NA,NA,NA,NA,1,statements,Concern over a reaction to the vaccine,1,17/05/2021 12:03,17/05/2021 12:23,1164,Most weeks,Most days,34,Male,-99,A levels,64,1,Against,Against
38,1658859340101,26/07/2022 18:15:40,1658859339790,1,26/07/2022 19:15:39,93981,5,task-k2dt,NA,23317869,6842833,NA,complete,NA,62e02eb90072f3948b769dbb,mobile,Apple iPhone,iOS 15.5,Mobile Safari 15.5,375x667,667x325,NA,ITT Ratings,3,against,7,NA,NA,NA,NA,NA,ACCEPT,NA,NA,NA,NA,batch7hes,batch7hes,19,36,1,Screen 1,continueButton,response_rating_scale_likert_active,4457.000000000015,NA,NA,Neither Agree nor Disagree,1,0,1,0,NA,NA,NA,NA,1,statements,There have been 7 people that have died from it as it caused them a rare blood clot disease.,1,17/05/2021 12:08,17/05/2021 12:22,862,Rarely,Most months,20,Female,-99,A levels,63,1,Against,For
39,1658859341330,26/07/2022 18:15:41,1658859340938,1,26/07/2022 19:15:40,93981,5,task-k2dt,NA,23317869,6842833,NA,complete,NA,62e02eb90072f3948b769dbb,mobile,Apple iPhone,iOS 15.5,Mobile Safari 15.5,375x667,667x325,NA,ITT Ratings,3,against,7,NA,NA,NA,NA,NA,ACCEPT,NA,NA,NA,NA,batch7hes,batch7hes,46,37,1,Screen 1,continueButton,response_rating_scale_likert_active,1123,NA,NA,Strongly Agree,1,0,1,0,NA,NA,NA,NA,1,statements,It is my personal choice,1,17/05/2021 12:22,17/05/2021 12:34,730,Once or twice a year,Most weeks,59,Male,-99,Vocational Training / Apprenticeship,68,1,Against,Against
40,1658859344300,26/07/2022 18:15:44,1658859343902,1,26/07/2022 19:15:43,93981,5,task-k2dt,NA,23317869,6842833,NA,complete,NA,62e02eb90072f3948b769dbb,mobile,Apple iPhone,iOS 15.5,Mobile Safari 15.5,375x667,667x325,NA,ITT Ratings,3,against,7,NA,NA,NA,NA,NA,ACCEPT,NA,NA,NA,NA,batch7hes,batch7hes,3,38,1,Screen 1,continueButton,response_rating_scale_likert_active,2937,NA,NA,Somewhat Disagree,1,0,1,0,NA,NA,NA,NA,1,statements,We would like to check you are reading each argument carefully. Please select 'Somewhat Disagree' for this answer,1,NA,NA,NA,NA,NA,NA,NA,NA,NA,NA,check2,NA,NA
41,1658859346552,26/07/2022 18:15:46,1658859346189,1,26/07/2022 19:15:46,93981,5,task-k2dt,NA,23317869,6842833,NA,complete,NA,62e02eb90072f3948b769dbb,mobile,Apple iPhone,iOS 15.5,Mobile Safari 15.5,375x667,667x325,NA,ITT Ratings,3,against,7,NA,NA,NA,NA,NA,ACCEPT,NA,NA,NA,NA,batch7hes,batch7hes,23,39,1,Screen 1,continueButton,response_rating_scale_likert_active,2264,NA,NA,Strongly Agree,1,0,1,0,NA,NA,NA,NA,1,statements,Worried about chance of serious side affects,1,17/05/2021 12:03,17/05/2021 12:23,1164,Most weeks,Most days,34,Male,-99,A levels,64,2,Against,Against
42,1658859349117,26/07/2022 18:15:49,1658859348739,1,26/07/2022 19:15:48,93981,5,task-k2dt,NA,23317869,6842833,NA,complete,NA,62e02eb90072f3948b769dbb,mobile,Apple iPhone,iOS 15.5,Mobile Safari 15.5,375x667,667x325,NA,ITT Ratings,3,against,7,NA,NA,NA,NA,NA,ACCEPT,NA,NA,NA,NA,batch7hes,batch7hes,6,40,1,Screen 1,continueButton,response_rating_scale_likert_active,2518,NA,NA,Strongly Agree,1,0,1,0,NA,NA,NA,NA,1,statements,Telling us lies on how everything started out from the virus from day one.,1,17/05/2021 12:13,17/05/2021 12:18,332,Rarely,Rarely,31,Male,-99,"Undergraduate degree (BSc, BA)",61,3,Against,Against
43,1658859353841,26/07/2022 18:15:53,1658859353549,1,26/07/2022 19:15:53,93981,5,task-k2dt,NA,23317869,6842833,NA,complete,NA,62e02eb90072f3948b769dbb,mobile,Apple iPhone,iOS 15.5,Mobile Safari 15.5,375x667,667x325,NA,ITT Ratings,3,against,7,NA,NA,NA,NA,NA,ACCEPT,NA,NA,NA,NA,batch7hes,batch7hes,16,41,1,Screen 1,continueButton,response_rating_scale_likert_active,4782,NA,NA,Strongly Disagree,1,0,1,0,NA,NA,NA,NA,1,statements,"Even though the development of the vaccine was fast, they have used RNA technology that took about 30 years to work effectively.",1,17/05/2021 12:08,17/05/2021 12:22,862,Rarely,Most months,20,Female,-99,A levels,63,1,Against,Against
44,1658859360893,26/07/2022 18:16:00,1658859360547,1,26/07/2022 19:16:00,93981,5,task-k2dt,NA,23317869,6842833,NA,complete,NA,62e02eb90072f3948b769dbb,mobile,Apple iPhone,iOS 15.5,Mobile Safari 15.5,375x667,667x325,NA,ITT Ratings,3,against,7,NA,NA,NA,NA,NA,ACCEPT,NA,NA,NA,NA,batch7hes,batch7hes,61,42,1,Screen 1,continueButton,response_rating_scale_likert_active,6976,NA,NA,Strongly Disagree,1,0,1,0,NA,NA,NA,NA,1,statements,Because I believe the fear,1,17/05/2021 12:18,17/05/2021 12:35,1078,Never,Never,34,Female,-99,No formal qualifications,70,1,Against,For
45,1658859362515,26/07/2022 18:16:02,1658859362104,1,26/07/2022 19:16:02,93981,5,task-k2dt,NA,23317869,6842833,NA,complete,NA,62e02eb90072f3948b769dbb,mobile,Apple iPhone,iOS 15.5,Mobile Safari 15.5,375x667,667x325,NA,ITT Ratings,3,against,7,NA,NA,NA,NA,NA,ACCEPT,NA,NA,NA,NA,batch7hes,batch7hes,56,43,1,Screen 1,continueButton,response_rating_scale_likert_active,1526,NA,NA,Strongly Disagree,1,0,1,0,NA,NA,NA,NA,1,statements,I want to protect someone who is vulnerable,1,17/05/2021 12:30,17/05/2021 12:35,345,Most days,Most days,53,Female,-99,"GCSEs,Vocational Training / Apprenticeship",69,2,Against,For
46,1658859363644,26/07/2022 18:16:03,1658859363327,1,26/07/2022 19:16:03,93981,5,task-k2dt,NA,23317869,6842833,NA,complete,NA,62e02eb90072f3948b769dbb,mobile,Apple iPhone,iOS 15.5,Mobile Safari 15.5,375x667,667x325,NA,ITT Ratings,3,against,7,NA,NA,NA,NA,NA,ACCEPT,NA,NA,NA,NA,batch7hes,batch7hes,32,44,1,Screen 1,continueButton,response_rating_scale_likert_active,1196.999999999971,NA,NA,Strongly Disagree,1,0,1,0,NA,NA,NA,NA,1,statements,Want to protect friends and family.,1,17/05/2021 12:11,17/05/2021 12:24,783,Most months,Most months,27,Female,-99,"Undergraduate degree (BSc, BA)",65,2,Against,For
47,1658859366834,26/07/2022 18:16:06,1658859366461,1,26/07/2022 19:16:06,93981,5,task-k2dt,NA,23317869,6842833,NA,complete,NA,62e02eb90072f3948b769dbb,mobile,Apple iPhone,iOS 15.5,Mobile Safari 15.5,375x667,667x325,NA,ITT Ratings,3,against,7,NA,NA,NA,NA,NA,ACCEPT,NA,NA,NA,NA,batch7hes,batch7hes,43,45,1,Screen 1,continueButton,response_rating_scale_likert_active,3108,NA,NA,Strongly Disagree,1,0,1,0,NA,NA,NA,NA,1,statements,Protect yourself from getting the virus very badly,1,17/05/2021 12:21,17/05/2021 12:33,726,Most months,A few times a year,21,Female,-99,A levels,67,1,Against,For
48,1658859368972,26/07/2022 18:16:08,1658859368654,1,26/07/2022 19:16:08,93981,5,task-k2dt,NA,23317869,6842833,NA,complete,NA,62e02eb90072f3948b769dbb,mobile,Apple iPhone,iOS 15.5,Mobile Safari 15.5,375x667,667x325,NA,ITT Ratings,3,against,7,NA,NA,NA,NA,NA,ACCEPT,NA,NA,NA,NA,batch7hes,batch7hes,48,46,1,Screen 1,continueButton,response_rating_scale_likert_active,2167,NA,NA,Strongly Agree,1,0,1,0,NA,NA,NA,NA,1,statements,The vaccine only partial projects and you will always take it like the flu jab,1,17/05/2021 12:22,17/05/2021 12:34,730,Once or twice a year,Most weeks,59,Male,-99,Vocational Training / Apprenticeship,68,3,Against,Against
49,1658859370711,26/07/2022 18:16:10,1658859370356,1,26/07/2022 19:16:10,93981,5,task-k2dt,NA,23317869,6842833,NA,complete,NA,62e02eb90072f3948b769dbb,mobile,Apple iPhone,iOS 15.5,Mobile Safari 15.5,375x667,667x325,NA,ITT Ratings,3,against,7,NA,NA,NA,NA,NA,ACCEPT,NA,NA,NA,NA,batch7hes,batch7hes,37,47,1,Screen 1,continueButton,response_rating_scale_likert_active,1674,NA,NA,Strongly Disagree,1,0,1,0,NA,NA,NA,NA,1,statements,Less likely to get it,1,17/05/2021 12:21,17/05/2021 12:30,549,Most months,Most months,27,Female,-99,A levels,66,1,Against,For
50,1658859375561,26/07/2022 18:16:15,1658859375241,1,26/07/2022 19:16:15,93981,5,task-k2dt,NA,23317869,6842833,NA,complete,NA,62e02eb90072f3948b769dbb,mobile,Apple iPhone,iOS 15.5,Mobile Safari 15.5,375x667,667x325,NA,ITT Ratings,3,against,7,NA,NA,NA,NA,NA,ACCEPT,NA,NA,NA,NA,batch7hes,batch7hes,63,48,1,Screen 1,continueButton,response_rating_scale_likert_active,4863,NA,NA,Strongly Agree,1,0,1,0,NA,NA,NA,NA,1,statements,Because I think life will return to normal but loads vaccinated and nothing changes,1,17/05/2021 12:18,17/05/2021 12:35,1078,Never,Never,34,Female,-99,No formal qualifications,70,3,Against,For
51,1658859376970,26/07/2022 18:16:16,1658859376474,1,26/07/2022 19:16:16,93981,5,task-k2dt,NA,23317869,6842833,NA,complete,NA,62e02eb90072f3948b769dbb,mobile,Apple iPhone,iOS 15.5,Mobile Safari 15.5,375x667,667x325,NA,ITT Ratings,3,against,7,NA,NA,NA,NA,NA,ACCEPT,NA,NA,NA,NA,batch7hes,batch7hes,34,49,1,Screen 1,continueButton,response_rating_scale_likert_active,1204,NA,NA,Strongly Agree,1,0,1,0,NA,NA,NA,NA,1,statements,It's not guaranteed full immunity,1,17/05/2021 12:21,17/05/2021 12:30,549,Most months,Most months,27,Female,-99,A levels,66,1,Against,Against
52,1658859378697,26/07/2022 18:16:18,1658859378359,1,26/07/2022 19:16:18,93981,5,task-k2dt,NA,23317869,6842833,NA,complete,NA,62e02eb90072f3948b769dbb,mobile,Apple iPhone,iOS 15.5,Mobile Safari 15.5,375x667,667x325,NA,ITT Ratings,3,against,7,NA,NA,NA,NA,NA,ACCEPT,NA,NA,NA,NA,batch7hes,batch7hes,44,50,1,Screen 1,continueButton,response_rating_scale_likert_active,1858.999999999971,NA,NA,Strongly Disagree,1,0,1,0,NA,NA,NA,NA,1,statements,Protect others from getting the virus,1,17/05/2021 12:21,17/05/2021 12:33,726,Most months,A few times a year,21,Female,-99,A levels,67,2,Against,For
53,1658859380747,26/07/2022 18:16:20,1658859380372,1,26/07/2022 19:16:20,93981,5,task-k2dt,NA,23317869,6842833,NA,complete,NA,62e02eb90072f3948b769dbb,mobile,Apple iPhone,iOS 15.5,Mobile Safari 15.5,375x667,667x325,NA,ITT Ratings,3,against,7,NA,NA,NA,NA,NA,ACCEPT,NA,NA,NA,NA,batch7hes,batch7hes,12,51,1,Screen 1,continueButton,response_rating_scale_likert_active,1984,NA,NA,Strongly Agree,1,0,1,0,NA,NA,NA,NA,1,statements,Why vaccinate healthy people against something they have never had,1,17/05/2021 12:13,17/05/2021 12:20,381,Most weeks,Most months,36,Male,-99,A levels,62,3,Against,Against
54,1658859381679,26/07/2022 18:16:21,1658859381290,1,26/07/2022 19:16:21,93981,5,task-k2dt,NA,23317869,6842833,NA,complete,NA,62e02eb90072f3948b769dbb,mobile,Apple iPhone,iOS 15.5,Mobile Safari 15.5,375x667,667x325,NA,ITT Ratings,3,against,7,NA,NA,NA,NA,NA,ACCEPT,NA,NA,NA,NA,batch7hes,batch7hes,51,52,1,Screen 1,continueButton,response_rating_scale_likert_active,895,NA,NA,Strongly Agree,1,0,1,0,NA,NA,NA,NA,1,statements,It is my choice to take it,1,17/05/2021 12:22,17/05/2021 12:34,730,Once or twice a year,Most weeks,59,Male,-99,Vocational Training / Apprenticeship,68,3,Against,For
55,1658859383155,26/07/2022 18:16:23,1658859382864,1,26/07/2022 19:16:22,93981,5,task-k2dt,NA,23317869,6842833,NA,complete,NA,62e02eb90072f3948b769dbb,mobile,Apple iPhone,iOS 15.5,Mobile Safari 15.5,375x667,667x325,NA,ITT Ratings,3,against,7,NA,NA,NA,NA,NA,ACCEPT,NA,NA,NA,NA,batch7hes,batch7hes,35,53,1,Screen 1,continueButton,response_rating_scale_likert_active,1545,NA,NA,Strongly Agree,1,0,1,0,NA,NA,NA,NA,1,statements,Not enough time to develop the vaccine,1,17/05/2021 12:21,17/05/2021 12:30,549,Most months,Most months,27,Female,-99,A levels,66,2,Against,Against
56,1658859386798,26/07/2022 18:16:26,1658859386455,1,26/07/2022 19:16:26,93981,5,task-k2dt,NA,23317869,6842833,NA,complete,NA,62e02eb90072f3948b769dbb,mobile,Apple iPhone,iOS 15.5,Mobile Safari 15.5,375x667,667x325,NA,ITT Ratings,3,against,7,NA,NA,NA,NA,NA,ACCEPT,NA,NA,NA,NA,batch7hes,batch7hes,14,54,1,Screen 1,continueButton,response_rating_scale_likert_active,3568.999999999971,NA,NA,Strongly Disagree,1,0,1,0,NA,NA,NA,NA,1,statements,I am protected against the disease,1,17/05/2021 12:13,17/05/2021 12:20,381,Most weeks,Most months,36,Male,-99,A levels,62,2,Against,For
57,1658859389869,26/07/2022 18:16:29,1658859389477,1,26/07/2022 19:16:29,93981,5,task-k2dt,NA,23317869,6842833,NA,complete,NA,62e02eb90072f3948b769dbb,mobile,Apple iPhone,iOS 15.5,Mobile Safari 15.5,375x667,667x325,NA,ITT Ratings,3,against,7,NA,NA,NA,NA,NA,ACCEPT,NA,NA,NA,NA,batch7hes,batch7hes,58,55,1,Screen 1,continueButton,response_rating_scale_likert_active,2995,NA,NA,Strongly Agree,1,0,1,0,NA,NA,NA,NA,1,statements,Professionals on tv have said it won't protect you from getting the virus or stop you spreading it to others,1,17/05/2021 12:18,17/05/2021 12:35,1078,Never,Never,34,Female,-99,No formal qualifications,70,1,Against,Against
58,1658859392942,26/07/2022 18:16:32,1658859392590,1,26/07/2022 19:16:32,93981,5,task-k2dt,NA,23317869,6842833,NA,complete,NA,62e02eb90072f3948b769dbb,mobile,Apple iPhone,iOS 15.5,Mobile Safari 15.5,375x667,667x325,NA,ITT Ratings,3,against,7,NA,NA,NA,NA,NA,ACCEPT,NA,NA,NA,NA,batch7hes,batch7hes,27,56,1,Screen 1,continueButton,response_rating_scale_likert_active,3088,NA,NA,Strongly Disagree,1,0,1,0,NA,NA,NA,NA,1,statements,"Feel like there is no choice in the matter other than too have the vaccination to support friends, family etc",1,17/05/2021 12:03,17/05/2021 12:23,1164,Most weeks,Most days,34,Male,-99,A levels,64,3,Against,For
59,1658859394351,26/07/2022 18:16:34,1658859393990,1,26/07/2022 19:16:33,93981,5,task-k2dt,NA,23317869,6842833,NA,complete,NA,62e02eb90072f3948b769dbb,mobile,Apple iPhone,iOS 15.5,Mobile Safari 15.5,375x667,667x325,NA,ITT Ratings,3,against,7,NA,NA,NA,NA,NA,ACCEPT,NA,NA,NA,NA,batch7hes,batch7hes,11,57,1,Screen 1,continueButton,response_rating_scale_likert_active,1376,NA,NA,Strongly Agree,1,0,1,0,NA,NA,NA,NA,1,statements,Vaccine was produced too quickly,1,17/05/2021 12:13,17/05/2021 12:20,381,Most weeks,Most months,36,Male,-99,A levels,62,2,Against,Against
60,1658859395912,26/07/2022 18:16:35,1658859395498,1,26/07/2022 19:16:35,93981,5,task-k2dt,NA,23317869,6842833,NA,complete,NA,62e02eb90072f3948b769dbb,mobile,Apple iPhone,iOS 15.5,Mobile Safari 15.5,375x667,667x325,NA,ITT Ratings,3,against,7,NA,NA,NA,NA,NA,ACCEPT,NA,NA,NA,NA,batch7hes,batch7hes,4,58,1,Screen 1,continueButton,response_rating_scale_likert_active,1479,NA,NA,Strongly Agree,1,0,1,0,NA,NA,NA,NA,1,statements,Can't make a vaccine that quick.,1,17/05/2021 12:13,17/05/2021 12:18,332,Rarely,Rarely,31,Male,-99,"Undergraduate degree (BSc, BA)",61,1,Against,Against
61,1658859398666,26/07/2022 18:16:38,1658859398362,1,26/07/2022 19:16:38,93981,5,task-k2dt,NA,23317869,6842833,NA,complete,NA,62e02eb90072f3948b769dbb,mobile,Apple iPhone,iOS 15.5,Mobile Safari 15.5,375x667,667x325,NA,ITT Ratings,3,against,7,NA,NA,NA,NA,NA,ACCEPT,NA,NA,NA,NA,batch7hes,batch7hes,55,59,1,Screen 1,continueButton,response_rating_scale_likert_active,2834.000000000029,NA,NA,Strongly Disagree,1,0,1,0,NA,NA,NA,NA,1,statements,I want to be immunised against the virus,1,17/05/2021 12:30,17/05/2021 12:35,345,Most days,Most days,53,Female,-99,"GCSEs,Vocational Training / Apprenticeship",69,1,Against,For
62,1658859401943,26/07/2022 18:16:41,1658859401608,1,26/07/2022 19:16:41,93981,5,task-k2dt,NA,23317869,6842833,NA,complete,NA,62e02eb90072f3948b769dbb,mobile,Apple iPhone,iOS 15.5,Mobile Safari 15.5,375x667,667x325,NA,ITT Ratings,3,against,7,NA,NA,NA,NA,NA,ACCEPT,NA,NA,NA,NA,batch7hes,batch7hes,20,60,1,Screen 1,continueButton,response_rating_scale_likert_active,3219,NA,NA,Strongly Agree,1,0,1,0,NA,NA,NA,NA,1,statements,The research and development was too fast for a vaccine.,1,17/05/2021 12:08,17/05/2021 12:22,862,Rarely,Most months,20,Female,-99,A levels,63,2,Against,For
63,1658859404414,26/07/2022 18:16:44,1658859404074,1,26/07/2022 19:16:44,93981,5,task-k2dt,NA,23317869,6842833,NA,complete,NA,62e02eb90072f3948b769dbb,mobile,Apple iPhone,iOS 15.5,Mobile Safari 15.5,375x667,667x325,NA,ITT Ratings,3,against,7,NA,NA,NA,NA,NA,ACCEPT,NA,NA,NA,NA,batch7hes,batch7hes,13,61,1,Screen 1,continueButton,response_rating_scale_likert_active,2443.999999999971,NA,NA,Strongly Disagree,1,0,1,0,NA,NA,NA,NA,1,statements,It will fight covid in its path,1,17/05/2021 12:13,17/05/2021 12:20,381,Most weeks,Most months,36,Male,-99,A levels,62,1,Against,For
64,1658859410519,26/07/2022 18:16:50,1658859410229,1,26/07/2022 19:16:50,93981,5,task-k2dt,NA,23317869,6842833,NA,complete,NA,62e02eb90072f3948b769dbb,mobile,Apple iPhone,iOS 15.5,Mobile Safari 15.5,375x667,667x325,NA,ITT Ratings,3,against,7,NA,NA,NA,NA,NA,ACCEPT,NA,NA,NA,NA,batch7hes,batch7hes,21,62,1,Screen 1,continueButton,response_rating_scale_likert_active,6139,NA,NA,Strongly Agree,1,0,1,0,NA,NA,NA,NA,1,statements,The double dose doesn't make sense in terms of science.,1,17/05/2021 12:08,17/05/2021 12:22,862,Rarely,Most months,20,Female,-99,A levels,63,3,Against,For
65,1658859410661,26/07/2022 18:16:50,1658859410237,1,26/07/2022 19:16:50,93981,5,task-k2dt,NA,23317869,6842833,NA,complete,NA,62e02eb90072f3948b769dbb,mobile,Apple iPhone,iOS 15.5,Mobile Safari 15.5,375x667,667x325,NA,ITT Ratings,3,against,7,NA,NA,NA,NA,NA,ACCEPT,NA,NA,NA,NA,batch7hes,NA,NA,END TASK,NA,NA,NA,NA,189994,NA,NA,NA,NA,0,1,0,NA,NA,NA,NA,NA,NA,NA,NA,NA,NA,NA,NA,NA,NA,NA,NA,NA,NA,NA,NA,NA
1,1658860821041,26/07/2022 18:40:21,1658860820845,1,26/07/2022 19:40:20,93981,5,task-k2dt,NA,23318451,6843004,NA,complete,NA,62e034f871f0ea2e71c5cf5a,mobile,Apple iPhone,iOS 15.5,Mobile Safari 15.5,390x844,750x307,NA,ITT Ratings,3,against,7,NA,NA,NA,NA,NA,ACCEPT,NA,NA,NA,NA,batch7hes,NA,NA,BEGIN TASK,NA,NA,NA,NA,NA,NA,NA,NA,NA,0,1,0,NA,NA,NA,NA,NA,NA,NA,NA,NA,NA,NA,NA,NA,NA,NA,NA,NA,NA,NA,NA,NA
2,1658860826635,26/07/2022 18:40:26,1658860826506,1,26/07/2022 19:40:26,93981,5,task-k2dt,NA,23318451,6843004,NA,complete,NA,62e034f871f0ea2e71c5cf5a,mobile,Apple iPhone,iOS 15.5,Mobile Safari 15.5,390x844,750x307,NA,ITT Ratings,3,against,7,NA,NA,NA,NA,NA,ACCEPT,NA,NA,NA,NA,batch7hes,batch7hes,1,1,1,Screen 1,advancementZone,continue_button,5628.000000000002,NA,NA,NA,NA,0,1,0,NA,NA,NA,NA,NA,instructions,NA,NA,NA,NA,NA,NA,NA,NA,NA,NA,NA,NA,NA,NA,NA
3,1658860840456,26/07/2022 18:40:40,1658860840331,1,26/07/2022 19:40:40,93981,5,task-k2dt,NA,23318451,6843004,NA,complete,NA,62e034f871f0ea2e71c5cf5a,mobile,Apple iPhone,iOS 15.5,Mobile Safari 15.5,390x844,750x307,NA,ITT Ratings,3,against,7,NA,NA,NA,NA,NA,ACCEPT,NA,NA,NA,NA,batch7hes,batch7hes,56,1,1,Screen 1,continueButton,response_rating_scale_likert_active,13806.999999999998,NA,NA,Strongly Agree,1,0,1,0,NA,NA,NA,NA,1,statements,I want to protect someone who is vulnerable,1,17/05/2021 12:30,17/05/2021 12:35,345,Most days,Most days,53,Female,-99,"GCSEs,Vocational Training / Apprenticeship",69,2,Against,For
4,1658860844183,26/07/2022 18:40:44,1658860844073,1,26/07/2022 19:40:44,93981,5,task-k2dt,NA,23318451,6843004,NA,complete,NA,62e034f871f0ea2e71c5cf5a,mobile,Apple iPhone,iOS 15.5,Mobile Safari 15.5,390x844,750x307,NA,ITT Ratings,3,against,7,NA,NA,NA,NA,NA,ACCEPT,NA,NA,NA,NA,batch7hes,NA,NA,BEGIN TASK,NA,NA,NA,NA,NA,NA,NA,NA,NA,0,1,0,NA,NA,NA,NA,NA,NA,NA,NA,NA,NA,NA,NA,NA,NA,NA,NA,NA,NA,NA,NA,NA
5,1658860851313,26/07/2022 18:40:51,1658860851128,1,26/07/2022 19:40:51,93981,5,task-k2dt,NA,23318451,6843004,NA,complete,NA,62e034f871f0ea2e71c5cf5a,mobile,Apple iPhone,iOS 15.5,Mobile Safari 15.5,390x844,750x307,NA,ITT Ratings,3,against,7,NA,NA,NA,NA,NA,ACCEPT,NA,NA,NA,NA,batch7hes,batch7hes,60,2,1,Screen 1,continueButton,response_rating_scale_likert_active,7017,NA,NA,Neither Agree nor Disagree,1,0,1,0,NA,NA,NA,NA,1,statements,Because of what's in it,1,17/05/2021 12:18,17/05/2021 12:35,1078,Never,Never,34,Female,-99,No formal qualifications,70,3,Against,Against
6,1658860854776,26/07/2022 18:40:54,1658860854608,1,26/07/2022 19:40:54,93981,5,task-k2dt,NA,23318451,6843004,NA,complete,NA,62e034f871f0ea2e71c5cf5a,mobile,Apple iPhone,iOS 15.5,Mobile Safari 15.5,390x844,750x307,NA,ITT Ratings,3,against,7,NA,NA,NA,NA,NA,ACCEPT,NA,NA,NA,NA,batch7hes,batch7hes,10,3,1,Screen 1,continueButton,response_rating_scale_likert_active,3459,NA,NA,Agree,1,0,1,0,NA,NA,NA,NA,1,statements,Unsure of side effects,1,17/05/2021 12:13,17/05/2021 12:20,381,Most weeks,Most months,36,Male,-99,A levels,62,1,Against,Against
7,1658860858139,26/07/2022 18:40:58,1658860858062,1,26/07/2022 19:40:58,93981,5,task-k2dt,NA,23318451,6843004,NA,complete,NA,62e034f871f0ea2e71c5cf5a,mobile,Apple iPhone,iOS 15.5,Mobile Safari 15.5,390x844,750x307,NA,ITT Ratings,3,against,7,NA,NA,NA,NA,NA,ACCEPT,NA,NA,NA,NA,batch7hes,batch7hes,2,4,1,Screen 1,continueButton,response_rating_scale_likert_active,3433,NA,NA,Somewhat Agree,1,0,1,0,NA,NA,NA,NA,1,statements,We would like to check you are reading each argument carefully. Please select 'Somewhat Agree' for this answer,1,NA,NA,NA,NA,NA,NA,NA,NA,NA,NA,check1,NA,NA
8,1658860861330,26/07/2022 18:41:01,1658860861235,1,26/07/2022 19:41:01,93981,5,task-k2dt,NA,23318451,6843004,NA,complete,NA,62e034f871f0ea2e71c5cf5a,mobile,Apple iPhone,iOS 15.5,Mobile Safari 15.5,390x844,750x307,NA,ITT Ratings,3,against,7,NA,NA,NA,NA,NA,ACCEPT,NA,NA,NA,NA,batch7hes,batch7hes,29,5,1,Screen 1,continueButton,response_rating_scale_likert_active,3153,NA,NA,Strongly Agree,1,0,1,0,NA,NA,NA,NA,1,statements,It has not been developed long enough to see the reactions or effectiveness.,1,17/05/2021 12:11,17/05/2021 12:24,783,Most months,Most months,27,Female,-99,"Undergraduate degree (BSc, BA)",65,2,Against,Against
9,1658860864825,26/07/2022 18:41:04,1658860864700,1,26/07/2022 19:41:04,93981,5,task-k2dt,NA,23318451,6843004,NA,complete,NA,62e034f871f0ea2e71c5cf5a,mobile,Apple iPhone,iOS 15.5,Mobile Safari 15.5,390x844,750x307,NA,ITT Ratings,3,against,7,NA,NA,NA,NA,NA,ACCEPT,NA,NA,NA,NA,batch7hes,batch7hes,31,6,1,Screen 1,continueButton,response_rating_scale_likert_active,3449,NA,NA,Neither Agree nor Disagree,1,0,1,0,NA,NA,NA,NA,1,statements,Don't want to spread the virus,1,17/05/2021 12:11,17/05/2021 12:24,783,Most months,Most months,27,Female,-99,"Undergraduate degree (BSc, BA)",65,1,Against,For
10,1658860867376,26/07/2022 18:41:07,1658860867251,1,26/07/2022 19:41:07,93981,5,task-k2dt,NA,23318451,6843004,NA,complete,NA,62e034f871f0ea2e71c5cf5a,mobile,Apple iPhone,iOS 15.5,Mobile Safari 15.5,390x844,750x307,NA,ITT Ratings,3,against,7,NA,NA,NA,NA,NA,ACCEPT,NA,NA,NA,NA,batch7hes,batch7hes,22,7,1,Screen 1,continueButton,response_rating_scale_likert_active,2533,NA,NA,Strongly Agree,1,0,1,0,NA,NA,NA,NA,1,statements,Concern over a reaction to the vaccine,1,17/05/2021 12:03,17/05/2021 12:23,1164,Most weeks,Most days,34,Male,-99,A levels,64,1,Against,Against
11,1658860868615,26/07/2022 18:41:08,1658860868439,1,26/07/2022 19:41:08,93981,5,task-k2dt,NA,23318451,6843004,NA,complete,NA,62e034f871f0ea2e71c5cf5a,mobile,Apple iPhone,iOS 15.5,Mobile Safari 15.5,390x844,750x307,NA,ITT Ratings,3,against,7,NA,NA,NA,NA,NA,ACCEPT,NA,NA,NA,NA,batch7hes,batch7hes,40,8,1,Screen 1,continueButton,response_rating_scale_likert_active,1170,NA,NA,Strongly Agree,1,0,1,0,NA,NA,NA,NA,1,statements,Don't know the long term effects,1,17/05/2021 12:21,17/05/2021 12:33,726,Most months,A few times a year,21,Female,-99,A levels,67,1,Against,Against
12,1658860873224,26/07/2022 18:41:13,1658860873059,1,26/07/2022 19:41:13,93981,5,task-k2dt,NA,23318451,6843004,NA,complete,NA,62e034f871f0ea2e71c5cf5a,mobile,Apple iPhone,iOS 15.5,Mobile Safari 15.5,390x844,750x307,NA,ITT Ratings,3,against,7,NA,NA,NA,NA,NA,ACCEPT,NA,NA,NA,NA,batch7hes,batch7hes,19,9,1,Screen 1,continueButton,response_rating_scale_likert_active,4599,NA,NA,Strongly Agree,1,0,1,0,NA,NA,NA,NA,1,statements,There have been 7 people that have died from it as it caused them a rare blood clot disease.,1,17/05/2021 12:08,17/05/2021 12:22,862,Rarely,Most months,20,Female,-99,A levels,63,1,Against,For
13,1658860877216,26/07/2022 18:41:17,1658860877042,1,26/07/2022 19:41:17,93981,5,task-k2dt,NA,23318451,6843004,NA,complete,NA,62e034f871f0ea2e71c5cf5a,mobile,Apple iPhone,iOS 15.5,Mobile Safari 15.5,390x844,750x307,NA,ITT Ratings,3,against,7,NA,NA,NA,NA,NA,ACCEPT,NA,NA,NA,NA,batch7hes,batch7hes,30,10,1,Screen 1,continueButton,response_rating_scale_likert_active,3962.0000000000073,NA,NA,Strongly Agree,1,0,1,0,NA,NA,NA,NA,1,statements,There are natural ways to help boost the immune system and fight the virus instead of putting artificial substances into the body.,1,17/05/2021 12:11,17/05/2021 12:24,783,Most months,Most months,27,Female,-99,"Undergraduate degree (BSc, BA)",65,3,Against,Against
14,1658860878753,26/07/2022 18:41:18,1658860878561,1,26/07/2022 19:41:18,93981,5,task-k2dt,NA,23318451,6843004,NA,complete,NA,62e034f871f0ea2e71c5cf5a,mobile,Apple iPhone,iOS 15.5,Mobile Safari 15.5,390x844,750x307,NA,ITT Ratings,3,against,7,NA,NA,NA,NA,NA,ACCEPT,NA,NA,NA,NA,batch7hes,batch7hes,11,11,1,Screen 1,continueButton,response_rating_scale_likert_active,1502,NA,NA,Strongly Agree,1,0,1,0,NA,NA,NA,NA,1,statements,Vaccine was produced too quickly,1,17/05/2021 12:13,17/05/2021 12:20,381,Most weeks,Most months,36,Male,-99,A levels,62,2,Against,Against
15,1658860882014,26/07/2022 18:41:22,1658860881899,1,26/07/2022 19:41:21,93981,5,task-k2dt,NA,23318451,6843004,NA,complete,NA,62e034f871f0ea2e71c5cf5a,mobile,Apple iPhone,iOS 15.5,Mobile Safari 15.5,390x844,750x307,NA,ITT Ratings,3,against,7,NA,NA,NA,NA,NA,ACCEPT,NA,NA,NA,NA,batch7hes,batch7hes,6,12,1,Screen 1,continueButton,response_rating_scale_likert_active,3322,NA,NA,Neither Agree nor Disagree,1,0,1,0,NA,NA,NA,NA,1,statements,Telling us lies on how everything started out from the virus from day one.,1,17/05/2021 12:13,17/05/2021 12:18,332,Rarely,Rarely,31,Male,-99,"Undergraduate degree (BSc, BA)",61,3,Against,Against
16,1658860885507,26/07/2022 18:41:25,1658860885364,1,26/07/2022 19:41:25,93981,5,task-k2dt,NA,23318451,6843004,NA,complete,NA,62e034f871f0ea2e71c5cf5a,mobile,Apple iPhone,iOS 15.5,Mobile Safari 15.5,390x844,750x307,NA,ITT Ratings,3,against,7,NA,NA,NA,NA,NA,ACCEPT,NA,NA,NA,NA,batch7hes,batch7hes,12,13,1,Screen 1,continueButton,response_rating_scale_likert_active,3446,NA,NA,Somewhat Agree,1,0,1,0,NA,NA,NA,NA,1,statements,Why vaccinate healthy people against something they have never had,1,17/05/2021 12:13,17/05/2021 12:20,381,Most weeks,Most months,36,Male,-99,A levels,62,3,Against,Against
17,1658860889482,26/07/2022 18:41:29,1658860889403,1,26/07/2022 19:41:29,93981,5,task-k2dt,NA,23318451,6843004,NA,complete,NA,62e034f871f0ea2e71c5cf5a,mobile,Apple iPhone,iOS 15.5,Mobile Safari 15.5,390x844,750x307,NA,ITT Ratings,3,against,7,NA,NA,NA,NA,NA,ACCEPT,NA,NA,NA,NA,batch7hes,batch7hes,9,14,1,Screen 1,continueButton,response_rating_scale_likert_active,4022,NA,NA,Somewhat Agree,1,0,1,0,NA,NA,NA,NA,1,statements,To reduce the amount of deaths.,1,17/05/2021 12:13,17/05/2021 12:18,332,Rarely,Rarely,31,Male,-99,"Undergraduate degree (BSc, BA)",61,3,Against,For
18,1658860892373,26/07/2022 18:41:32,1658860892269,1,26/07/2022 19:41:32,93981,5,task-k2dt,NA,23318451,6843004,NA,complete,NA,62e034f871f0ea2e71c5cf5a,mobile,Apple iPhone,iOS 15.5,Mobile Safari 15.5,390x844,750x307,NA,ITT Ratings,3,against,7,NA,NA,NA,NA,NA,ACCEPT,NA,NA,NA,NA,batch7hes,batch7hes,5,15,1,Screen 1,continueButton,response_rating_scale_likert_active,2847,NA,NA,Neither Agree nor Disagree,1,0,1,0,NA,NA,NA,NA,1,statements,Don't trust the people who are in charge of creating a vaccine.,1,17/05/2021 12:13,17/05/2021 12:18,332,Rarely,Rarely,31,Male,-99,"Undergraduate degree (BSc, BA)",61,2,Against,Against
19,1658860895039,26/07/2022 18:41:35,1658860894900,1,26/07/2022 19:41:34,93981,5,task-k2dt,NA,23318451,6843004,NA,complete,NA,62e034f871f0ea2e71c5cf5a,mobile,Apple iPhone,iOS 15.5,Mobile Safari 15.5,390x844,750x307,NA,ITT Ratings,3,against,7,NA,NA,NA,NA,NA,ACCEPT,NA,NA,NA,NA,batch7hes,batch7hes,14,16,1,Screen 1,continueButton,response_rating_scale_likert_active,2615,NA,NA,Strongly Disagree,1,0,1,0,NA,NA,NA,NA,1,statements,I am protected against the disease,1,17/05/2021 12:13,17/05/2021 12:20,381,Most weeks,Most months,36,Male,-99,A levels,62,2,Against,For
20,1658860899549,26/07/2022 18:41:39,1658860898791,1,26/07/2022 19:41:38,93981,5,task-k2dt,NA,23318451,6843004,NA,complete,NA,62e034f871f0ea2e71c5cf5a,mobile,Apple iPhone,iOS 15.5,Mobile Safari 15.5,390x844,750x307,NA,ITT Ratings,3,against,7,NA,NA,NA,NA,NA,ACCEPT,NA,NA,NA,NA,batch7hes,batch7hes,27,17,1,Screen 1,continueButton,response_rating_scale_likert_active,3874,NA,NA,Strongly Disagree,1,0,1,0,NA,NA,NA,NA,1,statements,"Feel like there is no choice in the matter other than too have the vaccination to support friends, family etc",1,17/05/2021 12:03,17/05/2021 12:23,1164,Most weeks,Most days,34,Male,-99,A levels,64,3,Against,For
21,1658860901987,26/07/2022 18:41:41,1658860901890,1,26/07/2022 19:41:41,93981,5,task-k2dt,NA,23318451,6843004,NA,complete,NA,62e034f871f0ea2e71c5cf5a,mobile,Apple iPhone,iOS 15.5,Mobile Safari 15.5,390x844,750x307,NA,ITT Ratings,3,against,7,NA,NA,NA,NA,NA,ACCEPT,NA,NA,NA,NA,batch7hes,batch7hes,49,18,1,Screen 1,continueButton,response_rating_scale_likert_active,3084,NA,NA,Strongly Disagree,1,0,1,0,NA,NA,NA,NA,1,statements,I at risk with my medical condition,1,17/05/2021 12:22,17/05/2021 12:34,730,Once or twice a year,Most weeks,59,Male,-99,Vocational Training / Apprenticeship,68,1,Against,For
22,1658860903871,26/07/2022 18:41:43,1658860903872,1,26/07/2022 19:41:43,93981,5,task-k2dt,NA,23318451,6843004,NA,complete,NA,62e034f871f0ea2e71c5cf5a,mobile,Apple iPhone,iOS 15.5,Mobile Safari 15.5,390x844,750x307,NA,ITT Ratings,3,against,7,NA,NA,NA,NA,NA,ACCEPT,NA,NA,NA,NA,batch7hes,batch7hes,44,19,1,Screen 1,continueButton,response_rating_scale_likert_active,1967.0000000000073,NA,NA,Neither Agree nor Disagree,1,0,1,0,NA,NA,NA,NA,1,statements,Protect others from getting the virus,1,17/05/2021 12:21,17/05/2021 12:33,726,Most months,A few times a year,21,Female,-99,A levels,67,2,Against,For
23,1658860907316,26/07/2022 18:41:47,1658860907177,1,26/07/2022 19:41:47,93981,5,task-k2dt,NA,23318451,6843004,NA,complete,NA,62e034f871f0ea2e71c5cf5a,mobile,Apple iPhone,iOS 15.5,Mobile Safari 15.5,390x844,750x307,NA,ITT Ratings,3,against,7,NA,NA,NA,NA,NA,ACCEPT,NA,NA,NA,NA,batch7hes,batch7hes,62,20,1,Screen 1,continueButton,response_rating_scale_likert_active,3288.0000000000073,NA,NA,Strongly Disagree,1,0,1,0,NA,NA,NA,NA,1,statements,Because I believe the death rate,1,17/05/2021 12:18,17/05/2021 12:35,1078,Never,Never,34,Female,-99,No formal qualifications,70,2,Against,For
24,1658860908847,26/07/2022 18:41:48,1658860908678,1,26/07/2022 19:41:48,93981,5,task-k2dt,NA,23318451,6843004,NA,complete,NA,62e034f871f0ea2e71c5cf5a,mobile,Apple iPhone,iOS 15.5,Mobile Safari 15.5,390x844,750x307,NA,ITT Ratings,3,against,7,NA,NA,NA,NA,NA,ACCEPT,NA,NA,NA,NA,batch7hes,batch7hes,50,21,1,Screen 1,continueButton,response_rating_scale_likert_active,1481.9999999999927,NA,NA,Strongly Disagree,1,0,1,0,NA,NA,NA,NA,1,statements,I am an elderly person,1,17/05/2021 12:22,17/05/2021 12:34,730,Once or twice a year,Most weeks,59,Male,-99,Vocational Training / Apprenticeship,68,2,Against,For
25,1658860911714,26/07/2022 18:41:51,1658860911614,1,26/07/2022 19:41:51,93981,5,task-k2dt,NA,23318451,6843004,NA,complete,NA,62e034f871f0ea2e71c5cf5a,mobile,Apple iPhone,iOS 15.5,Mobile Safari 15.5,390x844,750x307,NA,ITT Ratings,3,against,7,NA,NA,NA,NA,NA,ACCEPT,NA,NA,NA,NA,batch7hes,batch7hes,45,22,1,Screen 1,continueButton,response_rating_scale_likert_active,2918.0000000000073,NA,NA,Strongly Disagree,1,0,1,0,NA,NA,NA,NA,1,statements,The best scientist have made it so it should be safe,1,17/05/2021 12:21,17/05/2021 12:33,726,Most months,A few times a year,21,Female,-99,A levels,67,3,Against,For
26,1658860914328,26/07/2022 18:41:54,1658860914232,1,26/07/2022 19:41:54,93981,5,task-k2dt,NA,23318451,6843004,NA,complete,NA,62e034f871f0ea2e71c5cf5a,mobile,Apple iPhone,iOS 15.5,Mobile Safari 15.5,390x844,750x307,NA,ITT Ratings,3,against,7,NA,NA,NA,NA,NA,ACCEPT,NA,NA,NA,NA,batch7hes,batch7hes,13,23,1,Screen 1,continueButton,response_rating_scale_likert_active,2595,NA,NA,Strongly Disagree,1,0,1,0,NA,NA,NA,NA,1,statements,It will fight covid in its path,1,17/05/2021 12:13,17/05/2021 12:20,381,Most weeks,Most months,36,Male,-99,A levels,62,1,Against,For
27,1658860916534,26/07/2022 18:41:56,1658860916362,1,26/07/2022 19:41:56,93981,5,task-k2dt,NA,23318451,6843004,NA,complete,NA,62e034f871f0ea2e71c5cf5a,mobile,Apple iPhone,iOS 15.5,Mobile Safari 15.5,390x844,750x307,NA,ITT Ratings,3,against,7,NA,NA,NA,NA,NA,ACCEPT,NA,NA,NA,NA,batch7hes,batch7hes,32,24,1,Screen 1,continueButton,response_rating_scale_likert_active,2113,NA,NA,Neither Agree nor Disagree,1,0,1,0,NA,NA,NA,NA,1,statements,Want to protect friends and family.,1,17/05/2021 12:11,17/05/2021 12:24,783,Most months,Most months,27,Female,-99,"Undergraduate degree (BSc, BA)",65,2,Against,For
28,1658860920110,26/07/2022 18:42:00,1658860920000,1,26/07/2022 19:42:00,93981,5,task-k2dt,NA,23318451,6843004,NA,complete,NA,62e034f871f0ea2e71c5cf5a,mobile,Apple iPhone,iOS 15.5,Mobile Safari 15.5,390x844,750x307,NA,ITT Ratings,3,against,7,NA,NA,NA,NA,NA,ACCEPT,NA,NA,NA,NA,batch7hes,batch7hes,26,25,1,Screen 1,continueButton,response_rating_scale_likert_active,3621,NA,NA,Disagree,1,0,1,0,NA,NA,NA,NA,1,statements,Full confidence in the safety of the vaccination program,1,17/05/2021 12:03,17/05/2021 12:23,1164,Most weeks,Most days,34,Male,-99,A levels,64,2,Against,For
29,1658860921756,26/07/2022 18:42:01,1658860921596,1,26/07/2022 19:42:01,93981,5,task-k2dt,NA,23318451,6843004,NA,complete,NA,62e034f871f0ea2e71c5cf5a,mobile,Apple iPhone,iOS 15.5,Mobile Safari 15.5,390x844,750x307,NA,ITT Ratings,3,against,7,NA,NA,NA,NA,NA,ACCEPT,NA,NA,NA,NA,batch7hes,batch7hes,35,26,1,Screen 1,continueButton,response_rating_scale_likert_active,1581,NA,NA,Strongly Agree,1,0,1,0,NA,NA,NA,NA,1,statements,Not enough time to develop the vaccine,1,17/05/2021 12:21,17/05/2021 12:30,549,Most months,Most months,27,Female,-99,A levels,66,2,Against,Against
30,1658860923699,26/07/2022 18:42:03,1658860923583,1,26/07/2022 19:42:03,93981,5,task-k2dt,NA,23318451,6843004,NA,complete,NA,62e034f871f0ea2e71c5cf5a,mobile,Apple iPhone,iOS 15.5,Mobile Safari 15.5,390x844,750x307,NA,ITT Ratings,3,against,7,NA,NA,NA,NA,NA,ACCEPT,NA,NA,NA,NA,batch7hes,batch7hes,54,27,1,Screen 1,continueButton,response_rating_scale_likert_active,1971,NA,NA,Strongly Agree,1,0,1,0,NA,NA,NA,NA,1,statements,I think it hasn't had enough time to develop,1,17/05/2021 12:30,17/05/2021 12:35,345,Most days,Most days,53,Female,-99,"GCSEs,Vocational Training / Apprenticeship",69,3,Against,Against
31,1658860926868,26/07/2022 18:42:06,1658860926771,1,26/07/2022 19:42:06,93981,5,task-k2dt,NA,23318451,6843004,NA,complete,NA,62e034f871f0ea2e71c5cf5a,mobile,Apple iPhone,iOS 15.5,Mobile Safari 15.5,390x844,750x307,NA,ITT Ratings,3,against,7,NA,NA,NA,NA,NA,ACCEPT,NA,NA,NA,NA,batch7hes,batch7hes,58,28,1,Screen 1,continueButton,response_rating_scale_likert_active,3169.0000000000146,NA,NA,Strongly Agree,1,0,1,0,NA,NA,NA,NA,1,statements,Professionals on tv have said it won't protect you from getting the virus or stop you spreading it to others,1,17/05/2021 12:18,17/05/2021 12:35,1078,Never,Never,34,Female,-99,No formal qualifications,70,1,Against,Against
32,1658860928199,26/07/2022 18:42:08,1658860928072,1,26/07/2022 19:42:08,93981,5,task-k2dt,NA,23318451,6843004,NA,complete,NA,62e034f871f0ea2e71c5cf5a,mobile,Apple iPhone,iOS 15.5,Mobile Safari 15.5,390x844,750x307,NA,ITT Ratings,3,against,7,NA,NA,NA,NA,NA,ACCEPT,NA,NA,NA,NA,batch7hes,batch7hes,53,29,1,Screen 1,continueButton,response_rating_scale_likert_active,1286,NA,NA,Strongly Agree,1,0,1,0,NA,NA,NA,NA,1,statements,I think it is ineffective,1,17/05/2021 12:30,17/05/2021 12:35,345,Most days,Most days,53,Female,-99,"GCSEs,Vocational Training / Apprenticeship",69,2,Against,Against
33,1658860930452,26/07/2022 18:42:10,1658860930370,1,26/07/2022 19:42:10,93981,5,task-k2dt,NA,23318451,6843004,NA,complete,NA,62e034f871f0ea2e71c5cf5a,mobile,Apple iPhone,iOS 15.5,Mobile Safari 15.5,390x844,750x307,NA,ITT Ratings,3,against,7,NA,NA,NA,NA,NA,ACCEPT,NA,NA,NA,NA,batch7hes,batch7hes,3,30,1,Screen 1,continueButton,response_rating_scale_likert_active,2275,NA,NA,Somewhat Disagree,1,0,1,0,NA,NA,NA,NA,1,statements,We would like to check you are reading each argument carefully. Please select 'Somewhat Disagree' for this answer,1,NA,NA,NA,NA,NA,NA,NA,NA,NA,NA,check2,NA,NA
34,1658860936497,26/07/2022 18:42:16,1658860936392,1,26/07/2022 19:42:16,93981,5,task-k2dt,NA,23318451,6843004,NA,complete,NA,62e034f871f0ea2e71c5cf5a,mobile,Apple iPhone,iOS 15.5,Mobile Safari 15.5,390x844,750x307,NA,ITT Ratings,3,against,7,NA,NA,NA,NA,NA,ACCEPT,NA,NA,NA,NA,batch7hes,batch7hes,48,31,1,Screen 1,continueButton,response_rating_scale_likert_active,6004.999999999985,NA,NA,Strongly Agree,1,0,1,0,NA,NA,NA,NA,1,statements,The vaccine only partial projects and you will always take it like the flu jab,1,17/05/2021 12:22,17/05/2021 12:34,730,Once or twice a year,Most weeks,59,Male,-99,Vocational Training / Apprenticeship,68,3,Against,Against
35,1658860938132,26/07/2022 18:42:18,1658860938023,1,26/07/2022 19:42:18,93981,5,task-k2dt,NA,23318451,6843004,NA,complete,NA,62e034f871f0ea2e71c5cf5a,mobile,Apple iPhone,iOS 15.5,Mobile Safari 15.5,390x844,750x307,NA,ITT Ratings,3,against,7,NA,NA,NA,NA,NA,ACCEPT,NA,NA,NA,NA,batch7hes,batch7hes,28,32,1,Screen 1,continueButton,response_rating_scale_likert_active,1611.0000000000146,NA,NA,Strongly Agree,1,0,1,0,NA,NA,NA,NA,1,statements,We do not know the side effects of it in a couple of years time,1,17/05/2021 12:11,17/05/2021 12:24,783,Most months,Most months,27,Female,-99,"Undergraduate degree (BSc, BA)",65,1,Against,Against
36,1658860940085,26/07/2022 18:42:20,1658860939949,1,26/07/2022 19:42:19,93981,5,task-k2dt,NA,23318451,6843004,NA,complete,NA,62e034f871f0ea2e71c5cf5a,mobile,Apple iPhone,iOS 15.5,Mobile Safari 15.5,390x844,750x307,NA,ITT Ratings,3,against,7,NA,NA,NA,NA,NA,ACCEPT,NA,NA,NA,NA,batch7hes,batch7hes,38,33,1,Screen 1,continueButton,response_rating_scale_likert_active,1910,NA,NA,Neither Agree nor Disagree,1,0,1,0,NA,NA,NA,NA,1,statements,Help prevent the spread,1,17/05/2021 12:21,17/05/2021 12:30,549,Most months,Most months,27,Female,-99,A levels,66,2,Against,For
37,1658860941409,26/07/2022 18:42:21,1658860941279,1,26/07/2022 19:42:21,93981,5,task-k2dt,NA,23318451,6843004,NA,complete,NA,62e034f871f0ea2e71c5cf5a,mobile,Apple iPhone,iOS 15.5,Mobile Safari 15.5,390x844,750x307,NA,ITT Ratings,3,against,7,NA,NA,NA,NA,NA,ACCEPT,NA,NA,NA,NA,batch7hes,batch7hes,34,34,1,Screen 1,continueButton,response_rating_scale_likert_active,1316.0000000000146,NA,NA,Strongly Agree,1,0,1,0,NA,NA,NA,NA,1,statements,It's not guaranteed full immunity,1,17/05/2021 12:21,17/05/2021 12:30,549,Most months,Most months,27,Female,-99,A levels,66,1,Against,Against
38,1658860946022,26/07/2022 18:42:26,1658860945933,1,26/07/2022 19:42:25,93981,5,task-k2dt,NA,23318451,6843004,NA,complete,NA,62e034f871f0ea2e71c5cf5a,mobile,Apple iPhone,iOS 15.5,Mobile Safari 15.5,390x844,750x307,NA,ITT Ratings,3,against,7,NA,NA,NA,NA,NA,ACCEPT,NA,NA,NA,NA,batch7hes,batch7hes,25,35,1,Screen 1,continueButton,response_rating_scale_likert_active,4634,NA,NA,Neither Agree nor Disagree,1,0,1,0,NA,NA,NA,NA,1,statements,Get life back to some sort of new normal with lifting restrictions on everyday life,1,17/05/2021 12:03,17/05/2021 12:23,1164,Most weeks,Most days,34,Male,-99,A levels,64,1,Against,For
39,1658860951140,26/07/2022 18:42:31,1658860951016,1,26/07/2022 19:42:31,93981,5,task-k2dt,NA,23318451,6843004,NA,complete,NA,62e034f871f0ea2e71c5cf5a,mobile,Apple iPhone,iOS 15.5,Mobile Safari 15.5,390x844,750x307,NA,ITT Ratings,3,against,7,NA,NA,NA,NA,NA,ACCEPT,NA,NA,NA,NA,batch7hes,batch7hes,7,36,1,Screen 1,continueButton,response_rating_scale_likert_active,5068,NA,NA,Strongly Disagree,1,0,1,0,NA,NA,NA,NA,1,statements,To be safe from the virus.,1,17/05/2021 12:13,17/05/2021 12:18,332,Rarely,Rarely,31,Male,-99,"Undergraduate degree (BSc, BA)",61,1,Against,For
40,1658860955648,26/07/2022 18:42:35,1658860955481,1,26/07/2022 19:42:35,93981,5,task-k2dt,NA,23318451,6843004,NA,complete,NA,62e034f871f0ea2e71c5cf5a,mobile,Apple iPhone,iOS 15.5,Mobile Safari 15.5,390x844,750x307,NA,ITT Ratings,3,against,7,NA,NA,NA,NA,NA,ACCEPT,NA,NA,NA,NA,batch7hes,batch7hes,17,37,1,Screen 1,continueButton,response_rating_scale_likert_active,4445,NA,NA,Agree,1,0,1,0,NA,NA,NA,NA,1,statements,Most vaccines have side effects such as headaches and muscle aches so it is the same with eh COVID vaccines.,1,17/05/2021 12:08,17/05/2021 12:22,862,Rarely,Most months,20,Female,-99,A levels,63,2,Against,Against
41,1658860957490,26/07/2022 18:42:37,1658860957332,1,26/07/2022 19:42:37,93981,5,task-k2dt,NA,23318451,6843004,NA,complete,NA,62e034f871f0ea2e71c5cf5a,mobile,Apple iPhone,iOS 15.5,Mobile Safari 15.5,390x844,750x307,NA,ITT Ratings,3,against,7,NA,NA,NA,NA,NA,ACCEPT,NA,NA,NA,NA,batch7hes,batch7hes,39,38,1,Screen 1,continueButton,response_rating_scale_likert_active,1834,NA,NA,Strongly Disagree,1,0,1,0,NA,NA,NA,NA,1,statements,To help protect against Underlying health conditions,1,17/05/2021 12:21,17/05/2021 12:30,549,Most months,Most months,27,Female,-99,A levels,66,3,Against,For
42,1658860963117,26/07/2022 18:42:43,1658860963020,1,26/07/2022 19:42:43,93981,5,task-k2dt,NA,23318451,6843004,NA,complete,NA,62e034f871f0ea2e71c5cf5a,mobile,Apple iPhone,iOS 15.5,Mobile Safari 15.5,390x844,750x307,NA,ITT Ratings,3,against,7,NA,NA,NA,NA,NA,ACCEPT,NA,NA,NA,NA,batch7hes,batch7hes,59,39,1,Screen 1,continueButton,response_rating_scale_likert_active,5674.000000000015,NA,NA,Somewhat Agree,1,0,1,0,NA,NA,NA,NA,1,statements,Vaccinations still won't return life back to normal,1,17/05/2021 12:18,17/05/2021 12:35,1078,Never,Never,34,Female,-99,No formal qualifications,70,2,Against,Against
43,1658860965476,26/07/2022 18:42:45,1658860965322,1,26/07/2022 19:42:45,93981,5,task-k2dt,NA,23318451,6843004,NA,complete,NA,62e034f871f0ea2e71c5cf5a,mobile,Apple iPhone,iOS 15.5,Mobile Safari 15.5,390x844,750x307,NA,ITT Ratings,3,against,7,NA,NA,NA,NA,NA,ACCEPT,NA,NA,NA,NA,batch7hes,batch7hes,4,40,1,Screen 1,continueButton,response_rating_scale_likert_active,2282.9999999999854,NA,NA,Strongly Agree,1,0,1,0,NA,NA,NA,NA,1,statements,Can't make a vaccine that quick.,1,17/05/2021 12:13,17/05/2021 12:18,332,Rarely,Rarely,31,Male,-99,"Undergraduate degree (BSc, BA)",61,1,Against,Against
44,1658860969160,26/07/2022 18:42:49,1658860969006,1,26/07/2022 19:42:49,93981,5,task-k2dt,NA,23318451,6843004,NA,complete,NA,62e034f871f0ea2e71c5cf5a,mobile,Apple iPhone,iOS 15.5,Mobile Safari 15.5,390x844,750x307,NA,ITT Ratings,3,against,7,NA,NA,NA,NA,NA,ACCEPT,NA,NA,NA,NA,batch7hes,batch7hes,21,41,1,Screen 1,continueButton,response_rating_scale_likert_active,3666,NA,NA,Strongly Agree,1,0,1,0,NA,NA,NA,NA,1,statements,The double dose doesn't make sense in terms of science.,1,17/05/2021 12:08,17/05/2021 12:22,862,Rarely,Most months,20,Female,-99,A levels,63,3,Against,For
45,1658860971524,26/07/2022 18:42:51,1658860971407,1,26/07/2022 19:42:51,93981,5,task-k2dt,NA,23318451,6843004,NA,complete,NA,62e034f871f0ea2e71c5cf5a,mobile,Apple iPhone,iOS 15.5,Mobile Safari 15.5,390x844,750x307,NA,ITT Ratings,3,against,7,NA,NA,NA,NA,NA,ACCEPT,NA,NA,NA,NA,batch7hes,batch7hes,24,42,1,Screen 1,continueButton,response_rating_scale_likert_active,2385.0000000000146,NA,NA,Strongly Agree,1,0,1,0,NA,NA,NA,NA,1,statements,General disbelief in the effectiveness of requirement to be vaccinated in the first place,1,17/05/2021 12:03,17/05/2021 12:23,1164,Most weeks,Most days,34,Male,-99,A levels,64,3,Against,Against
46,1658860975070,26/07/2022 18:42:55,1658860974996,1,26/07/2022 19:42:54,93981,5,task-k2dt,NA,23318451,6843004,NA,complete,NA,62e034f871f0ea2e71c5cf5a,mobile,Apple iPhone,iOS 15.5,Mobile Safari 15.5,390x844,750x307,NA,ITT Ratings,3,against,7,NA,NA,NA,NA,NA,ACCEPT,NA,NA,NA,NA,batch7hes,batch7hes,16,43,1,Screen 1,continueButton,response_rating_scale_likert_active,3571.000000000029,NA,NA,Neither Agree nor Disagree,1,0,1,0,NA,NA,NA,NA,1,statements,"Even though the development of the vaccine was fast, they have used RNA technology that took about 30 years to work effectively.",1,17/05/2021 12:08,17/05/2021 12:22,862,Rarely,Most months,20,Female,-99,A levels,63,1,Against,Against
47,1658860980628,26/07/2022 18:43:00,1658860980496,1,26/07/2022 19:43:00,93981,5,task-k2dt,NA,23318451,6843004,NA,complete,NA,62e034f871f0ea2e71c5cf5a,mobile,Apple iPhone,iOS 15.5,Mobile Safari 15.5,390x844,750x307,NA,ITT Ratings,3,against,7,NA,NA,NA,NA,NA,ACCEPT,NA,NA,NA,NA,batch7hes,batch7hes,41,44,1,Screen 1,continueButton,response_rating_scale_likert_active,5485.000000000029,NA,NA,Strongly Disagree,1,0,1,0,NA,NA,NA,NA,1,statements,It doesnt stop the spread just how much it impacts so young people wouldn't need it as much,1,17/05/2021 12:21,17/05/2021 12:33,726,Most months,A few times a year,21,Female,-99,A levels,67,2,Against,Against
48,1658860984121,26/07/2022 18:43:04,1658860983965,1,26/07/2022 19:43:03,93981,5,task-k2dt,NA,23318451,6843004,NA,complete,NA,62e034f871f0ea2e71c5cf5a,mobile,Apple iPhone,iOS 15.5,Mobile Safari 15.5,390x844,750x307,NA,ITT Ratings,3,against,7,NA,NA,NA,NA,NA,ACCEPT,NA,NA,NA,NA,batch7hes,batch7hes,36,45,1,Screen 1,continueButton,response_rating_scale_likert_active,3452,NA,NA,Strongly Agree,1,0,1,0,NA,NA,NA,NA,1,statements,Side effects or risks of taking the vaccine,1,17/05/2021 12:21,17/05/2021 12:30,549,Most months,Most months,27,Female,-99,A levels,66,3,Against,Against
49,1658860986575,26/07/2022 18:43:06,1658860986454,1,26/07/2022 19:43:06,93981,5,task-k2dt,NA,23318451,6843004,NA,complete,NA,62e034f871f0ea2e71c5cf5a,mobile,Apple iPhone,iOS 15.5,Mobile Safari 15.5,390x844,750x307,NA,ITT Ratings,3,against,7,NA,NA,NA,NA,NA,ACCEPT,NA,NA,NA,NA,batch7hes,batch7hes,51,46,1,Screen 1,continueButton,response_rating_scale_likert_active,2469.000000000029,NA,NA,Strongly Agree,1,0,1,0,NA,NA,NA,NA,1,statements,It is my choice to take it,1,17/05/2021 12:22,17/05/2021 12:34,730,Once or twice a year,Most weeks,59,Male,-99,Vocational Training / Apprenticeship,68,3,Against,For
50,1658860988174,26/07/2022 18:43:08,1658860988101,1,26/07/2022 19:43:08,93981,5,task-k2dt,NA,23318451,6843004,NA,complete,NA,62e034f871f0ea2e71c5cf5a,mobile,Apple iPhone,iOS 15.5,Mobile Safari 15.5,390x844,750x307,NA,ITT Ratings,3,against,7,NA,NA,NA,NA,NA,ACCEPT,NA,NA,NA,NA,batch7hes,batch7hes,47,47,1,Screen 1,continueButton,response_rating_scale_likert_active,1630,NA,NA,Strongly Agree,1,0,1,0,NA,NA,NA,NA,1,statements,Vaccine not fully tested,1,17/05/2021 12:22,17/05/2021 12:34,730,Once or twice a year,Most weeks,59,Male,-99,Vocational Training / Apprenticeship,68,2,Against,Against
51,1658860990970,26/07/2022 18:43:10,1658860990803,1,26/07/2022 19:43:10,93981,5,task-k2dt,NA,23318451,6843004,NA,complete,NA,62e034f871f0ea2e71c5cf5a,mobile,Apple iPhone,iOS 15.5,Mobile Safari 15.5,390x844,750x307,NA,ITT Ratings,3,against,7,NA,NA,NA,NA,NA,ACCEPT,NA,NA,NA,NA,batch7hes,batch7hes,15,48,1,Screen 1,continueButton,response_rating_scale_likert_active,2684,NA,NA,Strongly Disagree,1,0,1,0,NA,NA,NA,NA,1,statements,ItÈs in the countries best interest,1,17/05/2021 12:13,17/05/2021 12:20,381,Most weeks,Most months,36,Male,-99,A levels,62,3,Against,For
52,1658860995528,26/07/2022 18:43:15,1658860995460,1,26/07/2022 19:43:15,93981,5,task-k2dt,NA,23318451,6843004,NA,complete,NA,62e034f871f0ea2e71c5cf5a,mobile,Apple iPhone,iOS 15.5,Mobile Safari 15.5,390x844,750x307,NA,ITT Ratings,3,against,7,NA,NA,NA,NA,NA,ACCEPT,NA,NA,NA,NA,batch7hes,batch7hes,18,49,1,Screen 1,continueButton,response_rating_scale_likert_active,4638.000000000029,NA,NA,Neither Agree nor Disagree,1,0,1,0,NA,NA,NA,NA,1,statements,The fast development was due to China sharing the COVID shape to the world so that it would reduce the time to research.,1,17/05/2021 12:08,17/05/2021 12:22,862,Rarely,Most months,20,Female,-99,A levels,63,3,Against,Against
53,1658860999997,26/07/2022 18:43:19,1658860999841,1,26/07/2022 19:43:19,93981,5,task-k2dt,NA,23318451,6843004,NA,complete,NA,62e034f871f0ea2e71c5cf5a,mobile,Apple iPhone,iOS 15.5,Mobile Safari 15.5,390x844,750x307,NA,ITT Ratings,3,against,7,NA,NA,NA,NA,NA,ACCEPT,NA,NA,NA,NA,batch7hes,batch7hes,63,50,1,Screen 1,continueButton,response_rating_scale_likert_active,4363,NA,NA,Somewhat Agree,1,0,1,0,NA,NA,NA,NA,1,statements,Because I think life will return to normal but loads vaccinated and nothing changes,1,17/05/2021 12:18,17/05/2021 12:35,1078,Never,Never,34,Female,-99,No formal qualifications,70,3,Against,For
54,1658861002855,26/07/2022 18:43:22,1658861002760,1,26/07/2022 19:43:22,93981,5,task-k2dt,NA,23318451,6843004,NA,complete,NA,62e034f871f0ea2e71c5cf5a,mobile,Apple iPhone,iOS 15.5,Mobile Safari 15.5,390x844,750x307,NA,ITT Ratings,3,against,7,NA,NA,NA,NA,NA,ACCEPT,NA,NA,NA,NA,batch7hes,batch7hes,57,51,1,Screen 1,continueButton,response_rating_scale_likert_active,2899.999999999971,NA,NA,Neither Agree nor Disagree,1,0,1,0,NA,NA,NA,NA,1,statements,I want to help stop the spread of the virus,1,17/05/2021 12:30,17/05/2021 12:35,345,Most days,Most days,53,Female,-99,"GCSEs,Vocational Training / Apprenticeship",69,3,Against,For
55,1658861005383,26/07/2022 18:43:25,1658861005162,1,26/07/2022 19:43:25,93981,5,task-k2dt,NA,23318451,6843004,NA,complete,NA,62e034f871f0ea2e71c5cf5a,mobile,Apple iPhone,iOS 15.5,Mobile Safari 15.5,390x844,750x307,NA,ITT Ratings,3,against,7,NA,NA,NA,NA,NA,ACCEPT,NA,NA,NA,NA,batch7hes,batch7hes,52,52,1,Screen 1,continueButton,response_rating_scale_likert_active,2387,NA,NA,Somewhat Agree,1,0,1,0,NA,NA,NA,NA,1,statements,I think it is dangerous,1,17/05/2021 12:30,17/05/2021 12:35,345,Most days,Most days,53,Female,-99,"GCSEs,Vocational Training / Apprenticeship",69,1,Against,Against
56,1658861007355,26/07/2022 18:43:27,1658861007200,1,26/07/2022 19:43:27,93981,5,task-k2dt,NA,23318451,6843004,NA,complete,NA,62e034f871f0ea2e71c5cf5a,mobile,Apple iPhone,iOS 15.5,Mobile Safari 15.5,390x844,750x307,NA,ITT Ratings,3,against,7,NA,NA,NA,NA,NA,ACCEPT,NA,NA,NA,NA,batch7hes,batch7hes,43,53,1,Screen 1,continueButton,response_rating_scale_likert_active,2021,NA,NA,Strongly Disagree,1,0,1,0,NA,NA,NA,NA,1,statements,Protect yourself from getting the virus very badly,1,17/05/2021 12:21,17/05/2021 12:33,726,Most months,A few times a year,21,Female,-99,A levels,67,1,Against,For
57,1658861008695,26/07/2022 18:43:28,1658861008483,1,26/07/2022 19:43:28,93981,5,task-k2dt,NA,23318451,6843004,NA,complete,NA,62e034f871f0ea2e71c5cf5a,mobile,Apple iPhone,iOS 15.5,Mobile Safari 15.5,390x844,750x307,NA,ITT Ratings,3,against,7,NA,NA,NA,NA,NA,ACCEPT,NA,NA,NA,NA,batch7hes,batch7hes,46,54,1,Screen 1,continueButton,response_rating_scale_likert_active,1265,NA,NA,Strongly Agree,1,0,1,0,NA,NA,NA,NA,1,statements,It is my personal choice,1,17/05/2021 12:22,17/05/2021 12:34,730,Once or twice a year,Most weeks,59,Male,-99,Vocational Training / Apprenticeship,68,1,Against,Against
58,1658861011150,26/07/2022 18:43:31,1658861011003,1,26/07/2022 19:43:31,93981,5,task-k2dt,NA,23318451,6843004,NA,complete,NA,62e034f871f0ea2e71c5cf5a,mobile,Apple iPhone,iOS 15.5,Mobile Safari 15.5,390x844,750x307,NA,ITT Ratings,3,against,7,NA,NA,NA,NA,NA,ACCEPT,NA,NA,NA,NA,batch7hes,batch7hes,20,55,1,Screen 1,continueButton,response_rating_scale_likert_active,2503.000000000029,NA,NA,Strongly Agree,1,0,1,0,NA,NA,NA,NA,1,statements,The research and development was too fast for a vaccine.,1,17/05/2021 12:08,17/05/2021 12:22,862,Rarely,Most months,20,Female,-99,A levels,63,2,Against,For
59,1658861012577,26/07/2022 18:43:32,1658861012467,1,26/07/2022 19:43:32,93981,5,task-k2dt,NA,23318451,6843004,NA,complete,NA,62e034f871f0ea2e71c5cf5a,mobile,Apple iPhone,iOS 15.5,Mobile Safari 15.5,390x844,750x307,NA,ITT Ratings,3,against,7,NA,NA,NA,NA,NA,ACCEPT,NA,NA,NA,NA,batch7hes,batch7hes,37,56,1,Screen 1,continueButton,response_rating_scale_likert_active,1446.999999999971,NA,NA,Strongly Disagree,1,0,1,0,NA,NA,NA,NA,1,statements,Less likely to get it,1,17/05/2021 12:21,17/05/2021 12:30,549,Most months,Most months,27,Female,-99,A levels,66,1,Against,For
60,1658861014215,26/07/2022 18:43:34,1658861014054,1,26/07/2022 19:43:34,93981,5,task-k2dt,NA,23318451,6843004,NA,complete,NA,62e034f871f0ea2e71c5cf5a,mobile,Apple iPhone,iOS 15.5,Mobile Safari 15.5,390x844,750x307,NA,ITT Ratings,3,against,7,NA,NA,NA,NA,NA,ACCEPT,NA,NA,NA,NA,batch7hes,batch7hes,61,57,1,Screen 1,continueButton,response_rating_scale_likert_active,1569.999999999971,NA,NA,Strongly Disagree,1,0,1,0,NA,NA,NA,NA,1,statements,Because I believe the fear,1,17/05/2021 12:18,17/05/2021 12:35,1078,Never,Never,34,Female,-99,No formal qualifications,70,1,Against,For
61,1658861015444,26/07/2022 18:43:35,1658861015336,1,26/07/2022 19:43:35,93981,5,task-k2dt,NA,23318451,6843004,NA,complete,NA,62e034f871f0ea2e71c5cf5a,mobile,Apple iPhone,iOS 15.5,Mobile Safari 15.5,390x844,750x307,NA,ITT Ratings,3,against,7,NA,NA,NA,NA,NA,ACCEPT,NA,NA,NA,NA,batch7hes,batch7hes,23,58,1,Screen 1,continueButton,response_rating_scale_likert_active,1264,NA,NA,Strongly Agree,1,0,1,0,NA,NA,NA,NA,1,statements,Worried about chance of serious side affects,1,17/05/2021 12:03,17/05/2021 12:23,1164,Most weeks,Most days,34,Male,-99,A levels,64,2,Against,Against
62,1658861019441,26/07/2022 18:43:39,1658861019322,1,26/07/2022 19:43:39,93981,5,task-k2dt,NA,23318451,6843004,NA,complete,NA,62e034f871f0ea2e71c5cf5a,mobile,Apple iPhone,iOS 15.5,Mobile Safari 15.5,390x844,750x307,NA,ITT Ratings,3,against,7,NA,NA,NA,NA,NA,ACCEPT,NA,NA,NA,NA,batch7hes,batch7hes,33,59,1,Screen 1,continueButton,response_rating_scale_likert_active,3974.999999999971,NA,NA,Strongly Disagree,1,0,1,0,NA,NA,NA,NA,1,statements,"Because X Y Z (friends, family, celebrity, influencer etc) has had it, so it should be safe.",1,17/05/2021 12:11,17/05/2021 12:24,783,Most months,Most months,27,Female,-99,"Undergraduate degree (BSc, BA)",65,3,Against,For
63,1658861021597,26/07/2022 18:43:41,1658861021504,1,26/07/2022 19:43:41,93981,5,task-k2dt,NA,23318451,6843004,NA,complete,NA,62e034f871f0ea2e71c5cf5a,mobile,Apple iPhone,iOS 15.5,Mobile Safari 15.5,390x844,750x307,NA,ITT Ratings,3,against,7,NA,NA,NA,NA,NA,ACCEPT,NA,NA,NA,NA,batch7hes,batch7hes,55,60,1,Screen 1,continueButton,response_rating_scale_likert_active,2164,NA,NA,Strongly Disagree,1,0,1,0,NA,NA,NA,NA,1,statements,I want to be immunised against the virus,1,17/05/2021 12:30,17/05/2021 12:35,345,Most days,Most days,53,Female,-99,"GCSEs,Vocational Training / Apprenticeship",69,1,Against,For
64,1658861024167,26/07/2022 18:43:44,1658861024093,1,26/07/2022 19:43:44,93981,5,task-k2dt,NA,23318451,6843004,NA,complete,NA,62e034f871f0ea2e71c5cf5a,mobile,Apple iPhone,iOS 15.5,Mobile Safari 15.5,390x844,750x307,NA,ITT Ratings,3,against,7,NA,NA,NA,NA,NA,ACCEPT,NA,NA,NA,NA,batch7hes,batch7hes,42,61,1,Screen 1,continueButton,response_rating_scale_likert_active,2574,NA,NA,Strongly Agree,1,0,1,0,NA,NA,NA,NA,1,statements,It's scary to feel forced in to taking a vaccine that's just been developed,1,17/05/2021 12:21,17/05/2021 12:33,726,Most months,A few times a year,21,Female,-99,A levels,67,3,Against,Against
65,1658861026597,26/07/2022 18:43:46,1658861026508,1,26/07/2022 19:43:46,93981,5,task-k2dt,NA,23318451,6843004,NA,complete,NA,62e034f871f0ea2e71c5cf5a,mobile,Apple iPhone,iOS 15.5,Mobile Safari 15.5,390x844,750x307,NA,ITT Ratings,3,against,7,NA,NA,NA,NA,NA,ACCEPT,NA,NA,NA,NA,batch7hes,batch7hes,8,62,1,Screen 1,continueButton,response_rating_scale_likert_active,2404.000000000029,NA,NA,Neither Agree nor Disagree,1,0,1,0,NA,NA,NA,NA,1,statements,To be able to go out and see elderly relatives.,1,17/05/2021 12:13,17/05/2021 12:18,332,Rarely,Rarely,31,Male,-99,"Undergraduate degree (BSc, BA)",61,2,Against,For
66,1658861026737,26/07/2022 18:43:46,1658861026515,1,26/07/2022 19:43:46,93981,5,task-k2dt,NA,23318451,6843004,NA,complete,NA,62e034f871f0ea2e71c5cf5a,mobile,Apple iPhone,iOS 15.5,Mobile Safari 15.5,390x844,750x307,NA,ITT Ratings,3,against,7,NA,NA,NA,NA,NA,ACCEPT,NA,NA,NA,NA,batch7hes,NA,NA,END TASK,NA,NA,NA,NA,182442,NA,NA,NA,NA,0,1,0,NA,NA,NA,NA,NA,NA,NA,NA,NA,NA,NA,NA,NA,NA,NA,NA,NA,NA,NA,NA,NA
1,1658861774726,26/07/2022 18:56:14,1658861775456,1,26/07/2022 19:56:15,93981,5,task-k2dt,NA,23318780,6843091,NA,complete,NA,62e03861cc0cb5ccd49c260a,tablet,Samsung SM-T510,Android 11,Chrome 103.0.0.0,1280x800,1280x664,NA,ITT Ratings,3,against,7,NA,NA,NA,NA,NA,ACCEPT,NA,NA,NA,NA,batch7hes,NA,NA,BEGIN TASK,NA,NA,NA,NA,NA,NA,NA,NA,NA,0,1,0,NA,NA,NA,NA,NA,NA,NA,NA,NA,NA,NA,NA,NA,NA,NA,NA,NA,NA,NA,NA,NA
2,1658861785273,26/07/2022 18:56:25,1658861785989,1,26/07/2022 19:56:25,93981,5,task-k2dt,NA,23318780,6843091,NA,complete,NA,62e03861cc0cb5ccd49c260a,tablet,Samsung SM-T510,Android 11,Chrome 103.0.0.0,1280x800,1280x664,NA,ITT Ratings,3,against,7,NA,NA,NA,NA,NA,ACCEPT,NA,NA,NA,NA,batch7hes,batch7hes,1,1,1,Screen 1,advancementZone,continue_button,10393.600000023842,NA,NA,NA,NA,0,1,0,NA,NA,NA,NA,NA,instructions,NA,NA,NA,NA,NA,NA,NA,NA,NA,NA,NA,NA,NA,NA,NA
3,1658861803095,26/07/2022 18:56:43,1658861803864,1,26/07/2022 19:56:43,93981,5,task-k2dt,NA,23318780,6843091,NA,complete,NA,62e03861cc0cb5ccd49c260a,tablet,Samsung SM-T510,Android 11,Chrome 103.0.0.0,1280x800,1280x664,NA,ITT Ratings,3,against,7,NA,NA,NA,NA,NA,ACCEPT,NA,NA,NA,NA,batch7hes,batch7hes,16,1,1,Screen 1,continueButton,response_rating_scale_likert_active,17813.400000035763,NA,NA,Disagree,1,0,1,0,NA,NA,NA,NA,1,statements,"Even though the development of the vaccine was fast, they have used RNA technology that took about 30 years to work effectively.",1,17/05/2021 12:08,17/05/2021 12:22,862,Rarely,Most months,20,Female,-99,A levels,63,1,Against,Against
4,1658861813068,26/07/2022 18:56:53,1658861813867,1,26/07/2022 19:56:53,93981,5,task-k2dt,NA,23318780,6843091,NA,complete,NA,62e03861cc0cb5ccd49c260a,tablet,Samsung SM-T510,Android 11,Chrome 103.0.0.0,1280x800,1280x664,NA,ITT Ratings,3,against,7,NA,NA,NA,NA,NA,ACCEPT,NA,NA,NA,NA,batch7hes,batch7hes,3,2,1,Screen 1,continueButton,response_rating_scale_likert_active,9948.30000001192,NA,NA,Somewhat Disagree,1,0,1,0,NA,NA,NA,NA,1,statements,We would like to check you are reading each argument carefully. Please select 'Somewhat Disagree' for this answer,1,NA,NA,NA,NA,NA,NA,NA,NA,NA,NA,check2,NA,NA
5,1658861821601,26/07/2022 18:57:01,1658861822370,1,26/07/2022 19:57:02,93981,5,task-k2dt,NA,23318780,6843091,NA,complete,NA,62e03861cc0cb5ccd49c260a,tablet,Samsung SM-T510,Android 11,Chrome 103.0.0.0,1280x800,1280x664,NA,ITT Ratings,3,against,7,NA,NA,NA,NA,NA,ACCEPT,NA,NA,NA,NA,batch7hes,batch7hes,21,3,1,Screen 1,continueButton,response_rating_scale_likert_active,8448.699999988079,NA,NA,Somewhat Agree,1,0,1,0,NA,NA,NA,NA,1,statements,The double dose doesn't make sense in terms of science.,1,17/05/2021 12:08,17/05/2021 12:22,862,Rarely,Most months,20,Female,-99,A levels,63,3,Against,For
6,1658861830055,26/07/2022 18:57:10,1658861830847,1,26/07/2022 19:57:10,93981,5,task-k2dt,NA,23318780,6843091,NA,complete,NA,62e03861cc0cb5ccd49c260a,tablet,Samsung SM-T510,Android 11,Chrome 103.0.0.0,1280x800,1280x664,NA,ITT Ratings,3,against,7,NA,NA,NA,NA,NA,ACCEPT,NA,NA,NA,NA,batch7hes,batch7hes,54,4,1,Screen 1,continueButton,response_rating_scale_likert_active,8425.199999988079,NA,NA,Strongly Agree,1,0,1,0,NA,NA,NA,NA,1,statements,I think it hasn't had enough time to develop,1,17/05/2021 12:30,17/05/2021 12:35,345,Most days,Most days,53,Female,-99,"GCSEs,Vocational Training / Apprenticeship",69,3,Against,Against
7,1658861834477,26/07/2022 18:57:14,1658861835262,1,26/07/2022 19:57:15,93981,5,task-k2dt,NA,23318780,6843091,NA,complete,NA,62e03861cc0cb5ccd49c260a,tablet,Samsung SM-T510,Android 11,Chrome 103.0.0.0,1280x800,1280x664,NA,ITT Ratings,3,against,7,NA,NA,NA,NA,NA,ACCEPT,NA,NA,NA,NA,batch7hes,batch7hes,40,5,1,Screen 1,continueButton,response_rating_scale_likert_active,4368,NA,NA,Strongly Agree,1,0,1,0,NA,NA,NA,NA,1,statements,Don't know the long term effects,1,17/05/2021 12:21,17/05/2021 12:33,726,Most months,A few times a year,21,Female,-99,A levels,67,1,Against,Against
8,1658861844321,26/07/2022 18:57:24,1658861845103,1,26/07/2022 19:57:25,93981,5,task-k2dt,NA,23318780,6843091,NA,complete,NA,62e03861cc0cb5ccd49c260a,tablet,Samsung SM-T510,Android 11,Chrome 103.0.0.0,1280x800,1280x664,NA,ITT Ratings,3,against,7,NA,NA,NA,NA,NA,ACCEPT,NA,NA,NA,NA,batch7hes,batch7hes,6,6,1,Screen 1,continueButton,response_rating_scale_likert_active,9783.600000023842,NA,NA,Agree,1,0,1,0,NA,NA,NA,NA,1,statements,Telling us lies on how everything started out from the virus from day one.,1,17/05/2021 12:13,17/05/2021 12:18,332,Rarely,Rarely,31,Male,-99,"Undergraduate degree (BSc, BA)",61,3,Against,Against
9,1658861853015,26/07/2022 18:57:33,1658861853793,1,26/07/2022 19:57:33,93981,5,task-k2dt,NA,23318780,6843091,NA,complete,NA,62e03861cc0cb5ccd49c260a,tablet,Samsung SM-T510,Android 11,Chrome 103.0.0.0,1280x800,1280x664,NA,ITT Ratings,3,against,7,NA,NA,NA,NA,NA,ACCEPT,NA,NA,NA,NA,batch7hes,batch7hes,17,7,1,Screen 1,continueButton,response_rating_scale_likert_active,8639,NA,NA,Somewhat Agree,1,0,1,0,NA,NA,NA,NA,1,statements,Most vaccines have side effects such as headaches and muscle aches so it is the same with eh COVID vaccines.,1,17/05/2021 12:08,17/05/2021 12:22,862,Rarely,Most months,20,Female,-99,A levels,63,2,Against,Against
10,1658861859306,26/07/2022 18:57:39,1658861860016,1,26/07/2022 19:57:40,93981,5,task-k2dt,NA,23318780,6843091,NA,complete,NA,62e03861cc0cb5ccd49c260a,tablet,Samsung SM-T510,Android 11,Chrome 103.0.0.0,1280x800,1280x664,NA,ITT Ratings,3,against,7,NA,NA,NA,NA,NA,ACCEPT,NA,NA,NA,NA,batch7hes,batch7hes,59,8,1,Screen 1,continueButton,response_rating_scale_likert_active,6166.700000047684,NA,NA,Somewhat Agree,1,0,1,0,NA,NA,NA,NA,1,statements,Vaccinations still won't return life back to normal,1,17/05/2021 12:18,17/05/2021 12:35,1078,Never,Never,34,Female,-99,No formal qualifications,70,2,Against,Against
11,1658861864453,26/07/2022 18:57:44,1658861865233,1,26/07/2022 19:57:45,93981,5,task-k2dt,NA,23318780,6843091,NA,complete,NA,62e03861cc0cb5ccd49c260a,tablet,Samsung SM-T510,Android 11,Chrome 103.0.0.0,1280x800,1280x664,NA,ITT Ratings,3,against,7,NA,NA,NA,NA,NA,ACCEPT,NA,NA,NA,NA,batch7hes,batch7hes,10,9,1,Screen 1,continueButton,response_rating_scale_likert_active,5159.5,NA,NA,Somewhat Disagree,1,0,1,0,NA,NA,NA,NA,1,statements,Unsure of side effects,1,17/05/2021 12:13,17/05/2021 12:20,381,Most weeks,Most months,36,Male,-99,A levels,62,1,Against,Against
12,1658861873706,26/07/2022 18:57:53,1658861874490,1,26/07/2022 19:57:54,93981,5,task-k2dt,NA,23318780,6843091,NA,complete,NA,62e03861cc0cb5ccd49c260a,tablet,Samsung SM-T510,Android 11,Chrome 103.0.0.0,1280x800,1280x664,NA,ITT Ratings,3,against,7,NA,NA,NA,NA,NA,ACCEPT,NA,NA,NA,NA,batch7hes,batch7hes,27,10,1,Screen 1,continueButton,response_rating_scale_likert_active,9211.19999998808,NA,NA,Strongly Agree,1,0,1,0,NA,NA,NA,NA,1,statements,"Feel like there is no choice in the matter other than too have the vaccination to support friends, family etc",1,17/05/2021 12:03,17/05/2021 12:23,1164,Most weeks,Most days,34,Male,-99,A levels,64,3,Against,For
13,1658861879220,26/07/2022 18:57:59,1658861880002,1,26/07/2022 19:58:00,93981,5,task-k2dt,NA,23318780,6843091,NA,complete,NA,62e03861cc0cb5ccd49c260a,tablet,Samsung SM-T510,Android 11,Chrome 103.0.0.0,1280x800,1280x664,NA,ITT Ratings,3,against,7,NA,NA,NA,NA,NA,ACCEPT,NA,NA,NA,NA,batch7hes,batch7hes,14,11,1,Screen 1,continueButton,response_rating_scale_likert_active,5460.600000023842,NA,NA,Neither Agree nor Disagree,1,0,1,0,NA,NA,NA,NA,1,statements,I am protected against the disease,1,17/05/2021 12:13,17/05/2021 12:20,381,Most weeks,Most months,36,Male,-99,A levels,62,2,Against,For
14,1658861892980,26/07/2022 18:58:12,1658861893774,1,26/07/2022 19:58:13,93981,5,task-k2dt,NA,23318780,6843091,NA,complete,NA,62e03861cc0cb5ccd49c260a,tablet,Samsung SM-T510,Android 11,Chrome 103.0.0.0,1280x800,1280x664,NA,ITT Ratings,3,against,7,NA,NA,NA,NA,NA,ACCEPT,NA,NA,NA,NA,batch7hes,batch7hes,58,12,1,Screen 1,continueButton,response_rating_scale_likert_active,13710.599999964235,NA,NA,Somewhat Disagree,1,0,1,0,NA,NA,NA,NA,1,statements,Professionals on tv have said it won't protect you from getting the virus or stop you spreading it to others,1,17/05/2021 12:18,17/05/2021 12:35,1078,Never,Never,34,Female,-99,No formal qualifications,70,1,Against,Against
15,1658861905670,26/07/2022 18:58:25,1658861906455,1,26/07/2022 19:58:26,93981,5,task-k2dt,NA,23318780,6843091,NA,complete,NA,62e03861cc0cb5ccd49c260a,tablet,Samsung SM-T510,Android 11,Chrome 103.0.0.0,1280x800,1280x664,NA,ITT Ratings,3,against,7,NA,NA,NA,NA,NA,ACCEPT,NA,NA,NA,NA,batch7hes,batch7hes,48,13,1,Screen 1,continueButton,response_rating_scale_likert_active,12631.100000023842,NA,NA,Neither Agree nor Disagree,1,0,1,0,NA,NA,NA,NA,1,statements,The vaccine only partial projects and you will always take it like the flu jab,1,17/05/2021 12:22,17/05/2021 12:34,730,Once or twice a year,Most weeks,59,Male,-99,Vocational Training / Apprenticeship,68,3,Against,Against
16,1658861912495,26/07/2022 18:58:32,1658861913284,1,26/07/2022 19:58:33,93981,5,task-k2dt,NA,23318780,6843091,NA,complete,NA,62e03861cc0cb5ccd49c260a,tablet,Samsung SM-T510,Android 11,Chrome 103.0.0.0,1280x800,1280x664,NA,ITT Ratings,3,against,7,NA,NA,NA,NA,NA,ACCEPT,NA,NA,NA,NA,batch7hes,batch7hes,45,14,1,Screen 1,continueButton,response_rating_scale_likert_active,6771.300000011921,NA,NA,Strongly Disagree,1,0,1,0,NA,NA,NA,NA,1,statements,The best scientist have made it so it should be safe,1,17/05/2021 12:21,17/05/2021 12:33,726,Most months,A few times a year,21,Female,-99,A levels,67,3,Against,For
17,1658861920107,26/07/2022 18:58:40,1658861920902,1,26/07/2022 19:58:40,93981,5,task-k2dt,NA,23318780,6843091,NA,complete,NA,62e03861cc0cb5ccd49c260a,tablet,Samsung SM-T510,Android 11,Chrome 103.0.0.0,1280x800,1280x664,NA,ITT Ratings,3,against,7,NA,NA,NA,NA,NA,ACCEPT,NA,NA,NA,NA,batch7hes,batch7hes,13,15,1,Screen 1,continueButton,response_rating_scale_likert_active,7567.099999964237,NA,NA,Neither Agree nor Disagree,1,0,1,0,NA,NA,NA,NA,1,statements,It will fight covid in its path,1,17/05/2021 12:13,17/05/2021 12:20,381,Most weeks,Most months,36,Male,-99,A levels,62,1,Against,For
18,1658861933549,26/07/2022 18:58:53,1658861934332,1,26/07/2022 19:58:54,93981,5,task-k2dt,NA,23318780,6843091,NA,complete,NA,62e03861cc0cb5ccd49c260a,tablet,Samsung SM-T510,Android 11,Chrome 103.0.0.0,1280x800,1280x664,NA,ITT Ratings,3,against,7,NA,NA,NA,NA,NA,ACCEPT,NA,NA,NA,NA,batch7hes,batch7hes,25,16,1,Screen 1,continueButton,response_rating_scale_likert_active,13384.399999976158,NA,NA,Agree,1,0,1,0,NA,NA,NA,NA,1,statements,Get life back to some sort of new normal with lifting restrictions on everyday life,1,17/05/2021 12:03,17/05/2021 12:23,1164,Most weeks,Most days,34,Male,-99,A levels,64,1,Against,For
19,1658861943066,26/07/2022 18:59:03,1658861943855,1,26/07/2022 19:59:03,93981,5,task-k2dt,NA,23318780,6843091,NA,complete,NA,62e03861cc0cb5ccd49c260a,tablet,Samsung SM-T510,Android 11,Chrome 103.0.0.0,1280x800,1280x664,NA,ITT Ratings,3,against,7,NA,NA,NA,NA,NA,ACCEPT,NA,NA,NA,NA,batch7hes,batch7hes,28,17,1,Screen 1,continueButton,response_rating_scale_likert_active,9473.399999976158,NA,NA,Strongly Agree,1,0,1,0,NA,NA,NA,NA,1,statements,We do not know the side effects of it in a couple of years time,1,17/05/2021 12:11,17/05/2021 12:24,783,Most months,Most months,27,Female,-99,"Undergraduate degree (BSc, BA)",65,1,Against,Against
20,1658861949988,26/07/2022 18:59:09,1658861950776,1,26/07/2022 19:59:10,93981,5,task-k2dt,NA,23318780,6843091,NA,complete,NA,62e03861cc0cb5ccd49c260a,tablet,Samsung SM-T510,Android 11,Chrome 103.0.0.0,1280x800,1280x664,NA,ITT Ratings,3,against,7,NA,NA,NA,NA,NA,ACCEPT,NA,NA,NA,NA,batch7hes,batch7hes,41,18,1,Screen 1,continueButton,response_rating_scale_likert_active,6865.200000047684,NA,NA,Agree,1,0,1,0,NA,NA,NA,NA,1,statements,It doesnt stop the spread just how much it impacts so young people wouldn't need it as much,1,17/05/2021 12:21,17/05/2021 12:33,726,Most months,A few times a year,21,Female,-99,A levels,67,2,Against,Against
21,1658861956166,26/07/2022 18:59:16,1658861956959,1,26/07/2022 19:59:16,93981,5,task-k2dt,NA,23318780,6843091,NA,complete,NA,62e03861cc0cb5ccd49c260a,tablet,Samsung SM-T510,Android 11,Chrome 103.0.0.0,1280x800,1280x664,NA,ITT Ratings,3,against,7,NA,NA,NA,NA,NA,ACCEPT,NA,NA,NA,NA,batch7hes,batch7hes,42,19,1,Screen 1,continueButton,response_rating_scale_likert_active,6132.900000035763,NA,NA,Strongly Agree,1,0,1,0,NA,NA,NA,NA,1,statements,It's scary to feel forced in to taking a vaccine that's just been developed,1,17/05/2021 12:21,17/05/2021 12:33,726,Most months,A few times a year,21,Female,-99,A levels,67,3,Against,Against
22,1658861960131,26/07/2022 18:59:20,1658861960917,1,26/07/2022 19:59:20,93981,5,task-k2dt,NA,23318780,6843091,NA,complete,NA,62e03861cc0cb5ccd49c260a,tablet,Samsung SM-T510,Android 11,Chrome 103.0.0.0,1280x800,1280x664,NA,ITT Ratings,3,against,7,NA,NA,NA,NA,NA,ACCEPT,NA,NA,NA,NA,batch7hes,batch7hes,31,20,1,Screen 1,continueButton,response_rating_scale_likert_active,3912.399999976158,NA,NA,Agree,1,0,1,0,NA,NA,NA,NA,1,statements,Don't want to spread the virus,1,17/05/2021 12:11,17/05/2021 12:24,783,Most months,Most months,27,Female,-99,"Undergraduate degree (BSc, BA)",65,1,Against,For
23,1658861962935,26/07/2022 18:59:22,1658861963730,1,26/07/2022 19:59:23,93981,5,task-k2dt,NA,23318780,6843091,NA,complete,NA,62e03861cc0cb5ccd49c260a,tablet,Samsung SM-T510,Android 11,Chrome 103.0.0.0,1280x800,1280x664,NA,ITT Ratings,3,against,7,NA,NA,NA,NA,NA,ACCEPT,NA,NA,NA,NA,batch7hes,batch7hes,46,21,1,Screen 1,continueButton,response_rating_scale_likert_active,2768.900000035763,NA,NA,Strongly Agree,1,0,1,0,NA,NA,NA,NA,1,statements,It is my personal choice,1,17/05/2021 12:22,17/05/2021 12:34,730,Once or twice a year,Most weeks,59,Male,-99,Vocational Training / Apprenticeship,68,1,Against,Against
24,1658861972556,26/07/2022 18:59:32,1658861973337,1,26/07/2022 19:59:33,93981,5,task-k2dt,NA,23318780,6843091,NA,complete,NA,62e03861cc0cb5ccd49c260a,tablet,Samsung SM-T510,Android 11,Chrome 103.0.0.0,1280x800,1280x664,NA,ITT Ratings,3,against,7,NA,NA,NA,NA,NA,ACCEPT,NA,NA,NA,NA,batch7hes,batch7hes,8,22,1,Screen 1,continueButton,response_rating_scale_likert_active,9560.400000035765,NA,NA,Agree,1,0,1,0,NA,NA,NA,NA,1,statements,To be able to go out and see elderly relatives.,1,17/05/2021 12:13,17/05/2021 12:18,332,Rarely,Rarely,31,Male,-99,"Undergraduate degree (BSc, BA)",61,2,Against,For
25,1658861988628,26/07/2022 18:59:48,1658861989421,1,26/07/2022 19:59:49,93981,5,task-k2dt,NA,23318780,6843091,NA,complete,NA,62e03861cc0cb5ccd49c260a,tablet,Samsung SM-T510,Android 11,Chrome 103.0.0.0,1280x800,1280x664,NA,ITT Ratings,3,against,7,NA,NA,NA,NA,NA,ACCEPT,NA,NA,NA,NA,batch7hes,batch7hes,44,23,1,Screen 1,continueButton,response_rating_scale_likert_active,16022,NA,NA,Disagree,1,0,1,0,NA,NA,NA,NA,1,statements,Protect others from getting the virus,1,17/05/2021 12:21,17/05/2021 12:33,726,Most months,A few times a year,21,Female,-99,A levels,67,2,Against,For
26,1658861994699,26/07/2022 18:59:54,1658861995484,1,26/07/2022 19:59:55,93981,5,task-k2dt,NA,23318780,6843091,NA,complete,NA,62e03861cc0cb5ccd49c260a,tablet,Samsung SM-T510,Android 11,Chrome 103.0.0.0,1280x800,1280x664,NA,ITT Ratings,3,against,7,NA,NA,NA,NA,NA,ACCEPT,NA,NA,NA,NA,batch7hes,batch7hes,47,24,1,Screen 1,continueButton,response_rating_scale_likert_active,6014.100000023842,NA,NA,Strongly Agree,1,0,1,0,NA,NA,NA,NA,1,statements,Vaccine not fully tested,1,17/05/2021 12:22,17/05/2021 12:34,730,Once or twice a year,Most weeks,59,Male,-99,Vocational Training / Apprenticeship,68,2,Against,Against
27,1658861999789,26/07/2022 18:59:59,1658862000568,1,26/07/2022 20:00:00,93981,5,task-k2dt,NA,23318780,6843091,NA,complete,NA,62e03861cc0cb5ccd49c260a,tablet,Samsung SM-T510,Android 11,Chrome 103.0.0.0,1280x800,1280x664,NA,ITT Ratings,3,against,7,NA,NA,NA,NA,NA,ACCEPT,NA,NA,NA,NA,batch7hes,batch7hes,53,25,1,Screen 1,continueButton,response_rating_scale_likert_active,5038.899999976158,NA,NA,Somewhat Agree,1,0,1,0,NA,NA,NA,NA,1,statements,I think it is ineffective,1,17/05/2021 12:30,17/05/2021 12:35,345,Most days,Most days,53,Female,-99,"GCSEs,Vocational Training / Apprenticeship",69,2,Against,Against
28,1658862005239,26/07/2022 19:00:05,1658862006024,1,26/07/2022 20:00:06,93981,5,task-k2dt,NA,23318780,6843091,NA,complete,NA,62e03861cc0cb5ccd49c260a,tablet,Samsung SM-T510,Android 11,Chrome 103.0.0.0,1280x800,1280x664,NA,ITT Ratings,3,against,7,NA,NA,NA,NA,NA,ACCEPT,NA,NA,NA,NA,batch7hes,batch7hes,35,26,1,Screen 1,continueButton,response_rating_scale_likert_active,5407.5,NA,NA,Somewhat Agree,1,0,1,0,NA,NA,NA,NA,1,statements,Not enough time to develop the vaccine,1,17/05/2021 12:21,17/05/2021 12:30,549,Most months,Most months,27,Female,-99,A levels,66,2,Against,Against
29,1658862013739,26/07/2022 19:00:13,1658862014522,1,26/07/2022 20:00:14,93981,5,task-k2dt,NA,23318780,6843091,NA,complete,NA,62e03861cc0cb5ccd49c260a,tablet,Samsung SM-T510,Android 11,Chrome 103.0.0.0,1280x800,1280x664,NA,ITT Ratings,3,against,7,NA,NA,NA,NA,NA,ACCEPT,NA,NA,NA,NA,batch7hes,batch7hes,49,27,1,Screen 1,continueButton,response_rating_scale_likert_active,8452.899999976158,NA,NA,Somewhat Agree,1,0,1,0,NA,NA,NA,NA,1,statements,I at risk with my medical condition,1,17/05/2021 12:22,17/05/2021 12:34,730,Once or twice a year,Most weeks,59,Male,-99,Vocational Training / Apprenticeship,68,1,Against,For
30,1658862017503,26/07/2022 19:00:17,1658862018281,1,26/07/2022 20:00:18,93981,5,task-k2dt,NA,23318780,6843091,NA,complete,NA,62e03861cc0cb5ccd49c260a,tablet,Samsung SM-T510,Android 11,Chrome 103.0.0.0,1280x800,1280x664,NA,ITT Ratings,3,against,7,NA,NA,NA,NA,NA,ACCEPT,NA,NA,NA,NA,batch7hes,batch7hes,51,28,1,Screen 1,continueButton,response_rating_scale_likert_active,3712.799999952316,NA,NA,Strongly Agree,1,0,1,0,NA,NA,NA,NA,1,statements,It is my choice to take it,1,17/05/2021 12:22,17/05/2021 12:34,730,Once or twice a year,Most weeks,59,Male,-99,Vocational Training / Apprenticeship,68,3,Against,For
31,1658862022662,26/07/2022 19:00:22,1658862023440,1,26/07/2022 20:00:23,93981,5,task-k2dt,NA,23318780,6843091,NA,complete,NA,62e03861cc0cb5ccd49c260a,tablet,Samsung SM-T510,Android 11,Chrome 103.0.0.0,1280x800,1280x664,NA,ITT Ratings,3,against,7,NA,NA,NA,NA,NA,ACCEPT,NA,NA,NA,NA,batch7hes,batch7hes,9,29,1,Screen 1,continueButton,response_rating_scale_likert_active,5110.5,NA,NA,Somewhat Agree,1,0,1,0,NA,NA,NA,NA,1,statements,To reduce the amount of deaths.,1,17/05/2021 12:13,17/05/2021 12:18,332,Rarely,Rarely,31,Male,-99,"Undergraduate degree (BSc, BA)",61,3,Against,For
32,1658862026426,26/07/2022 19:00:26,1658862027204,1,26/07/2022 20:00:27,93981,5,task-k2dt,NA,23318780,6843091,NA,complete,NA,62e03861cc0cb5ccd49c260a,tablet,Samsung SM-T510,Android 11,Chrome 103.0.0.0,1280x800,1280x664,NA,ITT Ratings,3,against,7,NA,NA,NA,NA,NA,ACCEPT,NA,NA,NA,NA,batch7hes,batch7hes,60,30,1,Screen 1,continueButton,response_rating_scale_likert_active,3717.5,NA,NA,Neither Agree nor Disagree,1,0,1,0,NA,NA,NA,NA,1,statements,Because of what's in it,1,17/05/2021 12:18,17/05/2021 12:35,1078,Never,Never,34,Female,-99,No formal qualifications,70,3,Against,Against
33,1658862034541,26/07/2022 19:00:34,1658862035321,1,26/07/2022 20:00:35,93981,5,task-k2dt,NA,23318780,6843091,NA,complete,NA,62e03861cc0cb5ccd49c260a,tablet,Samsung SM-T510,Android 11,Chrome 103.0.0.0,1280x800,1280x664,NA,ITT Ratings,3,against,7,NA,NA,NA,NA,NA,ACCEPT,NA,NA,NA,NA,batch7hes,batch7hes,61,31,1,Screen 1,continueButton,response_rating_scale_likert_active,8066,NA,NA,Somewhat Agree,1,0,1,0,NA,NA,NA,NA,1,statements,Because I believe the fear,1,17/05/2021 12:18,17/05/2021 12:35,1078,Never,Never,34,Female,-99,No formal qualifications,70,1,Against,For
34,1658862039008,26/07/2022 19:00:39,1658862039781,1,26/07/2022 20:00:39,93981,5,task-k2dt,NA,23318780,6843091,NA,complete,NA,62e03861cc0cb5ccd49c260a,tablet,Samsung SM-T510,Android 11,Chrome 103.0.0.0,1280x800,1280x664,NA,ITT Ratings,3,against,7,NA,NA,NA,NA,NA,ACCEPT,NA,NA,NA,NA,batch7hes,batch7hes,38,32,1,Screen 1,continueButton,response_rating_scale_likert_active,4409.399999976158,NA,NA,Somewhat Disagree,1,0,1,0,NA,NA,NA,NA,1,statements,Help prevent the spread,1,17/05/2021 12:21,17/05/2021 12:30,549,Most months,Most months,27,Female,-99,A levels,66,2,Against,For
35,1658862043039,26/07/2022 19:00:43,1658862043813,1,26/07/2022 20:00:43,93981,5,task-k2dt,NA,23318780,6843091,NA,complete,NA,62e03861cc0cb5ccd49c260a,tablet,Samsung SM-T510,Android 11,Chrome 103.0.0.0,1280x800,1280x664,NA,ITT Ratings,3,against,7,NA,NA,NA,NA,NA,ACCEPT,NA,NA,NA,NA,batch7hes,batch7hes,52,33,1,Screen 1,continueButton,response_rating_scale_likert_active,3976.299999952316,NA,NA,Agree,1,0,1,0,NA,NA,NA,NA,1,statements,I think it is dangerous,1,17/05/2021 12:30,17/05/2021 12:35,345,Most days,Most days,53,Female,-99,"GCSEs,Vocational Training / Apprenticeship",69,1,Against,Against
36,1658862049586,26/07/2022 19:00:49,1658862050371,1,26/07/2022 20:00:50,93981,5,task-k2dt,NA,23318780,6843091,NA,complete,NA,62e03861cc0cb5ccd49c260a,tablet,Samsung SM-T510,Android 11,Chrome 103.0.0.0,1280x800,1280x664,NA,ITT Ratings,3,against,7,NA,NA,NA,NA,NA,ACCEPT,NA,NA,NA,NA,batch7hes,batch7hes,57,34,1,Screen 1,continueButton,response_rating_scale_likert_active,6514.5,NA,NA,Somewhat Agree,1,0,1,0,NA,NA,NA,NA,1,statements,I want to help stop the spread of the virus,1,17/05/2021 12:30,17/05/2021 12:35,345,Most days,Most days,53,Female,-99,"GCSEs,Vocational Training / Apprenticeship",69,3,Against,For
