Event.Index,UTC.Timestamp,UTC.Date,Local.Timestamp,Local.Timezone,Local.Date,Experiment.ID,Experiment.Version,Tree.Node.Key,Repeat.Key,Schedule.ID,Participant.Private.ID,Participant.Starting.Group,Participant.Status,Participant.Completion.Code,Participant.External.Session.ID,Participant.Device.Type,Participant.Device,Participant.OS,Participant.Browser,Participant.Monitor.Size,Participant.Viewport.Size,Checkpoint,Task.Name,Task.Version,branch.69an,randomiser.8vg2,quota.bqtt,quota.rycs,quota.wtfi,quota.usve,quota.zgic,quota.f3yz,quota.r9vy,quota.tfqq,quota.3dga,quota.dtj6,Spreadsheet,Spreadsheet.Name,Spreadsheet.Row,Trial.Number,Screen.Number,Screen.Name,Zone.Name,Zone.Type,Reaction.Time,Reaction.Onset,Response.Type,Response,Attempt,Correct,Incorrect,Dishonest,X.Coordinate,Y.Coordinate,Timed.Out,randomise_blocks,randomise_trials,display,Arguments,ShowProgressBar,StartDate,EndDate,Status,prolif_check,discuss_1,read_1,age,gender,gender_4_TEXT,edu,condition,ID,arg_ID,Position,Arg_Position
1,1659954718156,08/08/2022 10:31:58,1659954717265,1,08/08/2022 11:31:57,94118,2,task-net4,NA,23522067,6893591,NA,complete,NA,62f0e5fc6dd1e076c264e153,computer,Desktop or Laptop,Windows 7,Chrome 103.0.0.0,1366x768,1366x657,NA,ITT Ratings,2,against,8,NA,NA,NA,NA,NA,NA,ACCEPT,NA,NA,NA,batch8pro,NA,NA,BEGIN TASK,NA,NA,NA,NA,NA,NA,NA,NA,NA,0,1,0,NA,NA,NA,NA,NA,NA,NA,NA,NA,NA,NA,NA,NA,NA,NA,NA,NA,NA,NA,NA,NA,NA,NA
2,1659954811078,08/08/2022 10:33:31,1659954810217,1,08/08/2022 11:33:30,94118,2,task-net4,NA,23522067,6893591,NA,complete,NA,62f0e5fc6dd1e076c264e153,computer,Desktop or Laptop,Windows 7,Chrome 103.0.0.0,1366x768,1366x657,NA,ITT Ratings,2,against,8,NA,NA,NA,NA,NA,NA,ACCEPT,NA,NA,NA,batch8pro,batch8pro,1,1,1,Screen 1,advancementZone,continue_button,92874.59999999404,NA,NA,NA,NA,0,1,0,NA,NA,NA,NA,NA,instructions,NA,NA,NA,NA,NA,NA,NA,NA,NA,NA,NA,NA,NA,NA,NA,NA,NA
3,1659954819128,08/08/2022 10:33:39,1659954818273,1,08/08/2022 11:33:38,94118,2,task-net4,NA,23522067,6893591,NA,complete,NA,62f0e5fc6dd1e076c264e153,computer,Desktop or Laptop,Windows 7,Chrome 103.0.0.0,1366x768,1366x657,NA,ITT Ratings,2,against,8,NA,NA,NA,NA,NA,NA,ACCEPT,NA,NA,NA,batch8pro,batch8pro,38,1,1,Screen 1,continueButton,response_rating_scale_likert_active,8003.899999991059,NA,NA,Somewhat Agree,1,0,1,0,NA,NA,NA,NA,1,statements,To preserve the life of others,1,17/06/2021 12:57,17/06/2021 13:04,IP Address,For (I feel positively about the vaccines),Rarely,Most months,26,Male,NA,"Undergraduate degree (BSc, BA)",control,76,2,For,For
4,1659954825801,08/08/2022 10:33:45,1659954824914,1,08/08/2022 11:33:44,94118,2,task-net4,NA,23522067,6893591,NA,complete,NA,62f0e5fc6dd1e076c264e153,computer,Desktop or Laptop,Windows 7,Chrome 103.0.0.0,1366x768,1366x657,NA,ITT Ratings,2,against,8,NA,NA,NA,NA,NA,NA,ACCEPT,NA,NA,NA,batch8pro,batch8pro,14,2,1,Screen 1,continueButton,response_rating_scale_likert_active,6583.79999999702,NA,NA,Disagree,1,0,1,0,NA,NA,NA,NA,1,statements,I know people who suffer from long COVID.,1,17/06/2021 12:51,17/06/2021 13:03,IP Address,For (I feel positively about the vaccines),A few times a year,Most weeks,29,Female,NA,"Undergraduate degree (BSc, BA)",control,72,2,For,For
5,1659954829883,08/08/2022 10:33:49,1659954829021,1,08/08/2022 11:33:49,94118,2,task-net4,NA,23522067,6893591,NA,complete,NA,62f0e5fc6dd1e076c264e153,computer,Desktop or Laptop,Windows 7,Chrome 103.0.0.0,1366x768,1366x657,NA,ITT Ratings,2,against,8,NA,NA,NA,NA,NA,NA,ACCEPT,NA,NA,NA,batch8pro,batch8pro,34,3,1,Screen 1,continueButton,response_rating_scale_likert_active,4067.599999994039,NA,NA,Somewhat Agree,1,0,1,0,NA,NA,NA,NA,1,statements,I don't trust whats in the vaccine,1,17/06/2021 12:57,17/06/2021 13:04,IP Address,For (I feel positively about the vaccines),Rarely,Most months,26,Male,NA,"Undergraduate degree (BSc, BA)",control,76,1,For,Against
6,1659954834061,08/08/2022 10:33:54,1659954833201,1,08/08/2022 11:33:53,94118,2,task-net4,NA,23522067,6893591,NA,complete,NA,62f0e5fc6dd1e076c264e153,computer,Desktop or Laptop,Windows 7,Chrome 103.0.0.0,1366x768,1366x657,NA,ITT Ratings,2,against,8,NA,NA,NA,NA,NA,NA,ACCEPT,NA,NA,NA,batch8pro,batch8pro,37,4,1,Screen 1,continueButton,response_rating_scale_likert_active,4139,NA,NA,Strongly Agree,1,0,1,0,NA,NA,NA,NA,1,statements,I want to get back to normal,1,17/06/2021 12:57,17/06/2021 13:04,IP Address,For (I feel positively about the vaccines),Rarely,Most months,26,Male,NA,"Undergraduate degree (BSc, BA)",control,76,1,For,For
7,1659954842321,08/08/2022 10:34:02,1659954841463,1,08/08/2022 11:34:01,94118,2,task-net4,NA,23522067,6893591,NA,complete,NA,62f0e5fc6dd1e076c264e153,computer,Desktop or Laptop,Windows 7,Chrome 103.0.0.0,1366x768,1366x657,NA,ITT Ratings,2,against,8,NA,NA,NA,NA,NA,NA,ACCEPT,NA,NA,NA,batch8pro,batch8pro,62,5,1,Screen 1,continueButton,response_rating_scale_likert_active,8226.5,NA,NA,Neither Agree nor Disagree,1,0,1,0,NA,NA,NA,NA,1,statements,"Survival does not mean that COVID does not affect you, you may suffer from 'long-covid'.",1,17/06/2021 12:58,17/06/2021 13:05,IP Address,For (I feel positively about the vaccines),Once or twice a year,A few times a year,21,Male,NA,A levels,control,80,2,For,For
8,1659954845177,08/08/2022 10:34:05,1659954844314,1,08/08/2022 11:34:04,94118,2,task-net4,NA,23522067,6893591,NA,complete,NA,62f0e5fc6dd1e076c264e153,computer,Desktop or Laptop,Windows 7,Chrome 103.0.0.0,1366x768,1366x657,NA,ITT Ratings,2,against,8,NA,NA,NA,NA,NA,NA,ACCEPT,NA,NA,NA,batch8pro,batch8pro,56,6,1,Screen 1,continueButton,response_rating_scale_likert_active,2810.8999999910593,NA,NA,Somewhat Agree,1,0,1,0,NA,NA,NA,NA,1,statements,I want to protect my loved ones and vulnerable people.,1,17/06/2021 12:51,17/06/2021 13:05,IP Address,For (I feel positively about the vaccines),Rarely,Most months,37,Female,NA,"Undergraduate degree (BSc, BA)",control,79,2,For,For
9,1659954855893,08/08/2022 10:34:15,1659954855045,1,08/08/2022 11:34:15,94118,2,task-net4,NA,23522067,6893591,NA,complete,NA,62f0e5fc6dd1e076c264e153,computer,Desktop or Laptop,Windows 7,Chrome 103.0.0.0,1366x768,1366x657,NA,ITT Ratings,2,against,8,NA,NA,NA,NA,NA,NA,ACCEPT,NA,NA,NA,batch8pro,batch8pro,21,7,1,Screen 1,continueButton,response_rating_scale_likert_active,10690.20000000298,NA,NA,Somewhat Agree,1,0,1,0,NA,NA,NA,NA,1,statements,"I'm clinically vulnerable, I would like to go out safely.",1,17/06/2021 12:46,17/06/2021 13:03,IP Address,For (I feel positively about the vaccines),Rarely,Rarely,49,Other,"my SEX (protected characteristic, please see EA 2010) is female. I don't have a gender",A levels,choice,73,3,For,For
10,1659954861473,08/08/2022 10:34:21,1659954860625,1,08/08/2022 11:34:20,94118,2,task-net4,NA,23522067,6893591,NA,complete,NA,62f0e5fc6dd1e076c264e153,computer,Desktop or Laptop,Windows 7,Chrome 103.0.0.0,1366x768,1366x657,NA,ITT Ratings,2,against,8,NA,NA,NA,NA,NA,NA,ACCEPT,NA,NA,NA,batch8pro,batch8pro,6,8,1,Screen 1,continueButton,response_rating_scale_likert_active,5543.4000000059605,NA,NA,Strongly Agree,1,0,1,0,NA,NA,NA,NA,1,statements,I have a history of blood clots and are concerned about receiving the AstraZeneca/JJ vaccines as a result,1,17/06/2021 12:51,17/06/2021 13:02,IP Address,For (I feel positively about the vaccines),Most weeks,Most months,20,Male,NA,A levels,choice,71,3,For,Against
11,1659954866072,08/08/2022 10:34:26,1659954865201,1,08/08/2022 11:34:25,94118,2,task-net4,NA,23522067,6893591,NA,complete,NA,62f0e5fc6dd1e076c264e153,computer,Desktop or Laptop,Windows 7,Chrome 103.0.0.0,1366x768,1366x657,NA,ITT Ratings,2,against,8,NA,NA,NA,NA,NA,NA,ACCEPT,NA,NA,NA,batch8pro,batch8pro,53,9,1,Screen 1,continueButton,response_rating_scale_likert_active,4531.5,NA,NA,Somewhat Disagree,1,0,1,0,NA,NA,NA,NA,1,statements,Vaccines are a way for the government to control us.,1,17/06/2021 12:51,17/06/2021 13:05,IP Address,For (I feel positively about the vaccines),Rarely,Most months,37,Female,NA,"Undergraduate degree (BSc, BA)",control,79,2,For,Against
12,1659954869218,08/08/2022 10:34:29,1659954868374,1,08/08/2022 11:34:28,94118,2,task-net4,NA,23522067,6893591,NA,complete,NA,62f0e5fc6dd1e076c264e153,computer,Desktop or Laptop,Windows 7,Chrome 103.0.0.0,1366x768,1366x657,NA,ITT Ratings,2,against,8,NA,NA,NA,NA,NA,NA,ACCEPT,NA,NA,NA,batch8pro,batch8pro,44,10,1,Screen 1,continueButton,response_rating_scale_likert_active,3136.8999999910593,NA,NA,Agree,1,0,1,0,NA,NA,NA,NA,1,statements,I want to prevent myself and others getting sick,1,17/06/2021 13:00,17/06/2021 13:04,IP Address,For (I feel positively about the vaccines),Most weeks,Most months,28,Female,NA,"Undergraduate degree (BSc, BA)",control,77,2,For,For
13,1659954874240,08/08/2022 10:34:34,1659954873379,1,08/08/2022 11:34:33,94118,2,task-net4,NA,23522067,6893591,NA,complete,NA,62f0e5fc6dd1e076c264e153,computer,Desktop or Laptop,Windows 7,Chrome 103.0.0.0,1366x768,1366x657,NA,ITT Ratings,2,against,8,NA,NA,NA,NA,NA,NA,ACCEPT,NA,NA,NA,batch8pro,batch8pro,57,11,1,Screen 1,continueButton,response_rating_scale_likert_active,4964.0999999940395,NA,NA,Agree,1,0,1,0,NA,NA,NA,NA,1,statements,I want to be able to live freely again with restrictions lifted.,1,17/06/2021 12:51,17/06/2021 13:05,IP Address,For (I feel positively about the vaccines),Rarely,Most months,37,Female,NA,"Undergraduate degree (BSc, BA)",control,79,3,For,For
14,1659954882579,08/08/2022 10:34:42,1659954881727,1,08/08/2022 11:34:41,94118,2,task-net4,NA,23522067,6893591,NA,complete,NA,62f0e5fc6dd1e076c264e153,computer,Desktop or Laptop,Windows 7,Chrome 103.0.0.0,1366x768,1366x657,NA,ITT Ratings,2,against,8,NA,NA,NA,NA,NA,NA,ACCEPT,NA,NA,NA,batch8pro,batch8pro,58,12,1,Screen 1,continueButton,response_rating_scale_likert_active,8304.90000000596,NA,NA,Somewhat Agree,1,0,1,0,NA,NA,NA,NA,1,statements,There has not been enough time to safely develop vaccines as others take years and years to develop and test safely.,1,17/06/2021 12:58,17/06/2021 13:05,IP Address,For (I feel positively about the vaccines),Once or twice a year,A few times a year,21,Male,NA,A levels,control,80,1,For,Against
15,1659954891311,08/08/2022 10:34:51,1659954890458,1,08/08/2022 11:34:50,94118,2,task-net4,NA,23522067,6893591,NA,complete,NA,62f0e5fc6dd1e076c264e153,computer,Desktop or Laptop,Windows 7,Chrome 103.0.0.0,1366x768,1366x657,NA,ITT Ratings,2,against,8,NA,NA,NA,NA,NA,NA,ACCEPT,NA,NA,NA,batch8pro,batch8pro,47,13,1,Screen 1,continueButton,response_rating_scale_likert_active,8693.40000000596,NA,NA,Strongly Agree,1,0,1,0,NA,NA,NA,NA,1,statements,It hasn't been out long enough to realise long term effects.,1,17/06/2021 12:57,17/06/2021 13:04,IP Address,For (I feel positively about the vaccines),Most weeks,Most weeks,30,Female,NA,A levels,choice,78,2,For,Against
16,1659954895754,08/08/2022 10:34:55,1659954894902,1,08/08/2022 11:34:54,94118,2,task-net4,NA,23522067,6893591,NA,complete,NA,62f0e5fc6dd1e076c264e153,computer,Desktop or Laptop,Windows 7,Chrome 103.0.0.0,1366x768,1366x657,NA,ITT Ratings,2,against,8,NA,NA,NA,NA,NA,NA,ACCEPT,NA,NA,NA,batch8pro,batch8pro,23,14,1,Screen 1,continueButton,response_rating_scale_likert_active,4355.5999999940395,NA,NA,Agree,1,0,1,0,NA,NA,NA,NA,1,statements,It’s not developed enough yet,1,17/06/2021 12:56,17/06/2021 13:03,IP Address,For (I feel positively about the vaccines),Rarely,Rarely,36,Female,NA,GCSEs,control,74,2,For,Against
17,1659954898240,08/08/2022 10:34:58,1659954897381,1,08/08/2022 11:34:57,94118,2,task-net4,NA,23522067,6893591,NA,complete,NA,62f0e5fc6dd1e076c264e153,computer,Desktop or Laptop,Windows 7,Chrome 103.0.0.0,1366x768,1366x657,NA,ITT Ratings,2,against,8,NA,NA,NA,NA,NA,NA,ACCEPT,NA,NA,NA,batch8pro,batch8pro,50,15,1,Screen 1,continueButton,response_rating_scale_likert_active,2443.5,NA,NA,Somewhat Agree,1,0,1,0,NA,NA,NA,NA,1,statements,Keep myself safe.,1,17/06/2021 12:57,17/06/2021 13:04,IP Address,For (I feel positively about the vaccines),Most weeks,Most weeks,30,Female,NA,A levels,choice,78,2,For,For
18,1659954901278,08/08/2022 10:35:01,1659954900423,1,08/08/2022 11:35:00,94118,2,task-net4,NA,23522067,6893591,NA,complete,NA,62f0e5fc6dd1e076c264e153,computer,Desktop or Laptop,Windows 7,Chrome 103.0.0.0,1366x768,1366x657,NA,ITT Ratings,2,against,8,NA,NA,NA,NA,NA,NA,ACCEPT,NA,NA,NA,batch8pro,batch8pro,27,16,1,Screen 1,continueButton,response_rating_scale_likert_active,2999.8999999910593,NA,NA,Agree,1,0,1,0,NA,NA,NA,NA,1,statements,To be less at risk of catching the virus,1,17/06/2021 12:56,17/06/2021 13:03,IP Address,For (I feel positively about the vaccines),Rarely,Rarely,36,Female,NA,GCSEs,control,74,3,For,For
19,1659954924708,08/08/2022 10:35:24,1659954923859,1,08/08/2022 11:35:23,94118,2,task-net4,NA,23522067,6893591,NA,complete,NA,62f0e5fc6dd1e076c264e153,computer,Desktop or Laptop,Windows 7,Chrome 103.0.0.0,1366x768,1366x657,NA,ITT Ratings,2,against,8,NA,NA,NA,NA,NA,NA,ACCEPT,NA,NA,NA,batch8pro,batch8pro,30,17,1,Screen 1,continueButton,response_rating_scale_likert_active,23402.59999999404,NA,NA,Somewhat Agree,1,0,1,0,NA,NA,NA,NA,1,statements,I am relying on herd immunity and others to be vaccinated so I get the protection too.,1,17/06/2021 12:53,17/06/2021 13:03,IP Address,For (I feel positively about the vaccines),Rarely,A few times a year,22,Female,NA,"Undergraduate degree (BSc, BA)",choice,75,3,For,Against
20,1659954931804,08/08/2022 10:35:31,1659954930950,1,08/08/2022 11:35:30,94118,2,task-net4,NA,23522067,6893591,NA,complete,NA,62f0e5fc6dd1e076c264e153,computer,Desktop or Laptop,Windows 7,Chrome 103.0.0.0,1366x768,1366x657,NA,ITT Ratings,2,against,8,NA,NA,NA,NA,NA,NA,ACCEPT,NA,NA,NA,batch8pro,batch8pro,59,18,1,Screen 1,continueButton,response_rating_scale_likert_active,7055.5999999940395,NA,NA,Somewhat Disagree,1,0,1,0,NA,NA,NA,NA,1,statements,The vaccine is still in its experimental stage and should not be given to the general population yet.,1,17/06/2021 12:58,17/06/2021 13:05,IP Address,For (I feel positively about the vaccines),Once or twice a year,A few times a year,21,Male,NA,A levels,control,80,2,For,Against
21,1659954936134,08/08/2022 10:35:36,1659954935285,1,08/08/2022 11:35:35,94118,2,task-net4,NA,23522067,6893591,NA,complete,NA,62f0e5fc6dd1e076c264e153,computer,Desktop or Laptop,Windows 7,Chrome 103.0.0.0,1366x768,1366x657,NA,ITT Ratings,2,against,8,NA,NA,NA,NA,NA,NA,ACCEPT,NA,NA,NA,batch8pro,batch8pro,25,19,1,Screen 1,continueButton,response_rating_scale_likert_active,4294,NA,NA,Neither Agree nor Disagree,1,0,1,0,NA,NA,NA,NA,1,statements,To be safe against the virus,1,17/06/2021 12:56,17/06/2021 13:03,IP Address,For (I feel positively about the vaccines),Rarely,Rarely,36,Female,NA,GCSEs,control,74,1,For,For
22,1659954939775,08/08/2022 10:35:39,1659954938914,1,08/08/2022 11:35:38,94118,2,task-net4,NA,23522067,6893591,NA,complete,NA,62f0e5fc6dd1e076c264e153,computer,Desktop or Laptop,Windows 7,Chrome 103.0.0.0,1366x768,1366x657,NA,ITT Ratings,2,against,8,NA,NA,NA,NA,NA,NA,ACCEPT,NA,NA,NA,batch8pro,batch8pro,29,20,1,Screen 1,continueButton,response_rating_scale_likert_active,3596.4000000059605,NA,NA,Neither Agree nor Disagree,1,0,1,0,NA,NA,NA,NA,1,statements,The vaccine is not safe and has negative health effects.,1,17/06/2021 12:53,17/06/2021 13:03,IP Address,For (I feel positively about the vaccines),Rarely,A few times a year,22,Female,NA,"Undergraduate degree (BSc, BA)",choice,75,2,For,Against
23,1659954948629,08/08/2022 10:35:48,1659954947777,1,08/08/2022 11:35:47,94118,2,task-net4,NA,23522067,6893591,NA,complete,NA,62f0e5fc6dd1e076c264e153,computer,Desktop or Laptop,Windows 7,Chrome 103.0.0.0,1366x768,1366x657,NA,ITT Ratings,2,against,8,NA,NA,NA,NA,NA,NA,ACCEPT,NA,NA,NA,batch8pro,batch8pro,7,21,1,Screen 1,continueButton,response_rating_scale_likert_active,8826.79999999702,NA,NA,Somewhat Disagree,1,0,1,0,NA,NA,NA,NA,1,statements,It protects myself from getting seriously ill with Covid-19,1,17/06/2021 12:51,17/06/2021 13:02,IP Address,For (I feel positively about the vaccines),Most weeks,Most months,20,Male,NA,A levels,choice,71,1,For,For
24,1659954957505,08/08/2022 10:35:57,1659954956653,1,08/08/2022 11:35:56,94118,2,task-net4,NA,23522067,6893591,NA,complete,NA,62f0e5fc6dd1e076c264e153,computer,Desktop or Laptop,Windows 7,Chrome 103.0.0.0,1366x768,1366x657,NA,ITT Ratings,2,against,8,NA,NA,NA,NA,NA,NA,ACCEPT,NA,NA,NA,batch8pro,batch8pro,5,22,1,Screen 1,continueButton,response_rating_scale_likert_active,8831.699999988079,NA,NA,Somewhat Agree,1,0,1,0,NA,NA,NA,NA,1,statements,"I have concerns about the vaccine because I don't trust mainstream media sources, the government and/or major pharmaceutical companies",1,17/06/2021 12:51,17/06/2021 13:02,IP Address,For (I feel positively about the vaccines),Most weeks,Most months,20,Male,NA,A levels,choice,71,2,For,Against
25,1659954961143,08/08/2022 10:36:01,1659954960245,1,08/08/2022 11:36:00,94118,2,task-net4,NA,23522067,6893591,NA,complete,NA,62f0e5fc6dd1e076c264e153,computer,Desktop or Laptop,Windows 7,Chrome 103.0.0.0,1366x768,1366x657,NA,ITT Ratings,2,against,8,NA,NA,NA,NA,NA,NA,ACCEPT,NA,NA,NA,batch8pro,batch8pro,17,23,1,Screen 1,continueButton,response_rating_scale_likert_active,3546.1000000089407,NA,NA,Somewhat Disagree,1,0,1,0,NA,NA,NA,NA,1,statements,The side effects are too risky.,1,17/06/2021 12:46,17/06/2021 13:03,IP Address,For (I feel positively about the vaccines),Rarely,Rarely,49,Other,"my SEX (protected characteristic, please see EA 2010) is female. I don't have a gender",A levels,choice,73,2,For,Against
26,1659954963781,08/08/2022 10:36:03,1659954962928,1,08/08/2022 11:36:02,94118,2,task-net4,NA,23522067,6893591,NA,complete,NA,62f0e5fc6dd1e076c264e153,computer,Desktop or Laptop,Windows 7,Chrome 103.0.0.0,1366x768,1366x657,NA,ITT Ratings,2,against,8,NA,NA,NA,NA,NA,NA,ACCEPT,NA,NA,NA,batch8pro,batch8pro,49,24,1,Screen 1,continueButton,response_rating_scale_likert_active,2649.70000000298,NA,NA,Agree,1,0,1,0,NA,NA,NA,NA,1,statements,Get the world back to normal.,1,17/06/2021 12:57,17/06/2021 13:04,IP Address,For (I feel positively about the vaccines),Most weeks,Most weeks,30,Female,NA,A levels,choice,78,1,For,For
27,1659954970658,08/08/2022 10:36:10,1659954969805,1,08/08/2022 11:36:09,94118,2,task-net4,NA,23522067,6893591,NA,complete,NA,62f0e5fc6dd1e076c264e153,computer,Desktop or Laptop,Windows 7,Chrome 103.0.0.0,1366x768,1366x657,NA,ITT Ratings,2,against,8,NA,NA,NA,NA,NA,NA,ACCEPT,NA,NA,NA,batch8pro,batch8pro,33,25,1,Screen 1,continueButton,response_rating_scale_likert_active,6831.399999991059,NA,NA,Somewhat Agree,1,0,1,0,NA,NA,NA,NA,1,statements,"I want to go back to my ""normal"" life pre-covid and the vaccine will enable me to do this freely.",1,17/06/2021 12:53,17/06/2021 13:03,IP Address,For (I feel positively about the vaccines),Rarely,A few times a year,22,Female,NA,"Undergraduate degree (BSc, BA)",choice,75,3,For,For
28,1659954973348,08/08/2022 10:36:13,1659954972500,1,08/08/2022 11:36:12,94118,2,task-net4,NA,23522067,6893591,NA,complete,NA,62f0e5fc6dd1e076c264e153,computer,Desktop or Laptop,Windows 7,Chrome 103.0.0.0,1366x768,1366x657,NA,ITT Ratings,2,against,8,NA,NA,NA,NA,NA,NA,ACCEPT,NA,NA,NA,batch8pro,batch8pro,45,26,1,Screen 1,continueButton,response_rating_scale_likert_active,2656,NA,NA,Neither Agree nor Disagree,1,0,1,0,NA,NA,NA,NA,1,statements,It's the right thing to do,1,17/06/2021 13:00,17/06/2021 13:04,IP Address,For (I feel positively about the vaccines),Most weeks,Most months,28,Female,NA,"Undergraduate degree (BSc, BA)",control,77,3,For,For
29,1659954981567,08/08/2022 10:36:21,1659954980704,1,08/08/2022 11:36:20,94118,2,task-net4,NA,23522067,6893591,NA,complete,NA,62f0e5fc6dd1e076c264e153,computer,Desktop or Laptop,Windows 7,Chrome 103.0.0.0,1366x768,1366x657,NA,ITT Ratings,2,against,8,NA,NA,NA,NA,NA,NA,ACCEPT,NA,NA,NA,batch8pro,batch8pro,54,27,1,Screen 1,continueButton,response_rating_scale_likert_active,8164.09999999404,NA,NA,Strongly Disagree,1,0,1,0,NA,NA,NA,NA,1,statements,Covid 19 is a conspiracy to make us go to a cashless society and a distraction while 5g was being rolled out.,1,17/06/2021 12:51,17/06/2021 13:05,IP Address,For (I feel positively about the vaccines),Rarely,Most months,37,Female,NA,"Undergraduate degree (BSc, BA)",control,79,3,For,Against
30,1659954985160,08/08/2022 10:36:25,1659954984296,1,08/08/2022 11:36:24,94118,2,task-net4,NA,23522067,6893591,NA,complete,NA,62f0e5fc6dd1e076c264e153,computer,Desktop or Laptop,Windows 7,Chrome 103.0.0.0,1366x768,1366x657,NA,ITT Ratings,2,against,8,NA,NA,NA,NA,NA,NA,ACCEPT,NA,NA,NA,batch8pro,batch8pro,35,28,1,Screen 1,continueButton,response_rating_scale_likert_active,3559.29999999702,NA,NA,Disagree,1,0,1,0,NA,NA,NA,NA,1,statements,I think its a social experiment of control,1,17/06/2021 12:57,17/06/2021 13:04,IP Address,For (I feel positively about the vaccines),Rarely,Most months,26,Male,NA,"Undergraduate degree (BSc, BA)",control,76,2,For,Against
31,1659954990500,08/08/2022 10:36:30,1659954989639,1,08/08/2022 11:36:29,94118,2,task-net4,NA,23522067,6893591,NA,complete,NA,62f0e5fc6dd1e076c264e153,computer,Desktop or Laptop,Windows 7,Chrome 103.0.0.0,1366x768,1366x657,NA,ITT Ratings,2,against,8,NA,NA,NA,NA,NA,NA,ACCEPT,NA,NA,NA,batch8pro,batch8pro,41,29,1,Screen 1,continueButton,response_rating_scale_likert_active,5304.5,NA,NA,Disagree,1,0,1,0,NA,NA,NA,NA,1,statements,I do not think covid exists,1,17/06/2021 13:00,17/06/2021 13:04,IP Address,For (I feel positively about the vaccines),Most weeks,Most months,28,Female,NA,"Undergraduate degree (BSc, BA)",control,77,2,For,Against
32,1659954995583,08/08/2022 10:36:35,1659954994729,1,08/08/2022 11:36:34,94118,2,task-net4,NA,23522067,6893591,NA,complete,NA,62f0e5fc6dd1e076c264e153,computer,Desktop or Laptop,Windows 7,Chrome 103.0.0.0,1366x768,1366x657,NA,ITT Ratings,2,against,8,NA,NA,NA,NA,NA,NA,ACCEPT,NA,NA,NA,batch8pro,batch8pro,39,30,1,Screen 1,continueButton,response_rating_scale_likert_active,5054.899999991059,NA,NA,Disagree,1,0,1,0,NA,NA,NA,NA,1,statements,To do my bit for the country,1,17/06/2021 12:57,17/06/2021 13:04,IP Address,For (I feel positively about the vaccines),Rarely,Most months,26,Male,NA,"Undergraduate degree (BSc, BA)",control,76,3,For,For
33,1659955000039,08/08/2022 10:36:40,1659954999174,1,08/08/2022 11:36:39,94118,2,task-net4,NA,23522067,6893591,NA,complete,NA,62f0e5fc6dd1e076c264e153,computer,Desktop or Laptop,Windows 7,Chrome 103.0.0.0,1366x768,1366x657,NA,ITT Ratings,2,against,8,NA,NA,NA,NA,NA,NA,ACCEPT,NA,NA,NA,batch8pro,batch8pro,32,31,1,Screen 1,continueButton,response_rating_scale_likert_active,4405.29999999702,NA,NA,Agree,1,0,1,0,NA,NA,NA,NA,1,statements,It is important to slow down the spread of the virus.,1,17/06/2021 12:53,17/06/2021 13:03,IP Address,For (I feel positively about the vaccines),Rarely,A few times a year,22,Female,NA,"Undergraduate degree (BSc, BA)",choice,75,2,For,For
34,1659955004038,08/08/2022 10:36:44,1659955003173,1,08/08/2022 11:36:43,94118,2,task-net4,NA,23522067,6893591,NA,complete,NA,62f0e5fc6dd1e076c264e153,computer,Desktop or Laptop,Windows 7,Chrome 103.0.0.0,1366x768,1366x657,NA,ITT Ratings,2,against,8,NA,NA,NA,NA,NA,NA,ACCEPT,NA,NA,NA,batch8pro,batch8pro,51,32,1,Screen 1,continueButton,response_rating_scale_likert_active,3958.900000005961,NA,NA,Strongly Agree,1,0,1,0,NA,NA,NA,NA,1,statements,Keep my family safe.,1,17/06/2021 12:57,17/06/2021 13:04,IP Address,For (I feel positively about the vaccines),Most weeks,Most weeks,30,Female,NA,A levels,choice,78,3,For,For
35,1659955007655,08/08/2022 10:36:47,1659955006801,1,08/08/2022 11:36:46,94118,2,task-net4,NA,23522067,6893591,NA,complete,NA,62f0e5fc6dd1e076c264e153,computer,Desktop or Laptop,Windows 7,Chrome 103.0.0.0,1366x768,1366x657,NA,ITT Ratings,2,against,8,NA,NA,NA,NA,NA,NA,ACCEPT,NA,NA,NA,batch8pro,batch8pro,19,33,1,Screen 1,continueButton,response_rating_scale_likert_active,3595.3999999910593,NA,NA,Somewhat Disagree,1,0,1,0,NA,NA,NA,NA,1,statements,"I work for the NHS, I know the vaccine is safe.",1,17/06/2021 12:46,17/06/2021 13:03,IP Address,For (I feel positively about the vaccines),Rarely,Rarely,49,Other,"my SEX (protected characteristic, please see EA 2010) is female. I don't have a gender",A levels,choice,73,1,For,For
36,1659955012794,08/08/2022 10:36:52,1659955011941,1,08/08/2022 11:36:51,94118,2,task-net4,NA,23522067,6893591,NA,complete,NA,62f0e5fc6dd1e076c264e153,computer,Desktop or Laptop,Windows 7,Chrome 103.0.0.0,1366x768,1366x657,NA,ITT Ratings,2,against,8,NA,NA,NA,NA,NA,NA,ACCEPT,NA,NA,NA,batch8pro,batch8pro,26,34,1,Screen 1,continueButton,response_rating_scale_likert_active,5104.699999988079,NA,NA,Somewhat Agree,1,0,1,0,NA,NA,NA,NA,1,statements,To keep others safe and protected,1,17/06/2021 12:56,17/06/2021 13:03,IP Address,For (I feel positively about the vaccines),Rarely,Rarely,36,Female,NA,GCSEs,control,74,2,For,For
37,1659955015910,08/08/2022 10:36:55,1659955015054,1,08/08/2022 11:36:55,94118,2,task-net4,NA,23522067,6893591,NA,complete,NA,62f0e5fc6dd1e076c264e153,computer,Desktop or Laptop,Windows 7,Chrome 103.0.0.0,1366x768,1366x657,NA,ITT Ratings,2,against,8,NA,NA,NA,NA,NA,NA,ACCEPT,NA,NA,NA,batch8pro,batch8pro,48,35,1,Screen 1,continueButton,response_rating_scale_likert_active,3081.29999999702,NA,NA,Somewhat Disagree,1,0,1,0,NA,NA,NA,NA,1,statements,The government are using it as population control.,1,17/06/2021 12:57,17/06/2021 13:04,IP Address,For (I feel positively about the vaccines),Most weeks,Most weeks,30,Female,NA,A levels,choice,78,3,For,Against
38,1659955018137,08/08/2022 10:36:58,1659955017281,1,08/08/2022 11:36:57,94118,2,task-net4,NA,23522067,6893591,NA,complete,NA,62f0e5fc6dd1e076c264e153,computer,Desktop or Laptop,Windows 7,Chrome 103.0.0.0,1366x768,1366x657,NA,ITT Ratings,2,against,8,NA,NA,NA,NA,NA,NA,ACCEPT,NA,NA,NA,batch8pro,batch8pro,13,36,1,Screen 1,continueButton,response_rating_scale_likert_active,2194.8999999910593,NA,NA,Somewhat Agree,1,0,1,0,NA,NA,NA,NA,1,statements,I want to protect myself.,1,17/06/2021 12:51,17/06/2021 13:03,IP Address,For (I feel positively about the vaccines),A few times a year,Most weeks,29,Female,NA,"Undergraduate degree (BSc, BA)",control,72,1,For,For
39,1659955027303,08/08/2022 10:37:07,1659955026445,1,08/08/2022 11:37:06,94118,2,task-net4,NA,23522067,6893591,NA,complete,NA,62f0e5fc6dd1e076c264e153,computer,Desktop or Laptop,Windows 7,Chrome 103.0.0.0,1366x768,1366x657,NA,ITT Ratings,2,against,8,NA,NA,NA,NA,NA,NA,ACCEPT,NA,NA,NA,batch8pro,batch8pro,31,37,1,Screen 1,continueButton,response_rating_scale_likert_active,9133.5,NA,NA,Disagree,1,0,1,0,NA,NA,NA,NA,1,statements,The positive effects of the vaccine outweigh the negative effects.,1,17/06/2021 12:53,17/06/2021 13:03,IP Address,For (I feel positively about the vaccines),Rarely,A few times a year,22,Female,NA,"Undergraduate degree (BSc, BA)",choice,75,1,For,For
40,1659955031660,08/08/2022 10:37:11,1659955030805,1,08/08/2022 11:37:10,94118,2,task-net4,NA,23522067,6893591,NA,complete,NA,62f0e5fc6dd1e076c264e153,computer,Desktop or Laptop,Windows 7,Chrome 103.0.0.0,1366x768,1366x657,NA,ITT Ratings,2,against,8,NA,NA,NA,NA,NA,NA,ACCEPT,NA,NA,NA,batch8pro,batch8pro,36,38,1,Screen 1,continueButton,response_rating_scale_likert_active,4318.4000000059605,NA,NA,Somewhat Agree,1,0,1,0,NA,NA,NA,NA,1,statements,Its been produced to quickly,1,17/06/2021 12:57,17/06/2021 13:04,IP Address,For (I feel positively about the vaccines),Rarely,Most months,26,Male,NA,"Undergraduate degree (BSc, BA)",control,76,3,For,Against
41,1659955033866,08/08/2022 10:37:13,1659955033010,1,08/08/2022 11:37:13,94118,2,task-net4,NA,23522067,6893591,NA,complete,NA,62f0e5fc6dd1e076c264e153,computer,Desktop or Laptop,Windows 7,Chrome 103.0.0.0,1366x768,1366x657,NA,ITT Ratings,2,against,8,NA,NA,NA,NA,NA,NA,ACCEPT,NA,NA,NA,batch8pro,batch8pro,16,39,1,Screen 1,continueButton,response_rating_scale_likert_active,2172.1000000089407,NA,NA,Agree,1,0,1,0,NA,NA,NA,NA,1,statements,It hasn't been tested enough.,1,17/06/2021 12:46,17/06/2021 13:03,IP Address,For (I feel positively about the vaccines),Rarely,Rarely,49,Other,"my SEX (protected characteristic, please see EA 2010) is female. I don't have a gender",A levels,choice,73,1,For,Against
42,1659955037897,08/08/2022 10:37:17,1659955037034,1,08/08/2022 11:37:17,94118,2,task-net4,NA,23522067,6893591,NA,complete,NA,62f0e5fc6dd1e076c264e153,computer,Desktop or Laptop,Windows 7,Chrome 103.0.0.0,1366x768,1366x657,NA,ITT Ratings,2,against,8,NA,NA,NA,NA,NA,NA,ACCEPT,NA,NA,NA,batch8pro,batch8pro,20,40,1,Screen 1,continueButton,response_rating_scale_likert_active,3984.5,NA,NA,Agree,1,0,1,0,NA,NA,NA,NA,1,statements,"I'm a carer, I want to protect my clients.",1,17/06/2021 12:46,17/06/2021 13:03,IP Address,For (I feel positively about the vaccines),Rarely,Rarely,49,Other,"my SEX (protected characteristic, please see EA 2010) is female. I don't have a gender",A levels,choice,73,2,For,For
43,1659955042204,08/08/2022 10:37:22,1659955041347,1,08/08/2022 11:37:21,94118,2,task-net4,NA,23522067,6893591,NA,complete,NA,62f0e5fc6dd1e076c264e153,computer,Desktop or Laptop,Windows 7,Chrome 103.0.0.0,1366x768,1366x657,NA,ITT Ratings,2,against,8,NA,NA,NA,NA,NA,NA,ACCEPT,NA,NA,NA,batch8pro,batch8pro,22,41,1,Screen 1,continueButton,response_rating_scale_likert_active,4274.5,NA,NA,Strongly Agree,1,0,1,0,NA,NA,NA,NA,1,statements,I don’t want to be a guinea pig,1,17/06/2021 12:56,17/06/2021 13:03,IP Address,For (I feel positively about the vaccines),Rarely,Rarely,36,Female,NA,GCSEs,control,74,1,For,Against
44,1659955045963,08/08/2022 10:37:25,1659955045107,1,08/08/2022 11:37:25,94118,2,task-net4,NA,23522067,6893591,NA,complete,NA,62f0e5fc6dd1e076c264e153,computer,Desktop or Laptop,Windows 7,Chrome 103.0.0.0,1366x768,1366x657,NA,ITT Ratings,2,against,8,NA,NA,NA,NA,NA,NA,ACCEPT,NA,NA,NA,batch8pro,batch8pro,42,42,1,Screen 1,continueButton,response_rating_scale_likert_active,3715.1000000089407,NA,NA,Somewhat Agree,1,0,1,0,NA,NA,NA,NA,1,statements,I'm scared of needles,1,17/06/2021 13:00,17/06/2021 13:04,IP Address,For (I feel positively about the vaccines),Most weeks,Most months,28,Female,NA,"Undergraduate degree (BSc, BA)",control,77,3,For,Against
45,1659955049472,08/08/2022 10:37:29,1659955048618,1,08/08/2022 11:37:28,94118,2,task-net4,NA,23522067,6893591,NA,complete,NA,62f0e5fc6dd1e076c264e153,computer,Desktop or Laptop,Windows 7,Chrome 103.0.0.0,1366x768,1366x657,NA,ITT Ratings,2,against,8,NA,NA,NA,NA,NA,NA,ACCEPT,NA,NA,NA,batch8pro,batch8pro,52,43,1,Screen 1,continueButton,response_rating_scale_likert_active,3473.0999999940395,NA,NA,Neither Agree nor Disagree,1,0,1,0,NA,NA,NA,NA,1,statements,Vaccines cause autism.,1,17/06/2021 12:51,17/06/2021 13:05,IP Address,For (I feel positively about the vaccines),Rarely,Most months,37,Female,NA,"Undergraduate degree (BSc, BA)",control,79,1,For,Against
46,1659955053175,08/08/2022 10:37:33,1659955052305,1,08/08/2022 11:37:32,94118,2,task-net4,NA,23522067,6893591,NA,complete,NA,62f0e5fc6dd1e076c264e153,computer,Desktop or Laptop,Windows 7,Chrome 103.0.0.0,1366x768,1366x657,NA,ITT Ratings,2,against,8,NA,NA,NA,NA,NA,NA,ACCEPT,NA,NA,NA,batch8pro,batch8pro,10,44,1,Screen 1,continueButton,response_rating_scale_likert_active,3651.5,NA,NA,Agree,1,0,1,0,NA,NA,NA,NA,1,statements,There isn't enough research on the vaccine.,1,17/06/2021 12:51,17/06/2021 13:03,IP Address,For (I feel positively about the vaccines),A few times a year,Most weeks,29,Female,NA,"Undergraduate degree (BSc, BA)",control,72,1,For,Against
47,1659955065277,08/08/2022 10:37:45,1659955064405,1,08/08/2022 11:37:44,94118,2,task-net4,NA,23522067,6893591,NA,complete,NA,62f0e5fc6dd1e076c264e153,computer,Desktop or Laptop,Windows 7,Chrome 103.0.0.0,1366x768,1366x657,NA,ITT Ratings,2,against,8,NA,NA,NA,NA,NA,NA,ACCEPT,NA,NA,NA,batch8pro,batch8pro,9,45,1,Screen 1,continueButton,response_rating_scale_likert_active,12061.40000000596,NA,NA,Strongly Agree,1,0,1,0,NA,NA,NA,NA,1,statements,Mass vaccination eventually means the ending of lockdowns and the return to normal life,1,17/06/2021 12:51,17/06/2021 13:02,IP Address,For (I feel positively about the vaccines),Most weeks,Most months,20,Male,NA,A levels,choice,71,3,For,For
48,1659955076768,08/08/2022 10:37:56,1659955075904,1,08/08/2022 11:37:55,94118,2,task-net4,NA,23522067,6893591,NA,complete,NA,62f0e5fc6dd1e076c264e153,computer,Desktop or Laptop,Windows 7,Chrome 103.0.0.0,1366x768,1366x657,NA,ITT Ratings,2,against,8,NA,NA,NA,NA,NA,NA,ACCEPT,NA,NA,NA,batch8pro,batch8pro,60,46,1,Screen 1,continueButton,response_rating_scale_likert_active,11465.10000000894,NA,NA,Neither Agree nor Disagree,1,0,1,0,NA,NA,NA,NA,1,statements,"COVID is no more deadly than flu and has a 99% survival rate. Therefore, we do not need to be vaccinated against it, we wouldn't do so with flu.",1,17/06/2021 12:58,17/06/2021 13:05,IP Address,For (I feel positively about the vaccines),Once or twice a year,A few times a year,21,Male,NA,A levels,control,80,3,For,Against
49,1659955084449,08/08/2022 10:38:04,1659955083584,1,08/08/2022 11:38:03,94118,2,task-net4,NA,23522067,6893591,NA,complete,NA,62f0e5fc6dd1e076c264e153,computer,Desktop or Laptop,Windows 7,Chrome 103.0.0.0,1366x768,1366x657,NA,ITT Ratings,2,against,8,NA,NA,NA,NA,NA,NA,ACCEPT,NA,NA,NA,batch8pro,batch8pro,61,47,1,Screen 1,continueButton,response_rating_scale_likert_active,7637.40000000596,NA,NA,Agree,1,0,1,0,NA,NA,NA,NA,1,statements,Vaccines reduce the spread of the virus to those that are vulnerable.,1,17/06/2021 12:58,17/06/2021 13:05,IP Address,For (I feel positively about the vaccines),Once or twice a year,A few times a year,21,Male,NA,A levels,control,80,1,For,For
50,1659955088328,08/08/2022 10:38:08,1659955087452,1,08/08/2022 11:38:07,94118,2,task-net4,NA,23522067,6893591,NA,complete,NA,62f0e5fc6dd1e076c264e153,computer,Desktop or Laptop,Windows 7,Chrome 103.0.0.0,1366x768,1366x657,NA,ITT Ratings,2,against,8,NA,NA,NA,NA,NA,NA,ACCEPT,NA,NA,NA,batch8pro,batch8pro,28,48,1,Screen 1,continueButton,response_rating_scale_likert_active,3833,NA,NA,Disagree,1,0,1,0,NA,NA,NA,NA,1,statements,It is a device for the government to monitor us.,1,17/06/2021 12:53,17/06/2021 13:03,IP Address,For (I feel positively about the vaccines),Rarely,A few times a year,22,Female,NA,"Undergraduate degree (BSc, BA)",choice,75,1,For,Against
51,1659955092919,08/08/2022 10:38:12,1659955092054,1,08/08/2022 11:38:12,94118,2,task-net4,NA,23522067,6893591,NA,complete,NA,62f0e5fc6dd1e076c264e153,computer,Desktop or Laptop,Windows 7,Chrome 103.0.0.0,1366x768,1366x657,NA,ITT Ratings,2,against,8,NA,NA,NA,NA,NA,NA,ACCEPT,NA,NA,NA,batch8pro,batch8pro,55,49,1,Screen 1,continueButton,response_rating_scale_likert_active,4568.70000000298,NA,NA,Strongly Agree,1,0,1,0,NA,NA,NA,NA,1,statements,I want to be as protected as possible.,1,17/06/2021 12:51,17/06/2021 13:05,IP Address,For (I feel positively about the vaccines),Rarely,Most months,37,Female,NA,"Undergraduate degree (BSc, BA)",control,79,1,For,For
52,1659955105090,08/08/2022 10:38:25,1659955104225,1,08/08/2022 11:38:24,94118,2,task-net4,NA,23522067,6893591,NA,complete,NA,62f0e5fc6dd1e076c264e153,computer,Desktop or Laptop,Windows 7,Chrome 103.0.0.0,1366x768,1366x657,NA,ITT Ratings,2,against,8,NA,NA,NA,NA,NA,NA,ACCEPT,NA,NA,NA,batch8pro,batch8pro,46,50,1,Screen 1,continueButton,response_rating_scale_likert_active,12133.90000000596,NA,NA,Somewhat Disagree,1,0,1,0,NA,NA,NA,NA,1,statements,It's not safe enough.,1,17/06/2021 12:57,17/06/2021 13:04,IP Address,For (I feel positively about the vaccines),Most weeks,Most weeks,30,Female,NA,A levels,choice,78,1,For,Against
53,1659955108150,08/08/2022 10:38:28,1659955107281,1,08/08/2022 11:38:27,94118,2,task-net4,NA,23522067,6893591,NA,complete,NA,62f0e5fc6dd1e076c264e153,computer,Desktop or Laptop,Windows 7,Chrome 103.0.0.0,1366x768,1366x657,NA,ITT Ratings,2,against,8,NA,NA,NA,NA,NA,NA,ACCEPT,NA,NA,NA,batch8pro,batch8pro,43,51,1,Screen 1,continueButton,response_rating_scale_likert_active,3012.9000000059605,NA,NA,Strongly Agree,1,0,1,0,NA,NA,NA,NA,1,statements,I want normal life to resume,1,17/06/2021 13:00,17/06/2021 13:04,IP Address,For (I feel positively about the vaccines),Most weeks,Most months,28,Female,NA,"Undergraduate degree (BSc, BA)",control,77,1,For,For
54,1659955114089,08/08/2022 10:38:34,1659955113223,1,08/08/2022 11:38:33,94118,2,task-net4,NA,23522067,6893591,NA,complete,NA,62f0e5fc6dd1e076c264e153,computer,Desktop or Laptop,Windows 7,Chrome 103.0.0.0,1366x768,1366x657,NA,ITT Ratings,2,against,8,NA,NA,NA,NA,NA,NA,ACCEPT,NA,NA,NA,batch8pro,batch8pro,18,52,1,Screen 1,continueButton,response_rating_scale_likert_active,5908.199999988079,NA,NA,Strongly Disagree,1,0,1,0,NA,NA,NA,NA,1,statements,"There's a microchip in the vaccine, wibble.",1,17/06/2021 12:46,17/06/2021 13:03,IP Address,For (I feel positively about the vaccines),Rarely,Rarely,49,Other,"my SEX (protected characteristic, please see EA 2010) is female. I don't have a gender",A levels,choice,73,3,For,Against
55,1659955119719,08/08/2022 10:38:39,1659955118852,1,08/08/2022 11:38:38,94118,2,task-net4,NA,23522067,6893591,NA,complete,NA,62f0e5fc6dd1e076c264e153,computer,Desktop or Laptop,Windows 7,Chrome 103.0.0.0,1366x768,1366x657,NA,ITT Ratings,2,against,8,NA,NA,NA,NA,NA,NA,ACCEPT,NA,NA,NA,batch8pro,batch8pro,4,53,1,Screen 1,continueButton,response_rating_scale_likert_active,5596.9000000059605,NA,NA,Agree,1,0,1,0,NA,NA,NA,NA,1,statements,"I am pregnant, and as such am overly cautious about any medical treatment I receive",1,17/06/2021 12:51,17/06/2021 13:02,IP Address,For (I feel positively about the vaccines),Most weeks,Most months,20,Male,NA,A levels,choice,71,1,For,Against
56,1659955126093,08/08/2022 10:38:46,1659955125225,1,08/08/2022 11:38:45,94118,2,task-net4,NA,23522067,6893591,NA,complete,NA,62f0e5fc6dd1e076c264e153,computer,Desktop or Laptop,Windows 7,Chrome 103.0.0.0,1366x768,1366x657,NA,ITT Ratings,2,against,8,NA,NA,NA,NA,NA,NA,ACCEPT,NA,NA,NA,batch8pro,batch8pro,8,54,1,Screen 1,continueButton,response_rating_scale_likert_active,6338.9000000059605,NA,NA,Neither Agree nor Disagree,1,0,1,0,NA,NA,NA,NA,1,statements,"It probably prevents me from spreading Covid-19 to other people as much as I would, had I not had the vaccine",1,17/06/2021 12:51,17/06/2021 13:02,IP Address,For (I feel positively about the vaccines),Most weeks,Most months,20,Male,NA,A levels,choice,71,2,For,For
57,1659955132400,08/08/2022 10:38:52,1659955131527,1,08/08/2022 11:38:51,94118,2,task-net4,NA,23522067,6893591,NA,complete,NA,62f0e5fc6dd1e076c264e153,computer,Desktop or Laptop,Windows 7,Chrome 103.0.0.0,1366x768,1366x657,NA,ITT Ratings,2,against,8,NA,NA,NA,NA,NA,NA,ACCEPT,NA,NA,NA,batch8pro,batch8pro,3,55,1,Screen 1,continueButton,response_rating_scale_likert_active,6256.800000011921,NA,NA,Somewhat Disagree,1,0,1,0,NA,NA,NA,NA,1,statements,We would like to check you are reading each argument carefully. Please select 'Somewhat Disagree' for this answer,1,NA,NA,NA,NA,NA,NA,NA,NA,NA,NA,NA,NA,check2,NA,NA
58,1659955138273,08/08/2022 10:38:58,1659955137409,1,08/08/2022 11:38:57,94118,2,task-net4,NA,23522067,6893591,NA,complete,NA,62f0e5fc6dd1e076c264e153,computer,Desktop or Laptop,Windows 7,Chrome 103.0.0.0,1366x768,1366x657,NA,ITT Ratings,2,against,8,NA,NA,NA,NA,NA,NA,ACCEPT,NA,NA,NA,batch8pro,batch8pro,63,56,1,Screen 1,continueButton,response_rating_scale_likert_active,5840.79999999702,NA,NA,Somewhat Disagree,1,0,1,0,NA,NA,NA,NA,1,statements,"It will do no harm to have the vaccine, even if COVID will not affect you, it will allow you do normal things again.",1,17/06/2021 12:58,17/06/2021 13:05,IP Address,For (I feel positively about the vaccines),Once or twice a year,A few times a year,21,Male,NA,A levels,control,80,3,For,For
59,1659955142296,08/08/2022 10:39:02,1659955141434,1,08/08/2022 11:39:01,94118,2,task-net4,NA,23522067,6893591,NA,complete,NA,62f0e5fc6dd1e076c264e153,computer,Desktop or Laptop,Windows 7,Chrome 103.0.0.0,1366x768,1366x657,NA,ITT Ratings,2,against,8,NA,NA,NA,NA,NA,NA,ACCEPT,NA,NA,NA,batch8pro,batch8pro,2,57,1,Screen 1,continueButton,response_rating_scale_likert_active,3980.79999999702,NA,NA,Somewhat Agree,1,0,1,0,NA,NA,NA,NA,1,statements,We would like to check you are reading each argument carefully. Please select 'Somewhat Agree' for this answer,1,NA,NA,NA,NA,NA,NA,NA,NA,NA,NA,NA,NA,check1,NA,NA
60,1659955148530,08/08/2022 10:39:08,1659955147665,1,08/08/2022 11:39:07,94118,2,task-net4,NA,23522067,6893591,NA,complete,NA,62f0e5fc6dd1e076c264e153,computer,Desktop or Laptop,Windows 7,Chrome 103.0.0.0,1366x768,1366x657,NA,ITT Ratings,2,against,8,NA,NA,NA,NA,NA,NA,ACCEPT,NA,NA,NA,batch8pro,batch8pro,24,58,1,Screen 1,continueButton,response_rating_scale_likert_active,6191.29999999702,NA,NA,Somewhat Agree,1,0,1,0,NA,NA,NA,NA,1,statements,Scared because of news reports,1,17/06/2021 12:56,17/06/2021 13:03,IP Address,For (I feel positively about the vaccines),Rarely,Rarely,36,Female,NA,GCSEs,control,74,3,For,Against
61,1659955152781,08/08/2022 10:39:12,1659955151918,1,08/08/2022 11:39:11,94118,2,task-net4,NA,23522067,6893591,NA,complete,NA,62f0e5fc6dd1e076c264e153,computer,Desktop or Laptop,Windows 7,Chrome 103.0.0.0,1366x768,1366x657,NA,ITT Ratings,2,against,8,NA,NA,NA,NA,NA,NA,ACCEPT,NA,NA,NA,batch8pro,batch8pro,40,59,1,Screen 1,continueButton,response_rating_scale_likert_active,4206.70000000298,NA,NA,Strongly Agree,1,0,1,0,NA,NA,NA,NA,1,statements,There has not been enough testing on the vaccine,1,17/06/2021 13:00,17/06/2021 13:04,IP Address,For (I feel positively about the vaccines),Most weeks,Most months,28,Female,NA,"Undergraduate degree (BSc, BA)",control,77,1,For,Against
62,1659955155443,08/08/2022 10:39:15,1659955154577,1,08/08/2022 11:39:14,94118,2,task-net4,NA,23522067,6893591,NA,complete,NA,62f0e5fc6dd1e076c264e153,computer,Desktop or Laptop,Windows 7,Chrome 103.0.0.0,1366x768,1366x657,NA,ITT Ratings,2,against,8,NA,NA,NA,NA,NA,NA,ACCEPT,NA,NA,NA,batch8pro,batch8pro,15,60,1,Screen 1,continueButton,response_rating_scale_likert_active,2625.9000000059605,NA,NA,Strongly Agree,1,0,1,0,NA,NA,NA,NA,1,statements,I just want life to get back to somewhat normal.,1,17/06/2021 12:51,17/06/2021 13:03,IP Address,For (I feel positively about the vaccines),A few times a year,Most weeks,29,Female,NA,"Undergraduate degree (BSc, BA)",control,72,3,For,For
63,1659955160317,08/08/2022 10:39:20,1659955159453,1,08/08/2022 11:39:19,94118,2,task-net4,NA,23522067,6893591,NA,complete,NA,62f0e5fc6dd1e076c264e153,computer,Desktop or Laptop,Windows 7,Chrome 103.0.0.0,1366x768,1366x657,NA,ITT Ratings,2,against,8,NA,NA,NA,NA,NA,NA,ACCEPT,NA,NA,NA,batch8pro,batch8pro,12,61,1,Screen 1,continueButton,response_rating_scale_likert_active,4843.79999999702,NA,NA,Neither Agree nor Disagree,1,0,1,0,NA,NA,NA,NA,1,statements,It alters human DNA.,1,17/06/2021 12:51,17/06/2021 13:03,IP Address,For (I feel positively about the vaccines),A few times a year,Most weeks,29,Female,NA,"Undergraduate degree (BSc, BA)",control,72,3,For,Against
64,1659955166355,08/08/2022 10:39:26,1659955165490,1,08/08/2022 11:39:25,94118,2,task-net4,NA,23522067,6893591,NA,complete,NA,62f0e5fc6dd1e076c264e153,computer,Desktop or Laptop,Windows 7,Chrome 103.0.0.0,1366x768,1366x657,NA,ITT Ratings,2,against,8,NA,NA,NA,NA,NA,NA,ACCEPT,NA,NA,NA,batch8pro,batch8pro,11,62,1,Screen 1,continueButton,response_rating_scale_likert_active,6008.29999999702,NA,NA,Somewhat Disagree,1,0,1,0,NA,NA,NA,NA,1,statements,"I'll trust my immune system, that's what it is there for.",1,17/06/2021 12:51,17/06/2021 13:03,IP Address,For (I feel positively about the vaccines),A few times a year,Most weeks,29,Female,NA,"Undergraduate degree (BSc, BA)",control,72,2,For,Against
65,1659955166421,08/08/2022 10:39:26,1659955165509,1,08/08/2022 11:39:25,94118,2,task-net4,NA,23522067,6893591,NA,complete,NA,62f0e5fc6dd1e076c264e153,computer,Desktop or Laptop,Windows 7,Chrome 103.0.0.0,1366x768,1366x657,NA,ITT Ratings,2,against,8,NA,NA,NA,NA,NA,NA,ACCEPT,NA,NA,NA,batch8pro,NA,NA,END TASK,NA,NA,NA,NA,448244,NA,NA,NA,NA,0,1,0,NA,NA,NA,NA,NA,NA,NA,NA,NA,NA,NA,NA,NA,NA,NA,NA,NA,NA,NA,NA,NA,NA,NA
1,1659954894429,08/08/2022 10:34:54,1659954900505,1,08/08/2022 11:35:00,94118,2,task-net4,NA,23522121,6893615,NA,complete,NA,62f0e6ad600efcc739a3f73a,computer,Desktop or Laptop,Windows 10,Chrome 104.0.0.0,1536x864,1536x714,NA,ITT Ratings,2,against,8,NA,NA,NA,NA,NA,NA,ACCEPT,NA,NA,NA,batch8pro,NA,NA,BEGIN TASK,NA,NA,NA,NA,NA,NA,NA,NA,NA,0,1,0,NA,NA,NA,NA,NA,NA,NA,NA,NA,NA,NA,NA,NA,NA,NA,NA,NA,NA,NA,NA,NA,NA,NA
2,1659954933951,08/08/2022 10:35:33,1659954940141,1,08/08/2022 11:35:40,94118,2,task-net4,NA,23522121,6893615,NA,complete,NA,62f0e6ad600efcc739a3f73a,computer,Desktop or Laptop,Windows 10,Chrome 104.0.0.0,1536x864,1519x714,NA,ITT Ratings,2,against,8,NA,NA,NA,NA,NA,NA,ACCEPT,NA,NA,NA,batch8pro,batch8pro,1,1,1,Screen 1,advancementZone,continue_button,39573.10000014305,NA,NA,NA,NA,0,1,0,NA,NA,NA,NA,NA,instructions,NA,NA,NA,NA,NA,NA,NA,NA,NA,NA,NA,NA,NA,NA,NA,NA,NA
3,1659954941303,08/08/2022 10:35:41,1659954947500,1,08/08/2022 11:35:47,94118,2,task-net4,NA,23522121,6893615,NA,complete,NA,62f0e6ad600efcc739a3f73a,computer,Desktop or Laptop,Windows 10,Chrome 104.0.0.0,1536x864,1519x714,NA,ITT Ratings,2,against,8,NA,NA,NA,NA,NA,NA,ACCEPT,NA,NA,NA,batch8pro,batch8pro,5,1,1,Screen 1,continueButton,response_rating_scale_likert_active,7341.100000143051,NA,NA,Somewhat Agree,1,0,1,0,NA,NA,NA,NA,1,statements,"I have concerns about the vaccine because I don't trust mainstream media sources, the government and/or major pharmaceutical companies",1,17/06/2021 12:51,17/06/2021 13:02,IP Address,For (I feel positively about the vaccines),Most weeks,Most months,20,Male,NA,A levels,choice,71,2,For,Against
4,1659954946997,08/08/2022 10:35:46,1659954953177,1,08/08/2022 11:35:53,94118,2,task-net4,NA,23522121,6893615,NA,complete,NA,62f0e6ad600efcc739a3f73a,computer,Desktop or Laptop,Windows 10,Chrome 104.0.0.0,1536x864,1519x714,NA,ITT Ratings,2,against,8,NA,NA,NA,NA,NA,NA,ACCEPT,NA,NA,NA,batch8pro,batch8pro,4,2,1,Screen 1,continueButton,response_rating_scale_likert_active,5659.599999904633,NA,NA,Strongly Disagree,1,0,1,0,NA,NA,NA,NA,1,statements,"I am pregnant, and as such am overly cautious about any medical treatment I receive",1,17/06/2021 12:51,17/06/2021 13:02,IP Address,For (I feel positively about the vaccines),Most weeks,Most months,20,Male,NA,A levels,choice,71,1,For,Against
5,1659954960402,08/08/2022 10:36:00,1659954966583,1,08/08/2022 11:36:06,94118,2,task-net4,NA,23522121,6893615,NA,complete,NA,62f0e6ad600efcc739a3f73a,computer,Desktop or Laptop,Windows 10,Chrome 104.0.0.0,1536x864,1519x714,NA,ITT Ratings,2,against,8,NA,NA,NA,NA,NA,NA,ACCEPT,NA,NA,NA,batch8pro,batch8pro,45,3,1,Screen 1,continueButton,response_rating_scale_likert_active,13394.300000190737,NA,NA,Somewhat Disagree,1,0,1,0,NA,NA,NA,NA,1,statements,It's the right thing to do,1,17/06/2021 13:00,17/06/2021 13:04,IP Address,For (I feel positively about the vaccines),Most weeks,Most months,28,Female,NA,"Undergraduate degree (BSc, BA)",control,77,3,For,For
6,1659954964220,08/08/2022 10:36:04,1659954970420,1,08/08/2022 11:36:10,94118,2,task-net4,NA,23522121,6893615,NA,complete,NA,62f0e6ad600efcc739a3f73a,computer,Desktop or Laptop,Windows 10,Chrome 104.0.0.0,1536x864,1519x714,NA,ITT Ratings,2,against,8,NA,NA,NA,NA,NA,NA,ACCEPT,NA,NA,NA,batch8pro,batch8pro,50,4,1,Screen 1,continueButton,response_rating_scale_likert_active,3823.899999856949,NA,NA,Somewhat Agree,1,0,1,0,NA,NA,NA,NA,1,statements,Keep myself safe.,1,17/06/2021 12:57,17/06/2021 13:04,IP Address,For (I feel positively about the vaccines),Most weeks,Most weeks,30,Female,NA,A levels,choice,78,2,For,For
7,1659954969165,08/08/2022 10:36:09,1659954975348,1,08/08/2022 11:36:15,94118,2,task-net4,NA,23522121,6893615,NA,complete,NA,62f0e6ad600efcc739a3f73a,computer,Desktop or Laptop,Windows 10,Chrome 104.0.0.0,1536x864,1519x714,NA,ITT Ratings,2,against,8,NA,NA,NA,NA,NA,NA,ACCEPT,NA,NA,NA,batch8pro,batch8pro,47,5,1,Screen 1,continueButton,response_rating_scale_likert_active,4914.599999904633,NA,NA,Strongly Agree,1,0,1,0,NA,NA,NA,NA,1,statements,It hasn't been out long enough to realise long term effects.,1,17/06/2021 12:57,17/06/2021 13:04,IP Address,For (I feel positively about the vaccines),Most weeks,Most weeks,30,Female,NA,A levels,choice,78,2,For,Against
8,1659954975396,08/08/2022 10:36:15,1659954981577,1,08/08/2022 11:36:21,94118,2,task-net4,NA,23522121,6893615,NA,complete,NA,62f0e6ad600efcc739a3f73a,computer,Desktop or Laptop,Windows 10,Chrome 104.0.0.0,1536x864,1519x714,NA,ITT Ratings,2,against,8,NA,NA,NA,NA,NA,NA,ACCEPT,NA,NA,NA,batch8pro,batch8pro,21,6,1,Screen 1,continueButton,response_rating_scale_likert_active,6214.900000095367,NA,NA,Neither Agree nor Disagree,1,0,1,0,NA,NA,NA,NA,1,statements,"I'm clinically vulnerable, I would like to go out safely.",1,17/06/2021 12:46,17/06/2021 13:03,IP Address,For (I feel positively about the vaccines),Rarely,Rarely,49,Other,"my SEX (protected characteristic, please see EA 2010) is female. I don't have a gender",A levels,choice,73,3,For,For
9,1659954983641,08/08/2022 10:36:23,1659954989826,1,08/08/2022 11:36:29,94118,2,task-net4,NA,23522121,6893615,NA,complete,NA,62f0e6ad600efcc739a3f73a,computer,Desktop or Laptop,Windows 10,Chrome 104.0.0.0,1536x864,1519x714,NA,ITT Ratings,2,against,8,NA,NA,NA,NA,NA,NA,ACCEPT,NA,NA,NA,batch8pro,batch8pro,54,7,1,Screen 1,continueButton,response_rating_scale_likert_active,8230.600000143051,NA,NA,Strongly Disagree,1,0,1,0,NA,NA,NA,NA,1,statements,Covid 19 is a conspiracy to make us go to a cashless society and a distraction while 5g was being rolled out.,1,17/06/2021 12:51,17/06/2021 13:05,IP Address,For (I feel positively about the vaccines),Rarely,Most months,37,Female,NA,"Undergraduate degree (BSc, BA)",control,79,3,For,Against
10,1659954986244,08/08/2022 10:36:26,1659954992439,1,08/08/2022 11:36:32,94118,2,task-net4,NA,23522121,6893615,NA,complete,NA,62f0e6ad600efcc739a3f73a,computer,Desktop or Laptop,Windows 10,Chrome 104.0.0.0,1536x864,1519x714,NA,ITT Ratings,2,against,8,NA,NA,NA,NA,NA,NA,ACCEPT,NA,NA,NA,batch8pro,batch8pro,41,8,1,Screen 1,continueButton,response_rating_scale_likert_active,2600.900000095367,NA,NA,Strongly Disagree,1,0,1,0,NA,NA,NA,NA,1,statements,I do not think covid exists,1,17/06/2021 13:00,17/06/2021 13:04,IP Address,For (I feel positively about the vaccines),Most weeks,Most months,28,Female,NA,"Undergraduate degree (BSc, BA)",control,77,2,For,Against
11,1659954988888,08/08/2022 10:36:28,1659954995072,1,08/08/2022 11:36:35,94118,2,task-net4,NA,23522121,6893615,NA,complete,NA,62f0e6ad600efcc739a3f73a,computer,Desktop or Laptop,Windows 10,Chrome 104.0.0.0,1536x864,1519x714,NA,ITT Ratings,2,against,8,NA,NA,NA,NA,NA,NA,ACCEPT,NA,NA,NA,batch8pro,batch8pro,16,9,1,Screen 1,continueButton,response_rating_scale_likert_active,2625.100000143051,NA,NA,Strongly Agree,1,0,1,0,NA,NA,NA,NA,1,statements,It hasn't been tested enough.,1,17/06/2021 12:46,17/06/2021 13:03,IP Address,For (I feel positively about the vaccines),Rarely,Rarely,49,Other,"my SEX (protected characteristic, please see EA 2010) is female. I don't have a gender",A levels,choice,73,1,For,Against
12,1659954992881,08/08/2022 10:36:32,1659954999040,1,08/08/2022 11:36:39,94118,2,task-net4,NA,23522121,6893615,NA,complete,NA,62f0e6ad600efcc739a3f73a,computer,Desktop or Laptop,Windows 10,Chrome 104.0.0.0,1536x864,1519x714,NA,ITT Ratings,2,against,8,NA,NA,NA,NA,NA,NA,ACCEPT,NA,NA,NA,batch8pro,batch8pro,32,10,1,Screen 1,continueButton,response_rating_scale_likert_active,3954.599999904633,NA,NA,Somewhat Agree,1,0,1,0,NA,NA,NA,NA,1,statements,It is important to slow down the spread of the virus.,1,17/06/2021 12:53,17/06/2021 13:03,IP Address,For (I feel positively about the vaccines),Rarely,A few times a year,22,Female,NA,"Undergraduate degree (BSc, BA)",choice,75,2,For,For
13,1659954997959,08/08/2022 10:36:37,1659955004154,1,08/08/2022 11:36:44,94118,2,task-net4,NA,23522121,6893615,NA,complete,NA,62f0e6ad600efcc739a3f73a,computer,Desktop or Laptop,Windows 10,Chrome 104.0.0.0,1536x864,1519x714,NA,ITT Ratings,2,against,8,NA,NA,NA,NA,NA,NA,ACCEPT,NA,NA,NA,batch8pro,batch8pro,60,11,1,Screen 1,continueButton,response_rating_scale_likert_active,5100.299999952316,NA,NA,Somewhat Agree,1,0,1,0,NA,NA,NA,NA,1,statements,"COVID is no more deadly than flu and has a 99% survival rate. Therefore, we do not need to be vaccinated against it, we wouldn't do so with flu.",1,17/06/2021 12:58,17/06/2021 13:05,IP Address,For (I feel positively about the vaccines),Once or twice a year,A few times a year,21,Male,NA,A levels,control,80,3,For,Against
14,1659955001780,08/08/2022 10:36:41,1659955007964,1,08/08/2022 11:36:47,94118,2,task-net4,NA,23522121,6893615,NA,complete,NA,62f0e6ad600efcc739a3f73a,computer,Desktop or Laptop,Windows 10,Chrome 104.0.0.0,1536x864,1519x714,NA,ITT Ratings,2,against,8,NA,NA,NA,NA,NA,NA,ACCEPT,NA,NA,NA,batch8pro,batch8pro,20,12,1,Screen 1,continueButton,response_rating_scale_likert_active,3802.5,NA,NA,Neither Agree nor Disagree,1,0,1,0,NA,NA,NA,NA,1,statements,"I'm a carer, I want to protect my clients.",1,17/06/2021 12:46,17/06/2021 13:03,IP Address,For (I feel positively about the vaccines),Rarely,Rarely,49,Other,"my SEX (protected characteristic, please see EA 2010) is female. I don't have a gender",A levels,choice,73,2,For,For
15,1659955003999,08/08/2022 10:36:43,1659955010196,1,08/08/2022 11:36:50,94118,2,task-net4,NA,23522121,6893615,NA,complete,NA,62f0e6ad600efcc739a3f73a,computer,Desktop or Laptop,Windows 10,Chrome 104.0.0.0,1536x864,1519x714,NA,ITT Ratings,2,against,8,NA,NA,NA,NA,NA,NA,ACCEPT,NA,NA,NA,batch8pro,batch8pro,17,13,1,Screen 1,continueButton,response_rating_scale_likert_active,2220.199999809265,NA,NA,Agree,1,0,1,0,NA,NA,NA,NA,1,statements,The side effects are too risky.,1,17/06/2021 12:46,17/06/2021 13:03,IP Address,For (I feel positively about the vaccines),Rarely,Rarely,49,Other,"my SEX (protected characteristic, please see EA 2010) is female. I don't have a gender",A levels,choice,73,2,For,Against
16,1659955009248,08/08/2022 10:36:49,1659955015412,1,08/08/2022 11:36:55,94118,2,task-net4,NA,23522121,6893615,NA,complete,NA,62f0e6ad600efcc739a3f73a,computer,Desktop or Laptop,Windows 10,Chrome 104.0.0.0,1536x864,1519x714,NA,ITT Ratings,2,against,8,NA,NA,NA,NA,NA,NA,ACCEPT,NA,NA,NA,batch8pro,batch8pro,13,14,1,Screen 1,continueButton,response_rating_scale_likert_active,5201.700000047684,NA,NA,Somewhat Disagree,1,0,1,0,NA,NA,NA,NA,1,statements,I want to protect myself.,1,17/06/2021 12:51,17/06/2021 13:03,IP Address,For (I feel positively about the vaccines),A few times a year,Most weeks,29,Female,NA,"Undergraduate degree (BSc, BA)",control,72,1,For,For
17,1659955015997,08/08/2022 10:36:55,1659955022192,1,08/08/2022 11:37:02,94118,2,task-net4,NA,23522121,6893615,NA,complete,NA,62f0e6ad600efcc739a3f73a,computer,Desktop or Laptop,Windows 10,Chrome 104.0.0.0,1536x864,1519x714,NA,ITT Ratings,2,against,8,NA,NA,NA,NA,NA,NA,ACCEPT,NA,NA,NA,batch8pro,batch8pro,62,15,1,Screen 1,continueButton,response_rating_scale_likert_active,6766.099999904633,NA,NA,Neither Agree nor Disagree,1,0,1,0,NA,NA,NA,NA,1,statements,"Survival does not mean that COVID does not affect you, you may suffer from 'long-covid'.",1,17/06/2021 12:58,17/06/2021 13:05,IP Address,For (I feel positively about the vaccines),Once or twice a year,A few times a year,21,Male,NA,A levels,control,80,2,For,For
18,1659955023498,08/08/2022 10:37:03,1659955029698,1,08/08/2022 11:37:09,94118,2,task-net4,NA,23522121,6893615,NA,complete,NA,62f0e6ad600efcc739a3f73a,computer,Desktop or Laptop,Windows 10,Chrome 104.0.0.0,1536x864,1519x714,NA,ITT Ratings,2,against,8,NA,NA,NA,NA,NA,NA,ACCEPT,NA,NA,NA,batch8pro,batch8pro,44,16,1,Screen 1,continueButton,response_rating_scale_likert_active,7494.700000047684,NA,NA,Somewhat Agree,1,0,1,0,NA,NA,NA,NA,1,statements,I want to prevent myself and others getting sick,1,17/06/2021 13:00,17/06/2021 13:04,IP Address,For (I feel positively about the vaccines),Most weeks,Most months,28,Female,NA,"Undergraduate degree (BSc, BA)",control,77,2,For,For
19,1659955025520,08/08/2022 10:37:05,1659955031708,1,08/08/2022 11:37:11,94118,2,task-net4,NA,23522121,6893615,NA,complete,NA,62f0e6ad600efcc739a3f73a,computer,Desktop or Laptop,Windows 10,Chrome 104.0.0.0,1536x864,1519x714,NA,ITT Ratings,2,against,8,NA,NA,NA,NA,NA,NA,ACCEPT,NA,NA,NA,batch8pro,batch8pro,42,17,1,Screen 1,continueButton,response_rating_scale_likert_active,1999.2000000476835,NA,NA,Strongly Disagree,1,0,1,0,NA,NA,NA,NA,1,statements,I'm scared of needles,1,17/06/2021 13:00,17/06/2021 13:04,IP Address,For (I feel positively about the vaccines),Most weeks,Most months,28,Female,NA,"Undergraduate degree (BSc, BA)",control,77,3,For,Against
20,1659955029881,08/08/2022 10:37:09,1659955036074,1,08/08/2022 11:37:16,94118,2,task-net4,NA,23522121,6893615,NA,complete,NA,62f0e6ad600efcc739a3f73a,computer,Desktop or Laptop,Windows 10,Chrome 104.0.0.0,1536x864,1519x714,NA,ITT Ratings,2,against,8,NA,NA,NA,NA,NA,NA,ACCEPT,NA,NA,NA,batch8pro,batch8pro,22,18,1,Screen 1,continueButton,response_rating_scale_likert_active,4284.799999952316,NA,NA,Strongly Agree,1,0,1,0,NA,NA,NA,NA,1,statements,I don’t want to be a guinea pig,1,17/06/2021 12:56,17/06/2021 13:03,IP Address,For (I feel positively about the vaccines),Rarely,Rarely,36,Female,NA,GCSEs,control,74,1,For,Against
21,1659955034004,08/08/2022 10:37:14,1659955040200,1,08/08/2022 11:37:20,94118,2,task-net4,NA,23522121,6893615,NA,complete,NA,62f0e6ad600efcc739a3f73a,computer,Desktop or Laptop,Windows 10,Chrome 104.0.0.0,1536x864,1519x714,NA,ITT Ratings,2,against,8,NA,NA,NA,NA,NA,NA,ACCEPT,NA,NA,NA,batch8pro,batch8pro,36,19,1,Screen 1,continueButton,response_rating_scale_likert_active,4111.899999856949,NA,NA,Agree,1,0,1,0,NA,NA,NA,NA,1,statements,Its been produced to quickly,1,17/06/2021 12:57,17/06/2021 13:04,IP Address,For (I feel positively about the vaccines),Rarely,Most months,26,Male,NA,"Undergraduate degree (BSc, BA)",control,76,3,For,Against
22,1659955037309,08/08/2022 10:37:17,1659955043464,1,08/08/2022 11:37:23,94118,2,task-net4,NA,23522121,6893615,NA,complete,NA,62f0e6ad600efcc739a3f73a,computer,Desktop or Laptop,Windows 10,Chrome 104.0.0.0,1536x864,1519x714,NA,ITT Ratings,2,against,8,NA,NA,NA,NA,NA,NA,ACCEPT,NA,NA,NA,batch8pro,batch8pro,53,20,1,Screen 1,continueButton,response_rating_scale_likert_active,3252.599999904633,NA,NA,Disagree,1,0,1,0,NA,NA,NA,NA,1,statements,Vaccines are a way for the government to control us.,1,17/06/2021 12:51,17/06/2021 13:05,IP Address,For (I feel positively about the vaccines),Rarely,Most months,37,Female,NA,"Undergraduate degree (BSc, BA)",control,79,2,For,Against
23,1659955050660,08/08/2022 10:37:30,1659955056854,1,08/08/2022 11:37:36,94118,2,task-net4,NA,23522121,6893615,NA,complete,NA,62f0e6ad600efcc739a3f73a,computer,Desktop or Laptop,Windows 10,Chrome 104.0.0.0,1536x864,1519x714,NA,ITT Ratings,2,against,8,NA,NA,NA,NA,NA,NA,ACCEPT,NA,NA,NA,batch8pro,batch8pro,2,21,1,Screen 1,continueButton,response_rating_scale_likert_active,13376.5,NA,NA,Somewhat Agree,1,0,1,0,NA,NA,NA,NA,1,statements,We would like to check you are reading each argument carefully. Please select 'Somewhat Agree' for this answer,1,NA,NA,NA,NA,NA,NA,NA,NA,NA,NA,NA,NA,check1,NA,NA
24,1659955056541,08/08/2022 10:37:36,1659955062729,1,08/08/2022 11:37:42,94118,2,task-net4,NA,23522121,6893615,NA,complete,NA,62f0e6ad600efcc739a3f73a,computer,Desktop or Laptop,Windows 10,Chrome 104.0.0.0,1536x864,1519x714,NA,ITT Ratings,2,against,8,NA,NA,NA,NA,NA,NA,ACCEPT,NA,NA,NA,batch8pro,batch8pro,25,22,1,Screen 1,continueButton,response_rating_scale_likert_active,5862.899999856949,NA,NA,Somewhat Disagree,1,0,1,0,NA,NA,NA,NA,1,statements,To be safe against the virus,1,17/06/2021 12:56,17/06/2021 13:03,IP Address,For (I feel positively about the vaccines),Rarely,Rarely,36,Female,NA,GCSEs,control,74,1,For,For
25,1659955060341,08/08/2022 10:37:40,1659955066528,1,08/08/2022 11:37:46,94118,2,task-net4,NA,23522121,6893615,NA,complete,NA,62f0e6ad600efcc739a3f73a,computer,Desktop or Laptop,Windows 10,Chrome 104.0.0.0,1536x864,1519x714,NA,ITT Ratings,2,against,8,NA,NA,NA,NA,NA,NA,ACCEPT,NA,NA,NA,batch8pro,batch8pro,11,23,1,Screen 1,continueButton,response_rating_scale_likert_active,3788.600000143051,NA,NA,Agree,1,0,1,0,NA,NA,NA,NA,1,statements,"I'll trust my immune system, that's what it is there for.",1,17/06/2021 12:51,17/06/2021 13:03,IP Address,For (I feel positively about the vaccines),A few times a year,Most weeks,29,Female,NA,"Undergraduate degree (BSc, BA)",control,72,2,For,Against
26,1659955062879,08/08/2022 10:37:42,1659955069068,1,08/08/2022 11:37:49,94118,2,task-net4,NA,23522121,6893615,NA,complete,NA,62f0e6ad600efcc739a3f73a,computer,Desktop or Laptop,Windows 10,Chrome 104.0.0.0,1536x864,1519x714,NA,ITT Ratings,2,against,8,NA,NA,NA,NA,NA,NA,ACCEPT,NA,NA,NA,batch8pro,batch8pro,43,24,1,Screen 1,continueButton,response_rating_scale_likert_active,2525.899999856949,NA,NA,Agree,1,0,1,0,NA,NA,NA,NA,1,statements,I want normal life to resume,1,17/06/2021 13:00,17/06/2021 13:04,IP Address,For (I feel positively about the vaccines),Most weeks,Most months,28,Female,NA,"Undergraduate degree (BSc, BA)",control,77,1,For,For
27,1659955067682,08/08/2022 10:37:47,1659955073876,1,08/08/2022 11:37:53,94118,2,task-net4,NA,23522121,6893615,NA,complete,NA,62f0e6ad600efcc739a3f73a,computer,Desktop or Laptop,Windows 10,Chrome 104.0.0.0,1536x864,1519x714,NA,ITT Ratings,2,against,8,NA,NA,NA,NA,NA,NA,ACCEPT,NA,NA,NA,batch8pro,batch8pro,7,25,1,Screen 1,continueButton,response_rating_scale_likert_active,4795.600000143051,NA,NA,Somewhat Disagree,1,0,1,0,NA,NA,NA,NA,1,statements,It protects myself from getting seriously ill with Covid-19,1,17/06/2021 12:51,17/06/2021 13:02,IP Address,For (I feel positively about the vaccines),Most weeks,Most months,20,Male,NA,A levels,choice,71,1,For,For
28,1659955074097,08/08/2022 10:37:54,1659955080286,1,08/08/2022 11:38:00,94118,2,task-net4,NA,23522121,6893615,NA,complete,NA,62f0e6ad600efcc739a3f73a,computer,Desktop or Laptop,Windows 10,Chrome 104.0.0.0,1536x864,1519x714,NA,ITT Ratings,2,against,8,NA,NA,NA,NA,NA,NA,ACCEPT,NA,NA,NA,batch8pro,batch8pro,8,26,1,Screen 1,continueButton,response_rating_scale_likert_active,6397.600000143051,NA,NA,Strongly Disagree,1,0,1,0,NA,NA,NA,NA,1,statements,"It probably prevents me from spreading Covid-19 to other people as much as I would, had I not had the vaccine",1,17/06/2021 12:51,17/06/2021 13:02,IP Address,For (I feel positively about the vaccines),Most weeks,Most months,20,Male,NA,A levels,choice,71,2,For,For
29,1659955079404,08/08/2022 10:37:59,1659955085602,1,08/08/2022 11:38:05,94118,2,task-net4,NA,23522121,6893615,NA,complete,NA,62f0e6ad600efcc739a3f73a,computer,Desktop or Laptop,Windows 10,Chrome 104.0.0.0,1536x864,1519x714,NA,ITT Ratings,2,against,8,NA,NA,NA,NA,NA,NA,ACCEPT,NA,NA,NA,batch8pro,batch8pro,61,27,1,Screen 1,continueButton,response_rating_scale_likert_active,5303.400000095367,NA,NA,Somewhat Disagree,1,0,1,0,NA,NA,NA,NA,1,statements,Vaccines reduce the spread of the virus to those that are vulnerable.,1,17/06/2021 12:58,17/06/2021 13:05,IP Address,For (I feel positively about the vaccines),Once or twice a year,A few times a year,21,Male,NA,A levels,control,80,1,For,For
30,1659955084551,08/08/2022 10:38:04,1659955090738,1,08/08/2022 11:38:10,94118,2,task-net4,NA,23522121,6893615,NA,complete,NA,62f0e6ad600efcc739a3f73a,computer,Desktop or Laptop,Windows 10,Chrome 104.0.0.0,1536x864,1519x714,NA,ITT Ratings,2,against,8,NA,NA,NA,NA,NA,NA,ACCEPT,NA,NA,NA,batch8pro,batch8pro,57,28,1,Screen 1,continueButton,response_rating_scale_likert_active,5125.400000095367,NA,NA,Somewhat Agree,1,0,1,0,NA,NA,NA,NA,1,statements,I want to be able to live freely again with restrictions lifted.,1,17/06/2021 12:51,17/06/2021 13:05,IP Address,For (I feel positively about the vaccines),Rarely,Most months,37,Female,NA,"Undergraduate degree (BSc, BA)",control,79,3,For,For
31,1659955089493,08/08/2022 10:38:09,1659955095678,1,08/08/2022 11:38:15,94118,2,task-net4,NA,23522121,6893615,NA,complete,NA,62f0e6ad600efcc739a3f73a,computer,Desktop or Laptop,Windows 10,Chrome 104.0.0.0,1536x864,1519x714,NA,ITT Ratings,2,against,8,NA,NA,NA,NA,NA,NA,ACCEPT,NA,NA,NA,batch8pro,batch8pro,29,29,1,Screen 1,continueButton,response_rating_scale_likert_active,4927.299999952316,NA,NA,Strongly Agree,1,0,1,0,NA,NA,NA,NA,1,statements,The vaccine is not safe and has negative health effects.,1,17/06/2021 12:53,17/06/2021 13:03,IP Address,For (I feel positively about the vaccines),Rarely,A few times a year,22,Female,NA,"Undergraduate degree (BSc, BA)",choice,75,2,For,Against
32,1659955093690,08/08/2022 10:38:13,1659955099880,1,08/08/2022 11:38:19,94118,2,task-net4,NA,23522121,6893615,NA,complete,NA,62f0e6ad600efcc739a3f73a,computer,Desktop or Laptop,Windows 10,Chrome 104.0.0.0,1536x864,1519x714,NA,ITT Ratings,2,against,8,NA,NA,NA,NA,NA,NA,ACCEPT,NA,NA,NA,batch8pro,batch8pro,23,30,1,Screen 1,continueButton,response_rating_scale_likert_active,4190.599999904633,NA,NA,Strongly Agree,1,0,1,0,NA,NA,NA,NA,1,statements,It’s not developed enough yet,1,17/06/2021 12:56,17/06/2021 13:03,IP Address,For (I feel positively about the vaccines),Rarely,Rarely,36,Female,NA,GCSEs,control,74,2,For,Against
33,1659955096396,08/08/2022 10:38:16,1659955102532,1,08/08/2022 11:38:22,94118,2,task-net4,NA,23522121,6893615,NA,complete,NA,62f0e6ad600efcc739a3f73a,computer,Desktop or Laptop,Windows 10,Chrome 104.0.0.0,1536x864,1519x714,NA,ITT Ratings,2,against,8,NA,NA,NA,NA,NA,NA,ACCEPT,NA,NA,NA,batch8pro,batch8pro,46,31,1,Screen 1,continueButton,response_rating_scale_likert_active,2640.399999856949,NA,NA,Agree,1,0,1,0,NA,NA,NA,NA,1,statements,It's not safe enough.,1,17/06/2021 12:57,17/06/2021 13:04,IP Address,For (I feel positively about the vaccines),Most weeks,Most weeks,30,Female,NA,A levels,choice,78,1,For,Against
34,1659955099722,08/08/2022 10:38:19,1659955105911,1,08/08/2022 11:38:25,94118,2,task-net4,NA,23522121,6893615,NA,complete,NA,62f0e6ad600efcc739a3f73a,computer,Desktop or Laptop,Windows 10,Chrome 104.0.0.0,1536x864,1519x714,NA,ITT Ratings,2,against,8,NA,NA,NA,NA,NA,NA,ACCEPT,NA,NA,NA,batch8pro,batch8pro,34,32,1,Screen 1,continueButton,response_rating_scale_likert_active,3364.2999999523163,NA,NA,Agree,1,0,1,0,NA,NA,NA,NA,1,statements,I don't trust whats in the vaccine,1,17/06/2021 12:57,17/06/2021 13:04,IP Address,For (I feel positively about the vaccines),Rarely,Most months,26,Male,NA,"Undergraduate degree (BSc, BA)",control,76,1,For,Against
35,1659955101965,08/08/2022 10:38:21,1659955108156,1,08/08/2022 11:38:28,94118,2,task-net4,NA,23522121,6893615,NA,complete,NA,62f0e6ad600efcc739a3f73a,computer,Desktop or Laptop,Windows 10,Chrome 104.0.0.0,1536x864,1519x714,NA,ITT Ratings,2,against,8,NA,NA,NA,NA,NA,NA,ACCEPT,NA,NA,NA,batch8pro,batch8pro,35,33,1,Screen 1,continueButton,response_rating_scale_likert_active,2233.399999856949,NA,NA,Disagree,1,0,1,0,NA,NA,NA,NA,1,statements,I think its a social experiment of control,1,17/06/2021 12:57,17/06/2021 13:04,IP Address,For (I feel positively about the vaccines),Rarely,Most months,26,Male,NA,"Undergraduate degree (BSc, BA)",control,76,2,For,Against
36,1659955104752,08/08/2022 10:38:24,1659955110910,1,08/08/2022 11:38:30,94118,2,task-net4,NA,23522121,6893615,NA,complete,NA,62f0e6ad600efcc739a3f73a,computer,Desktop or Laptop,Windows 10,Chrome 104.0.0.0,1536x864,1519x714,NA,ITT Ratings,2,against,8,NA,NA,NA,NA,NA,NA,ACCEPT,NA,NA,NA,batch8pro,batch8pro,10,34,1,Screen 1,continueButton,response_rating_scale_likert_active,2742.900000095367,NA,NA,Strongly Agree,1,0,1,0,NA,NA,NA,NA,1,statements,There isn't enough research on the vaccine.,1,17/06/2021 12:51,17/06/2021 13:03,IP Address,For (I feel positively about the vaccines),A few times a year,Most weeks,29,Female,NA,"Undergraduate degree (BSc, BA)",control,72,1,For,Against
37,1659955108489,08/08/2022 10:38:28,1659955114681,1,08/08/2022 11:38:34,94118,2,task-net4,NA,23522121,6893615,NA,complete,NA,62f0e6ad600efcc739a3f73a,computer,Desktop or Laptop,Windows 10,Chrome 104.0.0.0,1536x864,1519x714,NA,ITT Ratings,2,against,8,NA,NA,NA,NA,NA,NA,ACCEPT,NA,NA,NA,batch8pro,batch8pro,38,35,1,Screen 1,continueButton,response_rating_scale_likert_active,3759.300000190735,NA,NA,Neither Agree nor Disagree,1,0,1,0,NA,NA,NA,NA,1,statements,To preserve the life of others,1,17/06/2021 12:57,17/06/2021 13:04,IP Address,For (I feel positively about the vaccines),Rarely,Most months,26,Male,NA,"Undergraduate degree (BSc, BA)",control,76,2,For,For
38,1659955112442,08/08/2022 10:38:32,1659955118633,1,08/08/2022 11:38:38,94118,2,task-net4,NA,23522121,6893615,NA,complete,NA,62f0e6ad600efcc739a3f73a,computer,Desktop or Laptop,Windows 10,Chrome 104.0.0.0,1536x864,1519x714,NA,ITT Ratings,2,against,8,NA,NA,NA,NA,NA,NA,ACCEPT,NA,NA,NA,batch8pro,batch8pro,24,36,1,Screen 1,continueButton,response_rating_scale_likert_active,3943.099999904633,NA,NA,Disagree,1,0,1,0,NA,NA,NA,NA,1,statements,Scared because of news reports,1,17/06/2021 12:56,17/06/2021 13:03,IP Address,For (I feel positively about the vaccines),Rarely,Rarely,36,Female,NA,GCSEs,control,74,3,For,Against
39,1659955114994,08/08/2022 10:38:34,1659955121185,1,08/08/2022 11:38:41,94118,2,task-net4,NA,23522121,6893615,NA,complete,NA,62f0e6ad600efcc739a3f73a,computer,Desktop or Laptop,Windows 10,Chrome 104.0.0.0,1536x864,1519x714,NA,ITT Ratings,2,against,8,NA,NA,NA,NA,NA,NA,ACCEPT,NA,NA,NA,batch8pro,batch8pro,15,37,1,Screen 1,continueButton,response_rating_scale_likert_active,2543,NA,NA,Somewhat Agree,1,0,1,0,NA,NA,NA,NA,1,statements,I just want life to get back to somewhat normal.,1,17/06/2021 12:51,17/06/2021 13:03,IP Address,For (I feel positively about the vaccines),A few times a year,Most weeks,29,Female,NA,"Undergraduate degree (BSc, BA)",control,72,3,For,For
40,1659955119806,08/08/2022 10:38:39,1659955125997,1,08/08/2022 11:38:45,94118,2,task-net4,NA,23522121,6893615,NA,complete,NA,62f0e6ad600efcc739a3f73a,computer,Desktop or Laptop,Windows 10,Chrome 104.0.0.0,1536x864,1519x714,NA,ITT Ratings,2,against,8,NA,NA,NA,NA,NA,NA,ACCEPT,NA,NA,NA,batch8pro,batch8pro,14,38,1,Screen 1,continueButton,response_rating_scale_likert_active,4800.299999952316,NA,NA,Somewhat Disagree,1,0,1,0,NA,NA,NA,NA,1,statements,I know people who suffer from long COVID.,1,17/06/2021 12:51,17/06/2021 13:03,IP Address,For (I feel positively about the vaccines),A few times a year,Most weeks,29,Female,NA,"Undergraduate degree (BSc, BA)",control,72,2,For,For
41,1659955127240,08/08/2022 10:38:47,1659955133434,1,08/08/2022 11:38:53,94118,2,task-net4,NA,23522121,6893615,NA,complete,NA,62f0e6ad600efcc739a3f73a,computer,Desktop or Laptop,Windows 10,Chrome 104.0.0.0,1536x864,1519x714,NA,ITT Ratings,2,against,8,NA,NA,NA,NA,NA,NA,ACCEPT,NA,NA,NA,batch8pro,batch8pro,55,39,1,Screen 1,continueButton,response_rating_scale_likert_active,7423,NA,NA,Somewhat Agree,1,0,1,0,NA,NA,NA,NA,1,statements,I want to be as protected as possible.,1,17/06/2021 12:51,17/06/2021 13:05,IP Address,For (I feel positively about the vaccines),Rarely,Most months,37,Female,NA,"Undergraduate degree (BSc, BA)",control,79,1,For,For
42,1659955130709,08/08/2022 10:38:50,1659955136893,1,08/08/2022 11:38:56,94118,2,task-net4,NA,23522121,6893615,NA,complete,NA,62f0e6ad600efcc739a3f73a,computer,Desktop or Laptop,Windows 10,Chrome 104.0.0.0,1536x864,1519x714,NA,ITT Ratings,2,against,8,NA,NA,NA,NA,NA,NA,ACCEPT,NA,NA,NA,batch8pro,batch8pro,28,40,1,Screen 1,continueButton,response_rating_scale_likert_active,3448.199999809265,NA,NA,Strongly Disagree,1,0,1,0,NA,NA,NA,NA,1,statements,It is a device for the government to monitor us.,1,17/06/2021 12:53,17/06/2021 13:03,IP Address,For (I feel positively about the vaccines),Rarely,A few times a year,22,Female,NA,"Undergraduate degree (BSc, BA)",choice,75,1,For,Against
43,1659955138000,08/08/2022 10:38:58,1659955144195,1,08/08/2022 11:39:04,94118,2,task-net4,NA,23522121,6893615,NA,complete,NA,62f0e6ad600efcc739a3f73a,computer,Desktop or Laptop,Windows 10,Chrome 104.0.0.0,1536x864,1519x714,NA,ITT Ratings,2,against,8,NA,NA,NA,NA,NA,NA,ACCEPT,NA,NA,NA,batch8pro,batch8pro,63,41,1,Screen 1,continueButton,response_rating_scale_likert_active,7288.899999856949,NA,NA,Somewhat Disagree,1,0,1,0,NA,NA,NA,NA,1,statements,"It will do no harm to have the vaccine, even if COVID will not affect you, it will allow you do normal things again.",1,17/06/2021 12:58,17/06/2021 13:05,IP Address,For (I feel positively about the vaccines),Once or twice a year,A few times a year,21,Male,NA,A levels,control,80,3,For,For
44,1659955142716,08/08/2022 10:39:02,1659955148908,1,08/08/2022 11:39:08,94118,2,task-net4,NA,23522121,6893615,NA,complete,NA,62f0e6ad600efcc739a3f73a,computer,Desktop or Laptop,Windows 10,Chrome 104.0.0.0,1536x864,1519x714,NA,ITT Ratings,2,against,8,NA,NA,NA,NA,NA,NA,ACCEPT,NA,NA,NA,batch8pro,batch8pro,3,42,1,Screen 1,continueButton,response_rating_scale_likert_active,4699.200000047684,NA,NA,Somewhat Disagree,1,0,1,0,NA,NA,NA,NA,1,statements,We would like to check you are reading each argument carefully. Please select 'Somewhat Disagree' for this answer,1,NA,NA,NA,NA,NA,NA,NA,NA,NA,NA,NA,NA,check2,NA,NA
45,1659955145712,08/08/2022 10:39:05,1659955151905,1,08/08/2022 11:39:11,94118,2,task-net4,NA,23522121,6893615,NA,complete,NA,62f0e6ad600efcc739a3f73a,computer,Desktop or Laptop,Windows 10,Chrome 104.0.0.0,1536x864,1519x714,NA,ITT Ratings,2,against,8,NA,NA,NA,NA,NA,NA,ACCEPT,NA,NA,NA,batch8pro,batch8pro,56,43,1,Screen 1,continueButton,response_rating_scale_likert_active,2984.5,NA,NA,Somewhat Agree,1,0,1,0,NA,NA,NA,NA,1,statements,I want to protect my loved ones and vulnerable people.,1,17/06/2021 12:51,17/06/2021 13:05,IP Address,For (I feel positively about the vaccines),Rarely,Most months,37,Female,NA,"Undergraduate degree (BSc, BA)",control,79,2,For,For
46,1659955149792,08/08/2022 10:39:09,1659955155987,1,08/08/2022 11:39:15,94118,2,task-net4,NA,23522121,6893615,NA,complete,NA,62f0e6ad600efcc739a3f73a,computer,Desktop or Laptop,Windows 10,Chrome 104.0.0.0,1536x864,1519x714,NA,ITT Ratings,2,against,8,NA,NA,NA,NA,NA,NA,ACCEPT,NA,NA,NA,batch8pro,batch8pro,27,44,1,Screen 1,continueButton,response_rating_scale_likert_active,4070.700000047684,NA,NA,Somewhat Agree,1,0,1,0,NA,NA,NA,NA,1,statements,To be less at risk of catching the virus,1,17/06/2021 12:56,17/06/2021 13:03,IP Address,For (I feel positively about the vaccines),Rarely,Rarely,36,Female,NA,GCSEs,control,74,3,For,For
47,1659955152286,08/08/2022 10:39:12,1659955158475,1,08/08/2022 11:39:18,94118,2,task-net4,NA,23522121,6893615,NA,complete,NA,62f0e6ad600efcc739a3f73a,computer,Desktop or Laptop,Windows 10,Chrome 104.0.0.0,1536x864,1519x714,NA,ITT Ratings,2,against,8,NA,NA,NA,NA,NA,NA,ACCEPT,NA,NA,NA,batch8pro,batch8pro,39,45,1,Screen 1,continueButton,response_rating_scale_likert_active,2474.7999999523163,NA,NA,Somewhat Disagree,1,0,1,0,NA,NA,NA,NA,1,statements,To do my bit for the country,1,17/06/2021 12:57,17/06/2021 13:04,IP Address,For (I feel positively about the vaccines),Rarely,Most months,26,Male,NA,"Undergraduate degree (BSc, BA)",control,76,3,For,For
48,1659955156836,08/08/2022 10:39:16,1659955163025,1,08/08/2022 11:39:23,94118,2,task-net4,NA,23522121,6893615,NA,complete,NA,62f0e6ad600efcc739a3f73a,computer,Desktop or Laptop,Windows 10,Chrome 104.0.0.0,1536x864,1519x714,NA,ITT Ratings,2,against,8,NA,NA,NA,NA,NA,NA,ACCEPT,NA,NA,NA,batch8pro,batch8pro,59,46,1,Screen 1,continueButton,response_rating_scale_likert_active,4538.099999904633,NA,NA,Agree,1,0,1,0,NA,NA,NA,NA,1,statements,The vaccine is still in its experimental stage and should not be given to the general population yet.,1,17/06/2021 12:58,17/06/2021 13:05,IP Address,For (I feel positively about the vaccines),Once or twice a year,A few times a year,21,Male,NA,A levels,control,80,2,For,Against
49,1659955158900,08/08/2022 10:39:18,1659955165093,1,08/08/2022 11:39:25,94118,2,task-net4,NA,23522121,6893615,NA,complete,NA,62f0e6ad600efcc739a3f73a,computer,Desktop or Laptop,Windows 10,Chrome 104.0.0.0,1536x864,1519x714,NA,ITT Ratings,2,against,8,NA,NA,NA,NA,NA,NA,ACCEPT,NA,NA,NA,batch8pro,batch8pro,49,47,1,Screen 1,continueButton,response_rating_scale_likert_active,2055.2999999523163,NA,NA,Somewhat Agree,1,0,1,0,NA,NA,NA,NA,1,statements,Get the world back to normal.,1,17/06/2021 12:57,17/06/2021 13:04,IP Address,For (I feel positively about the vaccines),Most weeks,Most weeks,30,Female,NA,A levels,choice,78,1,For,For
50,1659955163486,08/08/2022 10:39:23,1659955169677,1,08/08/2022 11:39:29,94118,2,task-net4,NA,23522121,6893615,NA,complete,NA,62f0e6ad600efcc739a3f73a,computer,Desktop or Laptop,Windows 10,Chrome 104.0.0.0,1536x864,1519x714,NA,ITT Ratings,2,against,8,NA,NA,NA,NA,NA,NA,ACCEPT,NA,NA,NA,batch8pro,batch8pro,58,48,1,Screen 1,continueButton,response_rating_scale_likert_active,4571.700000047684,NA,NA,Strongly Agree,1,0,1,0,NA,NA,NA,NA,1,statements,There has not been enough time to safely develop vaccines as others take years and years to develop and test safely.,1,17/06/2021 12:58,17/06/2021 13:05,IP Address,For (I feel positively about the vaccines),Once or twice a year,A few times a year,21,Male,NA,A levels,control,80,1,For,Against
51,1659955168058,08/08/2022 10:39:28,1659955174247,1,08/08/2022 11:39:34,94118,2,task-net4,NA,23522121,6893615,NA,complete,NA,62f0e6ad600efcc739a3f73a,computer,Desktop or Laptop,Windows 10,Chrome 104.0.0.0,1536x864,1519x714,NA,ITT Ratings,2,against,8,NA,NA,NA,NA,NA,NA,ACCEPT,NA,NA,NA,batch8pro,batch8pro,30,49,1,Screen 1,continueButton,response_rating_scale_likert_active,4556.299999952316,NA,NA,Somewhat Agree,1,0,1,0,NA,NA,NA,NA,1,statements,I am relying on herd immunity and others to be vaccinated so I get the protection too.,1,17/06/2021 12:53,17/06/2021 13:03,IP Address,For (I feel positively about the vaccines),Rarely,A few times a year,22,Female,NA,"Undergraduate degree (BSc, BA)",choice,75,3,For,Against
52,1659955172196,08/08/2022 10:39:32,1659955178388,1,08/08/2022 11:39:38,94118,2,task-net4,NA,23522121,6893615,NA,complete,NA,62f0e6ad600efcc739a3f73a,computer,Desktop or Laptop,Windows 10,Chrome 104.0.0.0,1536x864,1519x714,NA,ITT Ratings,2,against,8,NA,NA,NA,NA,NA,NA,ACCEPT,NA,NA,NA,batch8pro,batch8pro,6,50,1,Screen 1,continueButton,response_rating_scale_likert_active,4127.400000095367,NA,NA,Somewhat Disagree,1,0,1,0,NA,NA,NA,NA,1,statements,I have a history of blood clots and are concerned about receiving the AstraZeneca/JJ vaccines as a result,1,17/06/2021 12:51,17/06/2021 13:02,IP Address,For (I feel positively about the vaccines),Most weeks,Most months,20,Male,NA,A levels,choice,71,3,For,Against
53,1659955174481,08/08/2022 10:39:34,1659955180663,1,08/08/2022 11:39:40,94118,2,task-net4,NA,23522121,6893615,NA,complete,NA,62f0e6ad600efcc739a3f73a,computer,Desktop or Laptop,Windows 10,Chrome 104.0.0.0,1536x864,1519x714,NA,ITT Ratings,2,against,8,NA,NA,NA,NA,NA,NA,ACCEPT,NA,NA,NA,batch8pro,batch8pro,51,51,1,Screen 1,continueButton,response_rating_scale_likert_active,2262.800000190735,NA,NA,Somewhat Agree,1,0,1,0,NA,NA,NA,NA,1,statements,Keep my family safe.,1,17/06/2021 12:57,17/06/2021 13:04,IP Address,For (I feel positively about the vaccines),Most weeks,Most weeks,30,Female,NA,A levels,choice,78,3,For,For
54,1659955178533,08/08/2022 10:39:38,1659955184726,1,08/08/2022 11:39:44,94118,2,task-net4,NA,23522121,6893615,NA,complete,NA,62f0e6ad600efcc739a3f73a,computer,Desktop or Laptop,Windows 10,Chrome 104.0.0.0,1536x864,1519x714,NA,ITT Ratings,2,against,8,NA,NA,NA,NA,NA,NA,ACCEPT,NA,NA,NA,batch8pro,batch8pro,12,52,1,Screen 1,continueButton,response_rating_scale_likert_active,4050.700000047684,NA,NA,Agree,1,0,1,0,NA,NA,NA,NA,1,statements,It alters human DNA.,1,17/06/2021 12:51,17/06/2021 13:03,IP Address,For (I feel positively about the vaccines),A few times a year,Most weeks,29,Female,NA,"Undergraduate degree (BSc, BA)",control,72,3,For,Against
55,1659955180820,08/08/2022 10:39:40,1659955187011,1,08/08/2022 11:39:47,94118,2,task-net4,NA,23522121,6893615,NA,complete,NA,62f0e6ad600efcc739a3f73a,computer,Desktop or Laptop,Windows 10,Chrome 104.0.0.0,1536x864,1519x714,NA,ITT Ratings,2,against,8,NA,NA,NA,NA,NA,NA,ACCEPT,NA,NA,NA,batch8pro,batch8pro,48,53,1,Screen 1,continueButton,response_rating_scale_likert_active,2273.099999904633,NA,NA,Strongly Disagree,1,0,1,0,NA,NA,NA,NA,1,statements,The government are using it as population control.,1,17/06/2021 12:57,17/06/2021 13:04,IP Address,For (I feel positively about the vaccines),Most weeks,Most weeks,30,Female,NA,A levels,choice,78,3,For,Against
56,1659955183595,08/08/2022 10:39:43,1659955189787,1,08/08/2022 11:39:49,94118,2,task-net4,NA,23522121,6893615,NA,complete,NA,62f0e6ad600efcc739a3f73a,computer,Desktop or Laptop,Windows 10,Chrome 104.0.0.0,1536x864,1519x714,NA,ITT Ratings,2,against,8,NA,NA,NA,NA,NA,NA,ACCEPT,NA,NA,NA,batch8pro,batch8pro,40,54,1,Screen 1,continueButton,response_rating_scale_likert_active,2761.7000000476837,NA,NA,Strongly Agree,1,0,1,0,NA,NA,NA,NA,1,statements,There has not been enough testing on the vaccine,1,17/06/2021 13:00,17/06/2021 13:04,IP Address,For (I feel positively about the vaccines),Most weeks,Most months,28,Female,NA,"Undergraduate degree (BSc, BA)",control,77,1,For,Against
57,1659955185678,08/08/2022 10:39:45,1659955191869,1,08/08/2022 11:39:51,94118,2,task-net4,NA,23522121,6893615,NA,complete,NA,62f0e6ad600efcc739a3f73a,computer,Desktop or Laptop,Windows 10,Chrome 104.0.0.0,1536x864,1519x714,NA,ITT Ratings,2,against,8,NA,NA,NA,NA,NA,NA,ACCEPT,NA,NA,NA,batch8pro,batch8pro,18,55,1,Screen 1,continueButton,response_rating_scale_likert_active,2068.199999809265,NA,NA,Strongly Disagree,1,0,1,0,NA,NA,NA,NA,1,statements,"There's a microchip in the vaccine, wibble.",1,17/06/2021 12:46,17/06/2021 13:03,IP Address,For (I feel positively about the vaccines),Rarely,Rarely,49,Other,"my SEX (protected characteristic, please see EA 2010) is female. I don't have a gender",A levels,choice,73,3,For,Against
58,1659955189269,08/08/2022 10:39:49,1659955195462,1,08/08/2022 11:39:55,94118,2,task-net4,NA,23522121,6893615,NA,complete,NA,62f0e6ad600efcc739a3f73a,computer,Desktop or Laptop,Windows 10,Chrome 104.0.0.0,1536x864,1519x714,NA,ITT Ratings,2,against,8,NA,NA,NA,NA,NA,NA,ACCEPT,NA,NA,NA,batch8pro,batch8pro,52,56,1,Screen 1,continueButton,response_rating_scale_likert_active,3579.699999809265,NA,NA,Neither Agree nor Disagree,1,0,1,0,NA,NA,NA,NA,1,statements,Vaccines cause autism.,1,17/06/2021 12:51,17/06/2021 13:05,IP Address,For (I feel positively about the vaccines),Rarely,Most months,37,Female,NA,"Undergraduate degree (BSc, BA)",control,79,1,For,Against
59,1659955193248,08/08/2022 10:39:53,1659955199438,1,08/08/2022 11:39:59,94118,2,task-net4,NA,23522121,6893615,NA,complete,NA,62f0e6ad600efcc739a3f73a,computer,Desktop or Laptop,Windows 10,Chrome 104.0.0.0,1536x864,1519x714,NA,ITT Ratings,2,against,8,NA,NA,NA,NA,NA,NA,ACCEPT,NA,NA,NA,batch8pro,batch8pro,31,57,1,Screen 1,continueButton,response_rating_scale_likert_active,3963.899999856949,NA,NA,Disagree,1,0,1,0,NA,NA,NA,NA,1,statements,The positive effects of the vaccine outweigh the negative effects.,1,17/06/2021 12:53,17/06/2021 13:03,IP Address,For (I feel positively about the vaccines),Rarely,A few times a year,22,Female,NA,"Undergraduate degree (BSc, BA)",choice,75,1,For,For
60,1659955197541,08/08/2022 10:39:57,1659955203735,1,08/08/2022 11:40:03,94118,2,task-net4,NA,23522121,6893615,NA,complete,NA,62f0e6ad600efcc739a3f73a,computer,Desktop or Laptop,Windows 10,Chrome 104.0.0.0,1536x864,1519x714,NA,ITT Ratings,2,against,8,NA,NA,NA,NA,NA,NA,ACCEPT,NA,NA,NA,batch8pro,batch8pro,9,58,1,Screen 1,continueButton,response_rating_scale_likert_active,4289.099999904633,NA,NA,Somewhat Agree,1,0,1,0,NA,NA,NA,NA,1,statements,Mass vaccination eventually means the ending of lockdowns and the return to normal life,1,17/06/2021 12:51,17/06/2021 13:02,IP Address,For (I feel positively about the vaccines),Most weeks,Most months,20,Male,NA,A levels,choice,71,3,For,For
61,1659955199363,08/08/2022 10:39:59,1659955205547,1,08/08/2022 11:40:05,94118,2,task-net4,NA,23522121,6893615,NA,complete,NA,62f0e6ad600efcc739a3f73a,computer,Desktop or Laptop,Windows 10,Chrome 104.0.0.0,1536x864,1519x714,NA,ITT Ratings,2,against,8,NA,NA,NA,NA,NA,NA,ACCEPT,NA,NA,NA,batch8pro,batch8pro,37,59,1,Screen 1,continueButton,response_rating_scale_likert_active,1799.5999999046326,NA,NA,Somewhat Agree,1,0,1,0,NA,NA,NA,NA,1,statements,I want to get back to normal,1,17/06/2021 12:57,17/06/2021 13:04,IP Address,For (I feel positively about the vaccines),Rarely,Most months,26,Male,NA,"Undergraduate degree (BSc, BA)",control,76,1,For,For
62,1659955204922,08/08/2022 10:40:04,1659955211114,1,08/08/2022 11:40:11,94118,2,task-net4,NA,23522121,6893615,NA,complete,NA,62f0e6ad600efcc739a3f73a,computer,Desktop or Laptop,Windows 10,Chrome 104.0.0.0,1536x864,1519x714,NA,ITT Ratings,2,against,8,NA,NA,NA,NA,NA,NA,ACCEPT,NA,NA,NA,batch8pro,batch8pro,26,60,1,Screen 1,continueButton,response_rating_scale_likert_active,5552.699999809265,NA,NA,Somewhat Disagree,1,0,1,0,NA,NA,NA,NA,1,statements,To keep others safe and protected,1,17/06/2021 12:56,17/06/2021 13:03,IP Address,For (I feel positively about the vaccines),Rarely,Rarely,36,Female,NA,GCSEs,control,74,2,For,For
63,1659955207952,08/08/2022 10:40:07,1659955214154,1,08/08/2022 11:40:14,94118,2,task-net4,NA,23522121,6893615,NA,complete,NA,62f0e6ad600efcc739a3f73a,computer,Desktop or Laptop,Windows 10,Chrome 104.0.0.0,1536x864,1519x714,NA,ITT Ratings,2,against,8,NA,NA,NA,NA,NA,NA,ACCEPT,NA,NA,NA,batch8pro,batch8pro,33,61,1,Screen 1,continueButton,response_rating_scale_likert_active,3030.7999999523163,NA,NA,Somewhat Agree,1,0,1,0,NA,NA,NA,NA,1,statements,"I want to go back to my ""normal"" life pre-covid and the vaccine will enable me to do this freely.",1,17/06/2021 12:53,17/06/2021 13:03,IP Address,For (I feel positively about the vaccines),Rarely,A few times a year,22,Female,NA,"Undergraduate degree (BSc, BA)",choice,75,3,For,For
64,1659955212216,08/08/2022 10:40:12,1659955218410,1,08/08/2022 11:40:18,94118,2,task-net4,NA,23522121,6893615,NA,complete,NA,62f0e6ad600efcc739a3f73a,computer,Desktop or Laptop,Windows 10,Chrome 104.0.0.0,1536x864,1519x714,NA,ITT Ratings,2,against,8,NA,NA,NA,NA,NA,NA,ACCEPT,NA,NA,NA,batch8pro,batch8pro,19,62,1,Screen 1,continueButton,response_rating_scale_likert_active,4245.599999904633,NA,NA,Strongly Disagree,1,0,1,0,NA,NA,NA,NA,1,statements,"I work for the NHS, I know the vaccine is safe.",1,17/06/2021 12:46,17/06/2021 13:03,IP Address,For (I feel positively about the vaccines),Rarely,Rarely,49,Other,"my SEX (protected characteristic, please see EA 2010) is female. I don't have a gender",A levels,choice,73,1,For,For
65,1659955212269,08/08/2022 10:40:12,1659955218415,1,08/08/2022 11:40:18,94118,2,task-net4,NA,23522121,6893615,NA,complete,NA,62f0e6ad600efcc739a3f73a,computer,Desktop or Laptop,Windows 10,Chrome 104.0.0.0,1536x864,1519x714,NA,ITT Ratings,2,against,8,NA,NA,NA,NA,NA,NA,ACCEPT,NA,NA,NA,batch8pro,NA,NA,END TASK,NA,NA,NA,NA,317910,NA,NA,NA,NA,0,1,0,NA,NA,NA,NA,NA,NA,NA,NA,NA,NA,NA,NA,NA,NA,NA,NA,NA,NA,NA,NA,NA,NA,NA
1,1659955116203,08/08/2022 10:38:36,1659955115818,1,08/08/2022 11:38:35,94118,2,task-net4,NA,23522185,6893640,NA,complete,NA,62f0e787a343107ac2dd6ad4,computer,Desktop or Laptop,Mac OS 10.15.6,Safari 15.0,768x1024,704x662,NA,ITT Ratings,2,against,8,NA,NA,NA,NA,NA,NA,ACCEPT,NA,NA,NA,batch8pro,NA,NA,BEGIN TASK,NA,NA,NA,NA,NA,NA,NA,NA,NA,0,1,0,NA,NA,NA,NA,NA,NA,NA,NA,NA,NA,NA,NA,NA,NA,NA,NA,NA,NA,NA,NA,NA,NA,NA
2,1659955122508,08/08/2022 10:38:42,1659955122247,1,08/08/2022 11:38:42,94118,2,task-net4,NA,23522185,6893640,NA,complete,NA,62f0e787a343107ac2dd6ad4,computer,Desktop or Laptop,Mac OS 10.15.6,Safari 15.0,768x1024,704x662,NA,ITT Ratings,2,against,8,NA,NA,NA,NA,NA,NA,ACCEPT,NA,NA,NA,batch8pro,batch8pro,1,1,1,Screen 1,advancementZone,continue_button,6231,NA,NA,NA,NA,0,1,0,NA,NA,NA,NA,NA,instructions,NA,NA,NA,NA,NA,NA,NA,NA,NA,NA,NA,NA,NA,NA,NA,NA,NA
3,1659955126640,08/08/2022 10:38:46,1659955126376,1,08/08/2022 11:38:46,94118,2,task-net4,NA,23522185,6893640,NA,complete,NA,62f0e787a343107ac2dd6ad4,computer,Desktop or Laptop,Mac OS 10.15.6,Safari 15.0,768x1024,704x662,NA,ITT Ratings,2,against,8,NA,NA,NA,NA,NA,NA,ACCEPT,NA,NA,NA,batch8pro,batch8pro,35,1,1,Screen 1,continueButton,response_rating_scale_likert_active,4083,NA,NA,Disagree,1,0,1,0,NA,NA,NA,NA,1,statements,I think its a social experiment of control,1,17/06/2021 12:57,17/06/2021 13:04,IP Address,For (I feel positively about the vaccines),Rarely,Most months,26,Male,NA,"Undergraduate degree (BSc, BA)",control,76,2,For,Against
4,1659955128946,08/08/2022 10:38:48,1659955128679,1,08/08/2022 11:38:48,94118,2,task-net4,NA,23522185,6893640,NA,complete,NA,62f0e787a343107ac2dd6ad4,computer,Desktop or Laptop,Mac OS 10.15.6,Safari 15.0,768x1024,704x662,NA,ITT Ratings,2,against,8,NA,NA,NA,NA,NA,NA,ACCEPT,NA,NA,NA,batch8pro,batch8pro,38,2,1,Screen 1,continueButton,response_rating_scale_likert_active,2261,NA,NA,Strongly Disagree,1,0,1,0,NA,NA,NA,NA,1,statements,To preserve the life of others,1,17/06/2021 12:57,17/06/2021 13:04,IP Address,For (I feel positively about the vaccines),Rarely,Most months,26,Male,NA,"Undergraduate degree (BSc, BA)",control,76,2,For,For
5,1659955134174,08/08/2022 10:38:54,1659955133898,1,08/08/2022 11:38:53,94118,2,task-net4,NA,23522185,6893640,NA,complete,NA,62f0e787a343107ac2dd6ad4,computer,Desktop or Laptop,Mac OS 10.15.6,Safari 15.0,768x1024,704x662,NA,ITT Ratings,2,against,8,NA,NA,NA,NA,NA,NA,ACCEPT,NA,NA,NA,batch8pro,batch8pro,30,3,1,Screen 1,continueButton,response_rating_scale_likert_active,5175,NA,NA,Somewhat Disagree,1,0,1,0,NA,NA,NA,NA,1,statements,I am relying on herd immunity and others to be vaccinated so I get the protection too.,1,17/06/2021 12:53,17/06/2021 13:03,IP Address,For (I feel positively about the vaccines),Rarely,A few times a year,22,Female,NA,"Undergraduate degree (BSc, BA)",choice,75,3,For,Against
6,1659955137776,08/08/2022 10:38:57,1659955137509,1,08/08/2022 11:38:57,94118,2,task-net4,NA,23522185,6893640,NA,complete,NA,62f0e787a343107ac2dd6ad4,computer,Desktop or Laptop,Mac OS 10.15.6,Safari 15.0,768x1024,704x662,NA,ITT Ratings,2,against,8,NA,NA,NA,NA,NA,NA,ACCEPT,NA,NA,NA,batch8pro,batch8pro,23,4,1,Screen 1,continueButton,response_rating_scale_likert_active,3553,NA,NA,Agree,1,0,1,0,NA,NA,NA,NA,1,statements,It’s not developed enough yet,1,17/06/2021 12:56,17/06/2021 13:03,IP Address,For (I feel positively about the vaccines),Rarely,Rarely,36,Female,NA,GCSEs,control,74,2,For,Against
7,1659955145282,08/08/2022 10:39:05,1659955145015,1,08/08/2022 11:39:05,94118,2,task-net4,NA,23522185,6893640,NA,complete,NA,62f0e787a343107ac2dd6ad4,computer,Desktop or Laptop,Mac OS 10.15.6,Safari 15.0,768x1024,704x662,NA,ITT Ratings,2,against,8,NA,NA,NA,NA,NA,NA,ACCEPT,NA,NA,NA,batch8pro,batch8pro,62,5,1,Screen 1,continueButton,response_rating_scale_likert_active,7451,NA,NA,Neither Agree nor Disagree,1,0,1,0,NA,NA,NA,NA,1,statements,"Survival does not mean that COVID does not affect you, you may suffer from 'long-covid'.",1,17/06/2021 12:58,17/06/2021 13:05,IP Address,For (I feel positively about the vaccines),Once or twice a year,A few times a year,21,Male,NA,A levels,control,80,2,For,For
8,1659955148345,08/08/2022 10:39:08,1659955148083,1,08/08/2022 11:39:08,94118,2,task-net4,NA,23522185,6893640,NA,complete,NA,62f0e787a343107ac2dd6ad4,computer,Desktop or Laptop,Mac OS 10.15.6,Safari 15.0,768x1024,704x662,NA,ITT Ratings,2,against,8,NA,NA,NA,NA,NA,NA,ACCEPT,NA,NA,NA,batch8pro,batch8pro,52,6,1,Screen 1,continueButton,response_rating_scale_likert_active,3023,NA,NA,Disagree,1,0,1,0,NA,NA,NA,NA,1,statements,Vaccines cause autism.,1,17/06/2021 12:51,17/06/2021 13:05,IP Address,For (I feel positively about the vaccines),Rarely,Most months,37,Female,NA,"Undergraduate degree (BSc, BA)",control,79,1,For,Against
9,1659955151172,08/08/2022 10:39:11,1659955150897,1,08/08/2022 11:39:10,94118,2,task-net4,NA,23522185,6893640,NA,complete,NA,62f0e787a343107ac2dd6ad4,computer,Desktop or Laptop,Mac OS 10.15.6,Safari 15.0,768x1024,704x662,NA,ITT Ratings,2,against,8,NA,NA,NA,NA,NA,NA,ACCEPT,NA,NA,NA,batch8pro,batch8pro,43,7,1,Screen 1,continueButton,response_rating_scale_likert_active,2774,NA,NA,Strongly Agree,1,0,1,0,NA,NA,NA,NA,1,statements,I want normal life to resume,1,17/06/2021 13:00,17/06/2021 13:04,IP Address,For (I feel positively about the vaccines),Most weeks,Most months,28,Female,NA,"Undergraduate degree (BSc, BA)",control,77,1,For,For
10,1659955154150,08/08/2022 10:39:14,1659955153888,1,08/08/2022 11:39:13,94118,2,task-net4,NA,23522185,6893640,NA,complete,NA,62f0e787a343107ac2dd6ad4,computer,Desktop or Laptop,Mac OS 10.15.6,Safari 15.0,768x1024,704x662,NA,ITT Ratings,2,against,8,NA,NA,NA,NA,NA,NA,ACCEPT,NA,NA,NA,batch8pro,batch8pro,26,8,1,Screen 1,continueButton,response_rating_scale_likert_active,2950,NA,NA,Disagree,1,0,1,0,NA,NA,NA,NA,1,statements,To keep others safe and protected,1,17/06/2021 12:56,17/06/2021 13:03,IP Address,For (I feel positively about the vaccines),Rarely,Rarely,36,Female,NA,GCSEs,control,74,2,For,For
11,1659955158323,08/08/2022 10:39:18,1659955158065,1,08/08/2022 11:39:18,94118,2,task-net4,NA,23522185,6893640,NA,complete,NA,62f0e787a343107ac2dd6ad4,computer,Desktop or Laptop,Mac OS 10.15.6,Safari 15.0,768x1024,704x662,NA,ITT Ratings,2,against,8,NA,NA,NA,NA,NA,NA,ACCEPT,NA,NA,NA,batch8pro,batch8pro,31,9,1,Screen 1,continueButton,response_rating_scale_likert_active,4138,NA,NA,Strongly Disagree,1,0,1,0,NA,NA,NA,NA,1,statements,The positive effects of the vaccine outweigh the negative effects.,1,17/06/2021 12:53,17/06/2021 13:03,IP Address,For (I feel positively about the vaccines),Rarely,A few times a year,22,Female,NA,"Undergraduate degree (BSc, BA)",choice,75,1,For,For
12,1659955161278,08/08/2022 10:39:21,1659955161012,1,08/08/2022 11:39:21,94118,2,task-net4,NA,23522185,6893640,NA,complete,NA,62f0e787a343107ac2dd6ad4,computer,Desktop or Laptop,Mac OS 10.15.6,Safari 15.0,768x1024,704x662,NA,ITT Ratings,2,against,8,NA,NA,NA,NA,NA,NA,ACCEPT,NA,NA,NA,batch8pro,batch8pro,58,10,1,Screen 1,continueButton,response_rating_scale_likert_active,2907.9999999999927,NA,NA,Strongly Agree,1,0,1,0,NA,NA,NA,NA,1,statements,There has not been enough time to safely develop vaccines as others take years and years to develop and test safely.,1,17/06/2021 12:58,17/06/2021 13:05,IP Address,For (I feel positively about the vaccines),Once or twice a year,A few times a year,21,Male,NA,A levels,control,80,1,For,Against
13,1659955163180,08/08/2022 10:39:23,1659955162923,1,08/08/2022 11:39:22,94118,2,task-net4,NA,23522185,6893640,NA,complete,NA,62f0e787a343107ac2dd6ad4,computer,Desktop or Laptop,Mac OS 10.15.6,Safari 15.0,768x1024,704x662,NA,ITT Ratings,2,against,8,NA,NA,NA,NA,NA,NA,ACCEPT,NA,NA,NA,batch8pro,batch8pro,39,11,1,Screen 1,continueButton,response_rating_scale_likert_active,1870,NA,NA,Strongly Disagree,1,0,1,0,NA,NA,NA,NA,1,statements,To do my bit for the country,1,17/06/2021 12:57,17/06/2021 13:04,IP Address,For (I feel positively about the vaccines),Rarely,Most months,26,Male,NA,"Undergraduate degree (BSc, BA)",control,76,3,For,For
14,1659955168490,08/08/2022 10:39:28,1659955168222,1,08/08/2022 11:39:28,94118,2,task-net4,NA,23522185,6893640,NA,complete,NA,62f0e787a343107ac2dd6ad4,computer,Desktop or Laptop,Mac OS 10.15.6,Safari 15.0,768x1024,704x662,NA,ITT Ratings,2,against,8,NA,NA,NA,NA,NA,NA,ACCEPT,NA,NA,NA,batch8pro,batch8pro,15,12,1,Screen 1,continueButton,response_rating_scale_likert_active,5262.000000000007,NA,NA,Neither Agree nor Disagree,1,0,1,0,NA,NA,NA,NA,1,statements,I just want life to get back to somewhat normal.,1,17/06/2021 12:51,17/06/2021 13:03,IP Address,For (I feel positively about the vaccines),A few times a year,Most weeks,29,Female,NA,"Undergraduate degree (BSc, BA)",control,72,3,For,For
15,1659955171318,08/08/2022 10:39:31,1659955171056,1,08/08/2022 11:39:31,94118,2,task-net4,NA,23522185,6893640,NA,complete,NA,62f0e787a343107ac2dd6ad4,computer,Desktop or Laptop,Mac OS 10.15.6,Safari 15.0,768x1024,704x662,NA,ITT Ratings,2,against,8,NA,NA,NA,NA,NA,NA,ACCEPT,NA,NA,NA,batch8pro,batch8pro,56,13,1,Screen 1,continueButton,response_rating_scale_likert_active,2797,NA,NA,Somewhat Disagree,1,0,1,0,NA,NA,NA,NA,1,statements,I want to protect my loved ones and vulnerable people.,1,17/06/2021 12:51,17/06/2021 13:05,IP Address,For (I feel positively about the vaccines),Rarely,Most months,37,Female,NA,"Undergraduate degree (BSc, BA)",control,79,2,For,For
16,1659955173160,08/08/2022 10:39:33,1659955172893,1,08/08/2022 11:39:32,94118,2,task-net4,NA,23522185,6893640,NA,complete,NA,62f0e787a343107ac2dd6ad4,computer,Desktop or Laptop,Mac OS 10.15.6,Safari 15.0,768x1024,704x662,NA,ITT Ratings,2,against,8,NA,NA,NA,NA,NA,NA,ACCEPT,NA,NA,NA,batch8pro,batch8pro,46,14,1,Screen 1,continueButton,response_rating_scale_likert_active,1792.9999999999927,NA,NA,Strongly Agree,1,0,1,0,NA,NA,NA,NA,1,statements,It's not safe enough.,1,17/06/2021 12:57,17/06/2021 13:04,IP Address,For (I feel positively about the vaccines),Most weeks,Most weeks,30,Female,NA,A levels,choice,78,1,For,Against
17,1659955178975,08/08/2022 10:39:38,1659955178716,1,08/08/2022 11:39:38,94118,2,task-net4,NA,23522185,6893640,NA,complete,NA,62f0e787a343107ac2dd6ad4,computer,Desktop or Laptop,Mac OS 10.15.6,Safari 15.0,768x1024,704x662,NA,ITT Ratings,2,against,8,NA,NA,NA,NA,NA,NA,ACCEPT,NA,NA,NA,batch8pro,batch8pro,60,15,1,Screen 1,continueButton,response_rating_scale_likert_active,5785,NA,NA,Strongly Agree,1,0,1,0,NA,NA,NA,NA,1,statements,"COVID is no more deadly than flu and has a 99% survival rate. Therefore, we do not need to be vaccinated against it, we wouldn't do so with flu.",1,17/06/2021 12:58,17/06/2021 13:05,IP Address,For (I feel positively about the vaccines),Once or twice a year,A few times a year,21,Male,NA,A levels,control,80,3,For,Against
18,1659955182904,08/08/2022 10:39:42,1659955182634,1,08/08/2022 11:39:42,94118,2,task-net4,NA,23522185,6893640,NA,complete,NA,62f0e787a343107ac2dd6ad4,computer,Desktop or Laptop,Mac OS 10.15.6,Safari 15.0,768x1024,704x662,NA,ITT Ratings,2,against,8,NA,NA,NA,NA,NA,NA,ACCEPT,NA,NA,NA,batch8pro,batch8pro,32,16,1,Screen 1,continueButton,response_rating_scale_likert_active,3879,NA,NA,Strongly Disagree,1,0,1,0,NA,NA,NA,NA,1,statements,It is important to slow down the spread of the virus.,1,17/06/2021 12:53,17/06/2021 13:03,IP Address,For (I feel positively about the vaccines),Rarely,A few times a year,22,Female,NA,"Undergraduate degree (BSc, BA)",choice,75,2,For,For
19,1659955185300,08/08/2022 10:39:45,1659955185041,1,08/08/2022 11:39:45,94118,2,task-net4,NA,23522185,6893640,NA,complete,NA,62f0e787a343107ac2dd6ad4,computer,Desktop or Laptop,Mac OS 10.15.6,Safari 15.0,768x1024,704x662,NA,ITT Ratings,2,against,8,NA,NA,NA,NA,NA,NA,ACCEPT,NA,NA,NA,batch8pro,batch8pro,7,17,1,Screen 1,continueButton,response_rating_scale_likert_active,2362,NA,NA,Strongly Disagree,1,0,1,0,NA,NA,NA,NA,1,statements,It protects myself from getting seriously ill with Covid-19,1,17/06/2021 12:51,17/06/2021 13:02,IP Address,For (I feel positively about the vaccines),Most weeks,Most months,20,Male,NA,A levels,choice,71,1,For,For
20,1659955187974,08/08/2022 10:39:47,1659955187718,1,08/08/2022 11:39:47,94118,2,task-net4,NA,23522185,6893640,NA,complete,NA,62f0e787a343107ac2dd6ad4,computer,Desktop or Laptop,Mac OS 10.15.6,Safari 15.0,768x1024,704x662,NA,ITT Ratings,2,against,8,NA,NA,NA,NA,NA,NA,ACCEPT,NA,NA,NA,batch8pro,batch8pro,21,18,1,Screen 1,continueButton,response_rating_scale_likert_active,2640,NA,NA,Strongly Disagree,1,0,1,0,NA,NA,NA,NA,1,statements,"I'm clinically vulnerable, I would like to go out safely.",1,17/06/2021 12:46,17/06/2021 13:03,IP Address,For (I feel positively about the vaccines),Rarely,Rarely,49,Other,"my SEX (protected characteristic, please see EA 2010) is female. I don't have a gender",A levels,choice,73,3,For,For
