Event.Index,UTC.Timestamp,UTC.Date,Local.Timestamp,Local.Timezone,Local.Date,Experiment.ID,Experiment.Version,Tree.Node.Key,Repeat.Key,Schedule.ID,Participant.Private.ID,Participant.Starting.Group,Participant.Status,Participant.Completion.Code,Participant.External.Session.ID,Participant.Device.Type,Participant.Device,Participant.OS,Participant.Browser,Participant.Monitor.Size,Participant.Viewport.Size,Checkpoint,Task.Name,Task.Version,branch.69an,randomiser.8vg2,quota.bqtt,quota.rycs,quota.wtfi,quota.usve,quota.zgic,quota.f3yz,quota.r9vy,quota.tfqq,quota.3dga,quota.dtj6,Spreadsheet,Spreadsheet.Name,Spreadsheet.Row,Trial.Number,Screen.Number,Screen.Name,Zone.Name,Zone.Type,Reaction.Time,Reaction.Onset,Response.Type,Response,Attempt,Correct,Incorrect,Dishonest,X.Coordinate,Y.Coordinate,Timed.Out,randomise_blocks,randomise_trials,display,Arguments,ShowProgressBar,StartDate,EndDate,Status,prolif_check,discuss_1,read_1,age,gender,gender_4_TEXT,edu,condition,ID,arg_ID,Position,Arg_Position
1,1659953744958,08/08/2022 10:15:44,1659953744788,1,08/08/2022 11:15:44,94118,2,task-xidh,NA,23521556,6893452,NA,complete,NA,62f0e2323a7e5971a931382f,computer,Desktop or Laptop,Windows 10,Edge 103.0.1264.77,1504x1003,1504x860,NA,ITT Ratings,2,against,9,NA,NA,NA,NA,NA,NA,NA,ACCEPT,NA,NA,batch9pro,NA,NA,BEGIN TASK,NA,NA,NA,NA,NA,NA,NA,NA,NA,0,1,0,NA,NA,NA,NA,NA,NA,NA,NA,NA,NA,NA,NA,NA,NA,NA,NA,NA,NA,NA,NA,NA,NA,NA
2,1659953751005,08/08/2022 10:15:51,1659953750742,1,08/08/2022 11:15:50,94118,2,task-xidh,NA,23521556,6893452,NA,complete,NA,62f0e2323a7e5971a931382f,computer,Desktop or Laptop,Windows 10,Edge 103.0.1264.77,1504x1003,1504x860,NA,ITT Ratings,2,against,9,NA,NA,NA,NA,NA,NA,NA,ACCEPT,NA,NA,batch9pro,batch9pro,1,1,1,Screen 1,advancementZone,continue_button,5888.5999999940395,NA,NA,NA,NA,0,1,0,NA,NA,NA,NA,NA,instructions,NA,NA,NA,NA,NA,NA,NA,NA,NA,NA,NA,NA,NA,NA,NA,NA,NA
3,1659953756252,08/08/2022 10:15:56,1659953756114,1,08/08/2022 11:15:56,94118,2,task-xidh,NA,23521556,6893452,NA,complete,NA,62f0e2323a7e5971a931382f,computer,Desktop or Laptop,Windows 10,Edge 103.0.1264.77,1504x1003,1504x860,NA,ITT Ratings,2,against,9,NA,NA,NA,NA,NA,NA,NA,ACCEPT,NA,NA,batch9pro,batch9pro,54,1,1,Screen 1,continueButton,response_rating_scale_likert_active,5342.5,NA,NA,Strongly Agree,1,0,1,0,NA,NA,NA,NA,1,statements,There's not been enough time to make the vaccine work properly,1,17/06/2021 12:53,17/06/2021 13:08,IP Address,For (I feel positively about the vaccines),A few times a year,Rarely,33,Female,NA,"Undergraduate degree (BSc, BA)",control,89,3,For,Against
4,1659953760598,08/08/2022 10:16:00,1659953760380,1,08/08/2022 11:16:00,94118,2,task-xidh,NA,23521556,6893452,NA,complete,NA,62f0e2323a7e5971a931382f,computer,Desktop or Laptop,Windows 10,Edge 103.0.1264.77,1504x1003,1504x860,NA,ITT Ratings,2,against,9,NA,NA,NA,NA,NA,NA,NA,ACCEPT,NA,NA,batch9pro,batch9pro,63,2,1,Screen 1,continueButton,response_rating_scale_likert_active,4249.9000000059605,NA,NA,Somewhat Disagree,1,0,1,0,NA,NA,NA,NA,1,statements,I want to help with group immunity for those who are unable to have vaccines,1,17/06/2021 12:53,17/06/2021 13:08,IP Address,For (I feel positively about the vaccines),Most weeks,Most months,25,Female,NA,"Undergraduate degree (BSc, BA)",control,90,3,For,For
5,1659953764832,08/08/2022 10:16:04,1659953764655,1,08/08/2022 11:16:04,94118,2,task-xidh,NA,23521556,6893452,NA,complete,NA,62f0e2323a7e5971a931382f,computer,Desktop or Laptop,Windows 10,Edge 103.0.1264.77,1504x1003,1504x860,NA,ITT Ratings,2,against,9,NA,NA,NA,NA,NA,NA,NA,ACCEPT,NA,NA,batch9pro,batch9pro,7,3,1,Screen 1,continueButton,response_rating_scale_likert_active,4256.399999976158,NA,NA,Strongly Disagree,1,0,1,0,NA,NA,NA,NA,1,statements,I will be fully protected from covid 19 and protect those around me,1,17/06/2021 12:57,17/06/2021 13:05,IP Address,For (I feel positively about the vaccines),Rarely,Most weeks,31,Male,NA,"Undergraduate degree (BSc, BA)",choice,81,1,For,For
6,1659953766587,08/08/2022 10:16:06,1659953766586,1,08/08/2022 11:16:06,94118,2,task-xidh,NA,23521556,6893452,NA,complete,NA,62f0e2323a7e5971a931382f,computer,Desktop or Laptop,Windows 10,Edge 103.0.1264.77,1504x1003,1504x860,NA,ITT Ratings,2,against,9,NA,NA,NA,NA,NA,NA,NA,ACCEPT,NA,NA,batch9pro,batch9pro,31,4,1,Screen 1,continueButton,response_rating_scale_likert_active,1915.5,NA,NA,Strongly Disagree,1,0,1,0,NA,NA,NA,NA,1,statements,It's the only way to conquer and get rid of the virus,1,17/06/2021 12:58,17/06/2021 13:06,IP Address,For (I feel positively about the vaccines),Rarely,Most weeks,57,Female,NA,"Undergraduate degree (BSc, BA)",control,85,1,For,For
7,1659953768919,08/08/2022 10:16:08,1659953768826,1,08/08/2022 11:16:08,94118,2,task-xidh,NA,23521556,6893452,NA,complete,NA,62f0e2323a7e5971a931382f,computer,Desktop or Laptop,Windows 10,Edge 103.0.1264.77,1504x1003,1504x860,NA,ITT Ratings,2,against,9,NA,NA,NA,NA,NA,NA,NA,ACCEPT,NA,NA,batch9pro,batch9pro,41,5,1,Screen 1,continueButton,response_rating_scale_likert_active,2226.0999999940395,NA,NA,Somewhat Agree,1,0,1,0,NA,NA,NA,NA,1,statements,They are trying to control us,1,17/06/2021 12:58,17/06/2021 13:06,IP Address,For (I feel positively about the vaccines),Never,Most months,35,Female,NA,A levels,control,87,2,For,Against
8,1659953771300,08/08/2022 10:16:11,1659953771212,1,08/08/2022 11:16:11,94118,2,task-xidh,NA,23521556,6893452,NA,complete,NA,62f0e2323a7e5971a931382f,computer,Desktop or Laptop,Windows 10,Edge 103.0.1264.77,1504x1003,1504x860,NA,ITT Ratings,2,against,9,NA,NA,NA,NA,NA,NA,NA,ACCEPT,NA,NA,batch9pro,batch9pro,55,6,1,Screen 1,continueButton,response_rating_scale_likert_active,2363.100000023842,NA,NA,Somewhat Agree,1,0,1,0,NA,NA,NA,NA,1,statements,I want to protect myself and my family,1,17/06/2021 12:53,17/06/2021 13:08,IP Address,For (I feel positively about the vaccines),A few times a year,Rarely,33,Female,NA,"Undergraduate degree (BSc, BA)",control,89,1,For,For
9,1659953773286,08/08/2022 10:16:13,1659953773200,1,08/08/2022 11:16:13,94118,2,task-xidh,NA,23521556,6893452,NA,complete,NA,62f0e2323a7e5971a931382f,computer,Desktop or Laptop,Windows 10,Edge 103.0.1264.77,1504x1003,1504x860,NA,ITT Ratings,2,against,9,NA,NA,NA,NA,NA,NA,NA,ACCEPT,NA,NA,batch9pro,batch9pro,40,7,1,Screen 1,continueButton,response_rating_scale_likert_active,1970.199999988079,NA,NA,Strongly Agree,1,0,1,0,NA,NA,NA,NA,1,statements,There hasn't been long enough to develop a vaccination,1,17/06/2021 12:58,17/06/2021 13:06,IP Address,For (I feel positively about the vaccines),Never,Most months,35,Female,NA,A levels,control,87,1,For,Against
10,1659953777503,08/08/2022 10:16:17,1659953777407,1,08/08/2022 11:16:17,94118,2,task-xidh,NA,23521556,6893452,NA,complete,NA,62f0e2323a7e5971a931382f,computer,Desktop or Laptop,Windows 10,Edge 103.0.1264.77,1504x1003,1504x860,NA,ITT Ratings,2,against,9,NA,NA,NA,NA,NA,NA,NA,ACCEPT,NA,NA,batch9pro,batch9pro,62,8,1,Screen 1,continueButton,response_rating_scale_likert_active,4191,NA,NA,Disagree,1,0,1,0,NA,NA,NA,NA,1,statements,It helps me feel safer about returning to normal life,1,17/06/2021 12:53,17/06/2021 13:08,IP Address,For (I feel positively about the vaccines),Most weeks,Most months,25,Female,NA,"Undergraduate degree (BSc, BA)",control,90,2,For,For
11,1659953779299,08/08/2022 10:16:19,1659953779094,1,08/08/2022 11:16:19,94118,2,task-xidh,NA,23521556,6893452,NA,complete,NA,62f0e2323a7e5971a931382f,computer,Desktop or Laptop,Windows 10,Edge 103.0.1264.77,1504x1003,1504x860,NA,ITT Ratings,2,against,9,NA,NA,NA,NA,NA,NA,NA,ACCEPT,NA,NA,batch9pro,batch9pro,20,9,1,Screen 1,continueButton,response_rating_scale_likert_active,1672.0999999940395,NA,NA,Disagree,1,0,1,0,NA,NA,NA,NA,1,statements,I don't want to risk dying,1,17/06/2021 12:57,17/06/2021 13:06,IP Address,For (I feel positively about the vaccines),Rarely,A few times a year,31,Female,NA,"Undergraduate degree (BSc, BA)",choice,83,2,For,For
12,1659953781497,08/08/2022 10:16:21,1659953781410,1,08/08/2022 11:16:21,94118,2,task-xidh,NA,23521556,6893452,NA,complete,NA,62f0e2323a7e5971a931382f,computer,Desktop or Laptop,Windows 10,Edge 103.0.1264.77,1504x1003,1504x860,NA,ITT Ratings,2,against,9,NA,NA,NA,NA,NA,NA,NA,ACCEPT,NA,NA,batch9pro,batch9pro,60,10,1,Screen 1,continueButton,response_rating_scale_likert_active,2301.5999999940395,NA,NA,Strongly Agree,1,0,1,0,NA,NA,NA,NA,1,statements,We don't know how effective the vaccine is yet,1,17/06/2021 12:53,17/06/2021 13:08,IP Address,For (I feel positively about the vaccines),Most weeks,Most months,25,Female,NA,"Undergraduate degree (BSc, BA)",control,90,3,For,Against
13,1659953783987,08/08/2022 10:16:23,1659953783871,1,08/08/2022 11:16:23,94118,2,task-xidh,NA,23521556,6893452,NA,complete,NA,62f0e2323a7e5971a931382f,computer,Desktop or Laptop,Windows 10,Edge 103.0.1264.77,1504x1003,1504x860,NA,ITT Ratings,2,against,9,NA,NA,NA,NA,NA,NA,NA,ACCEPT,NA,NA,batch9pro,batch9pro,23,11,1,Screen 1,continueButton,response_rating_scale_likert_active,2444.199999988079,NA,NA,Neither Agree nor Disagree,1,0,1,0,NA,NA,NA,NA,1,statements,thinking its a means of government control (conspiracy),1,17/06/2021 12:58,17/06/2021 13:06,IP Address,For (I feel positively about the vaccines),Rarely,Rarely,19,Male,NA,A levels,choice,84,2,For,Against
14,1659953786302,08/08/2022 10:16:26,1659953786302,1,08/08/2022 11:16:26,94118,2,task-xidh,NA,23521556,6893452,NA,complete,NA,62f0e2323a7e5971a931382f,computer,Desktop or Laptop,Windows 10,Edge 103.0.1264.77,1504x1003,1504x860,NA,ITT Ratings,2,against,9,NA,NA,NA,NA,NA,NA,NA,ACCEPT,NA,NA,batch9pro,batch9pro,8,12,1,Screen 1,continueButton,response_rating_scale_likert_active,2417.4000000059605,NA,NA,Somewhat Disagree,1,0,1,0,NA,NA,NA,NA,1,statements,Vaccines are well researched and tested before being distributed to the public,1,17/06/2021 12:57,17/06/2021 13:05,IP Address,For (I feel positively about the vaccines),Rarely,Most weeks,31,Male,NA,"Undergraduate degree (BSc, BA)",choice,81,2,For,For
15,1659953788385,08/08/2022 10:16:28,1659953788297,1,08/08/2022 11:16:28,94118,2,task-xidh,NA,23521556,6893452,NA,complete,NA,62f0e2323a7e5971a931382f,computer,Desktop or Laptop,Windows 10,Edge 103.0.1264.77,1504x1003,1504x860,NA,ITT Ratings,2,against,9,NA,NA,NA,NA,NA,NA,NA,ACCEPT,NA,NA,batch9pro,batch9pro,19,13,1,Screen 1,continueButton,response_rating_scale_likert_active,1980.699999988079,NA,NA,Somewhat Agree,1,0,1,0,NA,NA,NA,NA,1,statements,I want to get back to normality,1,17/06/2021 12:57,17/06/2021 13:06,IP Address,For (I feel positively about the vaccines),Rarely,A few times a year,31,Female,NA,"Undergraduate degree (BSc, BA)",choice,83,1,For,For
16,1659953795853,08/08/2022 10:16:35,1659953795754,1,08/08/2022 11:16:35,94118,2,task-xidh,NA,23521556,6893452,NA,complete,NA,62f0e2323a7e5971a931382f,computer,Desktop or Laptop,Windows 10,Edge 103.0.1264.77,1504x1003,1504x860,NA,ITT Ratings,2,against,9,NA,NA,NA,NA,NA,NA,NA,ACCEPT,NA,NA,batch9pro,batch9pro,38,14,1,Screen 1,continueButton,response_rating_scale_likert_active,7440,NA,NA,Somewhat Agree,1,0,1,0,NA,NA,NA,NA,1,statements,its about other peoples health swell as your own,1,17/06/2021 12:55,17/06/2021 13:06,IP Address,For (I feel positively about the vaccines),Rarely,Most days,19,Female,NA,A levels,control,86,2,For,For
17,1659953797642,08/08/2022 10:16:37,1659953797557,1,08/08/2022 11:16:37,94118,2,task-xidh,NA,23521556,6893452,NA,complete,NA,62f0e2323a7e5971a931382f,computer,Desktop or Laptop,Windows 10,Edge 103.0.1264.77,1504x1003,1504x860,NA,ITT Ratings,2,against,9,NA,NA,NA,NA,NA,NA,NA,ACCEPT,NA,NA,batch9pro,batch9pro,46,15,1,Screen 1,continueButton,response_rating_scale_likert_active,1786.0999999940395,NA,NA,Somewhat Disagree,1,0,1,0,NA,NA,NA,NA,1,statements,I don't believe in vaccinations.,1,17/06/2021 13:00,17/06/2021 13:07,IP Address,For (I feel positively about the vaccines),A few times a year,Most months,31,Female,NA,"Undergraduate degree (BSc, BA)",choice,88,1,For,Against
18,1659953800944,08/08/2022 10:16:40,1659953800058,1,08/08/2022 11:16:40,94118,2,task-xidh,NA,23521556,6893452,NA,complete,NA,62f0e2323a7e5971a931382f,computer,Desktop or Laptop,Windows 10,Edge 103.0.1264.77,1504x1003,1504x860,NA,ITT Ratings,2,against,9,NA,NA,NA,NA,NA,NA,NA,ACCEPT,NA,NA,batch9pro,batch9pro,14,16,1,Screen 1,continueButton,response_rating_scale_likert_active,2491.9000000059605,NA,NA,Somewhat Disagree,1,0,1,0,NA,NA,NA,NA,1,statements,It will get everyone safer,1,17/06/2021 12:57,17/06/2021 13:06,IP Address,For (I feel positively about the vaccines),Never,Rarely,28,Female,NA,"Undergraduate degree (BSc, BA)",choice,82,2,For,For
19,1659953802407,08/08/2022 10:16:42,1659953802309,1,08/08/2022 11:16:42,94118,2,task-xidh,NA,23521556,6893452,NA,complete,NA,62f0e2323a7e5971a931382f,computer,Desktop or Laptop,Windows 10,Edge 103.0.1264.77,1504x1003,1504x860,NA,ITT Ratings,2,against,9,NA,NA,NA,NA,NA,NA,NA,ACCEPT,NA,NA,batch9pro,batch9pro,36,17,1,Screen 1,continueButton,response_rating_scale_likert_active,2239.300000011921,NA,NA,Strongly Agree,1,0,1,0,NA,NA,NA,NA,1,statements,the effectiveness hasn't really been proven,1,17/06/2021 12:55,17/06/2021 13:06,IP Address,For (I feel positively about the vaccines),Rarely,Most days,19,Female,NA,A levels,control,86,3,For,Against
20,1659953804808,08/08/2022 10:16:44,1659953804714,1,08/08/2022 11:16:44,94118,2,task-xidh,NA,23521556,6893452,NA,complete,NA,62f0e2323a7e5971a931382f,computer,Desktop or Laptop,Windows 10,Edge 103.0.1264.77,1504x1003,1504x860,NA,ITT Ratings,2,against,9,NA,NA,NA,NA,NA,NA,NA,ACCEPT,NA,NA,batch9pro,batch9pro,21,18,1,Screen 1,continueButton,response_rating_scale_likert_active,2393.399999976158,NA,NA,Somewhat Agree,1,0,1,0,NA,NA,NA,NA,1,statements,I want to protect my family and friends,1,17/06/2021 12:57,17/06/2021 13:06,IP Address,For (I feel positively about the vaccines),Rarely,A few times a year,31,Female,NA,"Undergraduate degree (BSc, BA)",choice,83,3,For,For
21,1659953806477,08/08/2022 10:16:46,1659953806383,1,08/08/2022 11:16:46,94118,2,task-xidh,NA,23521556,6893452,NA,complete,NA,62f0e2323a7e5971a931382f,computer,Desktop or Laptop,Windows 10,Edge 103.0.1264.77,1504x1003,1504x860,NA,ITT Ratings,2,against,9,NA,NA,NA,NA,NA,NA,NA,ACCEPT,NA,NA,batch9pro,batch9pro,16,19,1,Screen 1,continueButton,response_rating_scale_likert_active,1658.5,NA,NA,Strongly Agree,1,0,1,0,NA,NA,NA,NA,1,statements,It hasn't been around long enough to know the long term effects,1,17/06/2021 12:57,17/06/2021 13:06,IP Address,For (I feel positively about the vaccines),Rarely,A few times a year,31,Female,NA,"Undergraduate degree (BSc, BA)",choice,83,1,For,Against
22,1659953808984,08/08/2022 10:16:48,1659953808901,1,08/08/2022 11:16:48,94118,2,task-xidh,NA,23521556,6893452,NA,complete,NA,62f0e2323a7e5971a931382f,computer,Desktop or Laptop,Windows 10,Edge 103.0.1264.77,1504x1003,1504x860,NA,ITT Ratings,2,against,9,NA,NA,NA,NA,NA,NA,NA,ACCEPT,NA,NA,batch9pro,batch9pro,51,20,1,Screen 1,continueButton,response_rating_scale_likert_active,2503.0999999940395,NA,NA,Agree,1,0,1,0,NA,NA,NA,NA,1,statements,I believe the vaccine is safe.,1,17/06/2021 13:00,17/06/2021 13:07,IP Address,For (I feel positively about the vaccines),A few times a year,Most months,31,Female,NA,"Undergraduate degree (BSc, BA)",choice,88,3,For,For
23,1659953811076,08/08/2022 10:16:51,1659953810980,1,08/08/2022 11:16:50,94118,2,task-xidh,NA,23521556,6893452,NA,complete,NA,62f0e2323a7e5971a931382f,computer,Desktop or Laptop,Windows 10,Edge 103.0.1264.77,1504x1003,1504x860,NA,ITT Ratings,2,against,9,NA,NA,NA,NA,NA,NA,NA,ACCEPT,NA,NA,batch9pro,batch9pro,57,21,1,Screen 1,continueButton,response_rating_scale_likert_active,2068.0999999940395,NA,NA,Disagree,1,0,1,0,NA,NA,NA,NA,1,statements,I trust that this vaccine will work,1,17/06/2021 12:53,17/06/2021 13:08,IP Address,For (I feel positively about the vaccines),A few times a year,Rarely,33,Female,NA,"Undergraduate degree (BSc, BA)",control,89,3,For,For
24,1659953813089,08/08/2022 10:16:53,1659953812990,1,08/08/2022 11:16:52,94118,2,task-xidh,NA,23521556,6893452,NA,complete,NA,62f0e2323a7e5971a931382f,computer,Desktop or Laptop,Windows 10,Edge 103.0.1264.77,1504x1003,1504x860,NA,ITT Ratings,2,against,9,NA,NA,NA,NA,NA,NA,NA,ACCEPT,NA,NA,batch9pro,batch9pro,61,22,1,Screen 1,continueButton,response_rating_scale_likert_active,1993.7999999821184,NA,NA,Disagree,1,0,1,0,NA,NA,NA,NA,1,statements,Scientists are recommending it and they know best,1,17/06/2021 12:53,17/06/2021 13:08,IP Address,For (I feel positively about the vaccines),Most weeks,Most months,25,Female,NA,"Undergraduate degree (BSc, BA)",control,90,1,For,For
25,1659953815146,08/08/2022 10:16:55,1659953814947,1,08/08/2022 11:16:54,94118,2,task-xidh,NA,23521556,6893452,NA,complete,NA,62f0e2323a7e5971a931382f,computer,Desktop or Laptop,Windows 10,Edge 103.0.1264.77,1504x1003,1504x860,NA,ITT Ratings,2,against,9,NA,NA,NA,NA,NA,NA,NA,ACCEPT,NA,NA,batch9pro,batch9pro,10,23,1,Screen 1,continueButton,response_rating_scale_likert_active,1943.399999976158,NA,NA,Strongly Agree,1,0,1,0,NA,NA,NA,NA,1,statements,Time of development,1,17/06/2021 12:57,17/06/2021 13:06,IP Address,For (I feel positively about the vaccines),Never,Rarely,28,Female,NA,"Undergraduate degree (BSc, BA)",choice,82,1,For,Against
26,1659953816687,08/08/2022 10:16:56,1659953816600,1,08/08/2022 11:16:56,94118,2,task-xidh,NA,23521556,6893452,NA,complete,NA,62f0e2323a7e5971a931382f,computer,Desktop or Laptop,Windows 10,Edge 103.0.1264.77,1504x1003,1504x860,NA,ITT Ratings,2,against,9,NA,NA,NA,NA,NA,NA,NA,ACCEPT,NA,NA,batch9pro,batch9pro,53,24,1,Screen 1,continueButton,response_rating_scale_likert_active,1638.0999999940395,NA,NA,Strongly Agree,1,0,1,0,NA,NA,NA,NA,1,statements,I don't trust the vaccine works,1,17/06/2021 12:53,17/06/2021 13:08,IP Address,For (I feel positively about the vaccines),A few times a year,Rarely,33,Female,NA,"Undergraduate degree (BSc, BA)",control,89,2,For,Against
27,1659953820360,08/08/2022 10:17:00,1659953819277,1,08/08/2022 11:16:59,94118,2,task-xidh,NA,23521556,6893452,NA,complete,NA,62f0e2323a7e5971a931382f,computer,Desktop or Laptop,Windows 10,Edge 103.0.1264.77,1504x1003,1504x860,NA,ITT Ratings,2,against,9,NA,NA,NA,NA,NA,NA,NA,ACCEPT,NA,NA,batch9pro,batch9pro,39,25,1,Screen 1,continueButton,response_rating_scale_likert_active,2661.600000023842,NA,NA,Somewhat Disagree,1,0,1,0,NA,NA,NA,NA,1,statements,its responsible to do,1,17/06/2021 12:55,17/06/2021 13:06,IP Address,For (I feel positively about the vaccines),Rarely,Most days,19,Female,NA,A levels,control,86,3,For,For
28,1659953821840,08/08/2022 10:17:01,1659953821842,1,08/08/2022 11:17:01,94118,2,task-xidh,NA,23521556,6893452,NA,complete,NA,62f0e2323a7e5971a931382f,computer,Desktop or Laptop,Windows 10,Edge 103.0.1264.77,1504x1003,1504x860,NA,ITT Ratings,2,against,9,NA,NA,NA,NA,NA,NA,NA,ACCEPT,NA,NA,batch9pro,batch9pro,5,26,1,Screen 1,continueButton,response_rating_scale_likert_active,2547.9000000059605,NA,NA,Strongly Disagree,1,0,1,0,NA,NA,NA,NA,1,statements,The government can track me if I take the vaccine,1,17/06/2021 12:57,17/06/2021 13:05,IP Address,For (I feel positively about the vaccines),Rarely,Most weeks,31,Male,NA,"Undergraduate degree (BSc, BA)",choice,81,2,For,Against
29,1659953824547,08/08/2022 10:17:04,1659953824431,1,08/08/2022 11:17:04,94118,2,task-xidh,NA,23521556,6893452,NA,complete,NA,62f0e2323a7e5971a931382f,computer,Desktop or Laptop,Windows 10,Edge 103.0.1264.77,1504x1003,1504x860,NA,ITT Ratings,2,against,9,NA,NA,NA,NA,NA,NA,NA,ACCEPT,NA,NA,batch9pro,batch9pro,37,27,1,Screen 1,continueButton,response_rating_scale_likert_active,2571.4000000059605,NA,NA,Somewhat Agree,1,0,1,0,NA,NA,NA,NA,1,statements,its a start to ending covid,1,17/06/2021 12:55,17/06/2021 13:06,IP Address,For (I feel positively about the vaccines),Rarely,Most days,19,Female,NA,A levels,control,86,1,For,For
30,1659953826683,08/08/2022 10:17:06,1659953826673,1,08/08/2022 11:17:06,94118,2,task-xidh,NA,23521556,6893452,NA,complete,NA,62f0e2323a7e5971a931382f,computer,Desktop or Laptop,Windows 10,Edge 103.0.1264.77,1504x1003,1504x860,NA,ITT Ratings,2,against,9,NA,NA,NA,NA,NA,NA,NA,ACCEPT,NA,NA,batch9pro,batch9pro,9,28,1,Screen 1,continueButton,response_rating_scale_likert_active,2230.4000000059605,NA,NA,Somewhat Agree,1,0,1,0,NA,NA,NA,NA,1,statements,It will enable the country to come out of lockdown quicker if more people are vaccinated,1,17/06/2021 12:57,17/06/2021 13:05,IP Address,For (I feel positively about the vaccines),Rarely,Most weeks,31,Male,NA,"Undergraduate degree (BSc, BA)",choice,81,3,For,For
31,1659953829425,08/08/2022 10:17:09,1659953829349,1,08/08/2022 11:17:09,94118,2,task-xidh,NA,23521556,6893452,NA,complete,NA,62f0e2323a7e5971a931382f,computer,Desktop or Laptop,Windows 10,Edge 103.0.1264.77,1504x1003,1504x860,NA,ITT Ratings,2,against,9,NA,NA,NA,NA,NA,NA,NA,ACCEPT,NA,NA,batch9pro,batch9pro,15,29,1,Screen 1,continueButton,response_rating_scale_likert_active,2656.699999988079,NA,NA,Strongly Agree,1,0,1,0,NA,NA,NA,NA,1,statements,It's been tested and shown to work,1,17/06/2021 12:57,17/06/2021 13:06,IP Address,For (I feel positively about the vaccines),Never,Rarely,28,Female,NA,"Undergraduate degree (BSc, BA)",choice,82,3,For,For
32,1659953833671,08/08/2022 10:17:13,1659953833543,1,08/08/2022 11:17:13,94118,2,task-xidh,NA,23521556,6893452,NA,complete,NA,62f0e2323a7e5971a931382f,computer,Desktop or Laptop,Windows 10,Edge 103.0.1264.77,1504x1003,1504x860,NA,ITT Ratings,2,against,9,NA,NA,NA,NA,NA,NA,NA,ACCEPT,NA,NA,batch9pro,batch9pro,35,30,1,Screen 1,continueButton,response_rating_scale_likert_active,4184.699999988079,NA,NA,Somewhat Agree,1,0,1,0,NA,NA,NA,NA,1,statements,the side effects short term and long term,1,17/06/2021 12:55,17/06/2021 13:06,IP Address,For (I feel positively about the vaccines),Rarely,Most days,19,Female,NA,A levels,control,86,2,For,Against
33,1659953835790,08/08/2022 10:17:15,1659953835689,1,08/08/2022 11:17:15,94118,2,task-xidh,NA,23521556,6893452,NA,complete,NA,62f0e2323a7e5971a931382f,computer,Desktop or Laptop,Windows 10,Edge 103.0.1264.77,1504x1003,1504x860,NA,ITT Ratings,2,against,9,NA,NA,NA,NA,NA,NA,NA,ACCEPT,NA,NA,batch9pro,batch9pro,58,31,1,Screen 1,continueButton,response_rating_scale_likert_active,2131.5,NA,NA,Strongly Agree,1,0,1,0,NA,NA,NA,NA,1,statements,The vaccine has been developed too quickly so they're not sure it's safe,1,17/06/2021 12:53,17/06/2021 13:08,IP Address,For (I feel positively about the vaccines),Most weeks,Most months,25,Female,NA,"Undergraduate degree (BSc, BA)",control,90,1,For,Against
34,1659953838568,08/08/2022 10:17:18,1659953838479,1,08/08/2022 11:17:18,94118,2,task-xidh,NA,23521556,6893452,NA,complete,NA,62f0e2323a7e5971a931382f,computer,Desktop or Laptop,Windows 10,Edge 103.0.1264.77,1504x1003,1504x860,NA,ITT Ratings,2,against,9,NA,NA,NA,NA,NA,NA,NA,ACCEPT,NA,NA,batch9pro,batch9pro,33,32,1,Screen 1,continueButton,response_rating_scale_likert_active,2775.800000011921,NA,NA,Somewhat Disagree,1,0,1,0,NA,NA,NA,NA,1,statements,Being vaccinated gives more freedom to open up the world again,1,17/06/2021 12:58,17/06/2021 13:06,IP Address,For (I feel positively about the vaccines),Rarely,Most weeks,57,Female,NA,"Undergraduate degree (BSc, BA)",control,85,3,For,For
35,1659953840665,08/08/2022 10:17:20,1659953840593,1,08/08/2022 11:17:20,94118,2,task-xidh,NA,23521556,6893452,NA,complete,NA,62f0e2323a7e5971a931382f,computer,Desktop or Laptop,Windows 10,Edge 103.0.1264.77,1504x1003,1504x860,NA,ITT Ratings,2,against,9,NA,NA,NA,NA,NA,NA,NA,ACCEPT,NA,NA,batch9pro,batch9pro,13,33,1,Screen 1,continueButton,response_rating_scale_likert_active,2099,NA,NA,Somewhat Disagree,1,0,1,0,NA,NA,NA,NA,1,statements,It protects my family,1,17/06/2021 12:57,17/06/2021 13:06,IP Address,For (I feel positively about the vaccines),Never,Rarely,28,Female,NA,"Undergraduate degree (BSc, BA)",choice,82,1,For,For
36,1659953843490,08/08/2022 10:17:23,1659953843405,1,08/08/2022 11:17:23,94118,2,task-xidh,NA,23521556,6893452,NA,complete,NA,62f0e2323a7e5971a931382f,computer,Desktop or Laptop,Windows 10,Edge 103.0.1264.77,1504x1003,1504x860,NA,ITT Ratings,2,against,9,NA,NA,NA,NA,NA,NA,NA,ACCEPT,NA,NA,batch9pro,batch9pro,24,34,1,Screen 1,continueButton,response_rating_scale_likert_active,2795.9000000059605,NA,NA,Strongly Agree,1,0,1,0,NA,NA,NA,NA,1,statements,my body my choice sort of argument,1,17/06/2021 12:58,17/06/2021 13:06,IP Address,For (I feel positively about the vaccines),Rarely,Rarely,19,Male,NA,A levels,choice,84,3,For,Against
37,1659953850341,08/08/2022 10:17:30,1659953850241,1,08/08/2022 11:17:30,94118,2,task-xidh,NA,23521556,6893452,NA,complete,NA,62f0e2323a7e5971a931382f,computer,Desktop or Laptop,Windows 10,Edge 103.0.1264.77,1504x1003,1504x860,NA,ITT Ratings,2,against,9,NA,NA,NA,NA,NA,NA,NA,ACCEPT,NA,NA,batch9pro,batch9pro,25,35,1,Screen 1,continueButton,response_rating_scale_likert_active,6823.0999999940395,NA,NA,Disagree,1,0,1,0,NA,NA,NA,NA,1,statements,protecting yourself; making yourself immune,1,17/06/2021 12:58,17/06/2021 13:06,IP Address,For (I feel positively about the vaccines),Rarely,Rarely,19,Male,NA,A levels,choice,84,1,For,For
38,1659953854356,08/08/2022 10:17:34,1659953854222,1,08/08/2022 11:17:34,94118,2,task-xidh,NA,23521556,6893452,NA,complete,NA,62f0e2323a7e5971a931382f,computer,Desktop or Laptop,Windows 10,Edge 103.0.1264.77,1504x1003,1504x860,NA,ITT Ratings,2,against,9,NA,NA,NA,NA,NA,NA,NA,ACCEPT,NA,NA,batch9pro,batch9pro,48,36,1,Screen 1,continueButton,response_rating_scale_likert_active,3962.400000005961,NA,NA,Disagree,1,0,1,0,NA,NA,NA,NA,1,statements,I don't believe in Covid-19.,1,17/06/2021 13:00,17/06/2021 13:07,IP Address,For (I feel positively about the vaccines),A few times a year,Most months,31,Female,NA,"Undergraduate degree (BSc, BA)",choice,88,3,For,Against
39,1659953860069,08/08/2022 10:17:40,1659953860066,1,08/08/2022 11:17:40,94118,2,task-xidh,NA,23521556,6893452,NA,complete,NA,62f0e2323a7e5971a931382f,computer,Desktop or Laptop,Windows 10,Edge 103.0.1264.77,1504x1003,1504x860,NA,ITT Ratings,2,against,9,NA,NA,NA,NA,NA,NA,NA,ACCEPT,NA,NA,batch9pro,batch9pro,30,37,1,Screen 1,continueButton,response_rating_scale_likert_active,5826.5,NA,NA,Strongly Agree,1,0,1,0,NA,NA,NA,NA,1,statements,Possible side effects,1,17/06/2021 12:58,17/06/2021 13:06,IP Address,For (I feel positively about the vaccines),Rarely,Most weeks,57,Female,NA,"Undergraduate degree (BSc, BA)",control,85,3,For,Against
40,1659953862093,08/08/2022 10:17:42,1659953862008,1,08/08/2022 11:17:42,94118,2,task-xidh,NA,23521556,6893452,NA,complete,NA,62f0e2323a7e5971a931382f,computer,Desktop or Laptop,Windows 10,Edge 103.0.1264.77,1504x1003,1504x860,NA,ITT Ratings,2,against,9,NA,NA,NA,NA,NA,NA,NA,ACCEPT,NA,NA,batch9pro,batch9pro,11,38,1,Screen 1,continueButton,response_rating_scale_likert_active,1928.0999999940395,NA,NA,Agree,1,0,1,0,NA,NA,NA,NA,1,statements,I'm only young so I don't need it,1,17/06/2021 12:57,17/06/2021 13:06,IP Address,For (I feel positively about the vaccines),Never,Rarely,28,Female,NA,"Undergraduate degree (BSc, BA)",choice,82,2,For,Against
41,1659953864598,08/08/2022 10:17:44,1659953864521,1,08/08/2022 11:17:44,94118,2,task-xidh,NA,23521556,6893452,NA,complete,NA,62f0e2323a7e5971a931382f,computer,Desktop or Laptop,Windows 10,Edge 103.0.1264.77,1504x1003,1504x860,NA,ITT Ratings,2,against,9,NA,NA,NA,NA,NA,NA,NA,ACCEPT,NA,NA,batch9pro,batch9pro,45,39,1,Screen 1,continueButton,response_rating_scale_likert_active,2499.7999999821186,NA,NA,Somewhat Agree,1,0,1,0,NA,NA,NA,NA,1,statements,I want to protect loved ones,1,17/06/2021 12:58,17/06/2021 13:06,IP Address,For (I feel positively about the vaccines),Never,Most months,35,Female,NA,A levels,control,87,3,For,For
42,1659953866093,08/08/2022 10:17:46,1659953866005,1,08/08/2022 11:17:46,94118,2,task-xidh,NA,23521556,6893452,NA,complete,NA,62f0e2323a7e5971a931382f,computer,Desktop or Laptop,Windows 10,Edge 103.0.1264.77,1504x1003,1504x860,NA,ITT Ratings,2,against,9,NA,NA,NA,NA,NA,NA,NA,ACCEPT,NA,NA,batch9pro,batch9pro,27,40,1,Screen 1,continueButton,response_rating_scale_likert_active,1474.0999999940395,NA,NA,Strongly Agree,1,0,1,0,NA,NA,NA,NA,1,statements,hope for herd immunity,1,17/06/2021 12:58,17/06/2021 13:06,IP Address,For (I feel positively about the vaccines),Rarely,Rarely,19,Male,NA,A levels,choice,84,3,For,For
43,1659953867644,08/08/2022 10:17:47,1659953867566,1,08/08/2022 11:17:47,94118,2,task-xidh,NA,23521556,6893452,NA,complete,NA,62f0e2323a7e5971a931382f,computer,Desktop or Laptop,Windows 10,Edge 103.0.1264.77,1504x1003,1504x860,NA,ITT Ratings,2,against,9,NA,NA,NA,NA,NA,NA,NA,ACCEPT,NA,NA,batch9pro,batch9pro,34,41,1,Screen 1,continueButton,response_rating_scale_likert_active,1549.300000011921,NA,NA,Strongly Agree,1,0,1,0,NA,NA,NA,NA,1,statements,it was produced fast,1,17/06/2021 12:55,17/06/2021 13:06,IP Address,For (I feel positively about the vaccines),Rarely,Most days,19,Female,NA,A levels,control,86,1,For,Against
44,1659953870270,08/08/2022 10:17:50,1659953870169,1,08/08/2022 11:17:50,94118,2,task-xidh,NA,23521556,6893452,NA,complete,NA,62f0e2323a7e5971a931382f,computer,Desktop or Laptop,Windows 10,Edge 103.0.1264.77,1504x1003,1504x860,NA,ITT Ratings,2,against,9,NA,NA,NA,NA,NA,NA,NA,ACCEPT,NA,NA,batch9pro,batch9pro,43,42,1,Screen 1,continueButton,response_rating_scale_likert_active,2588.5999999940395,NA,NA,Somewhat Disagree,1,0,1,0,NA,NA,NA,NA,1,statements,I want to be protected from covid,1,17/06/2021 12:58,17/06/2021 13:06,IP Address,For (I feel positively about the vaccines),Never,Most months,35,Female,NA,A levels,control,87,1,For,For
45,1659953872037,08/08/2022 10:17:52,1659953871940,1,08/08/2022 11:17:51,94118,2,task-xidh,NA,23521556,6893452,NA,complete,NA,62f0e2323a7e5971a931382f,computer,Desktop or Laptop,Windows 10,Edge 103.0.1264.77,1504x1003,1504x860,NA,ITT Ratings,2,against,9,NA,NA,NA,NA,NA,NA,NA,ACCEPT,NA,NA,batch9pro,batch9pro,12,43,1,Screen 1,continueButton,response_rating_scale_likert_active,1756.300000011921,NA,NA,Strongly Agree,1,0,1,0,NA,NA,NA,NA,1,statements,I'm healthy so I won't die from it,1,17/06/2021 12:57,17/06/2021 13:06,IP Address,For (I feel positively about the vaccines),Never,Rarely,28,Female,NA,"Undergraduate degree (BSc, BA)",choice,82,3,For,Against
46,1659953873248,08/08/2022 10:17:53,1659953873155,1,08/08/2022 11:17:53,94118,2,task-xidh,NA,23521556,6893452,NA,complete,NA,62f0e2323a7e5971a931382f,computer,Desktop or Laptop,Windows 10,Edge 103.0.1264.77,1504x1003,1504x860,NA,ITT Ratings,2,against,9,NA,NA,NA,NA,NA,NA,NA,ACCEPT,NA,NA,batch9pro,batch9pro,28,44,1,Screen 1,continueButton,response_rating_scale_likert_active,1202.5,NA,NA,Strongly Agree,1,0,1,0,NA,NA,NA,NA,1,statements,The time factor - trials can take up to 10 years,1,17/06/2021 12:58,17/06/2021 13:06,IP Address,For (I feel positively about the vaccines),Rarely,Most weeks,57,Female,NA,"Undergraduate degree (BSc, BA)",control,85,1,For,Against
47,1659953875732,08/08/2022 10:17:55,1659953875644,1,08/08/2022 11:17:55,94118,2,task-xidh,NA,23521556,6893452,NA,complete,NA,62f0e2323a7e5971a931382f,computer,Desktop or Laptop,Windows 10,Edge 103.0.1264.77,1504x1003,1504x860,NA,ITT Ratings,2,against,9,NA,NA,NA,NA,NA,NA,NA,ACCEPT,NA,NA,batch9pro,batch9pro,26,45,1,Screen 1,continueButton,response_rating_scale_likert_active,2475.7999999821186,NA,NA,Somewhat Agree,1,0,1,0,NA,NA,NA,NA,1,statements,protecting those who are close to you,1,17/06/2021 12:58,17/06/2021 13:06,IP Address,For (I feel positively about the vaccines),Rarely,Rarely,19,Male,NA,A levels,choice,84,2,For,For
48,1659953877923,08/08/2022 10:17:57,1659953877843,1,08/08/2022 11:17:57,94118,2,task-xidh,NA,23521556,6893452,NA,complete,NA,62f0e2323a7e5971a931382f,computer,Desktop or Laptop,Windows 10,Edge 103.0.1264.77,1504x1003,1504x860,NA,ITT Ratings,2,against,9,NA,NA,NA,NA,NA,NA,NA,ACCEPT,NA,NA,batch9pro,batch9pro,47,46,1,Screen 1,continueButton,response_rating_scale_likert_active,2182.2000000178814,NA,NA,Strongly Agree,1,0,1,0,NA,NA,NA,NA,1,statements,I don't trust the government/pharmaceutical industry to have produced a (safe) vaccine in the timeframe.,1,17/06/2021 13:00,17/06/2021 13:07,IP Address,For (I feel positively about the vaccines),A few times a year,Most months,31,Female,NA,"Undergraduate degree (BSc, BA)",choice,88,2,For,Against
49,1659953880241,08/08/2022 10:18:00,1659953880025,1,08/08/2022 11:18:00,94118,2,task-xidh,NA,23521556,6893452,NA,complete,NA,62f0e2323a7e5971a931382f,computer,Desktop or Laptop,Windows 10,Edge 103.0.1264.77,1504x1003,1504x860,NA,ITT Ratings,2,against,9,NA,NA,NA,NA,NA,NA,NA,ACCEPT,NA,NA,batch9pro,batch9pro,44,47,1,Screen 1,continueButton,response_rating_scale_likert_active,2168.0999999940395,NA,NA,Somewhat Agree,1,0,1,0,NA,NA,NA,NA,1,statements,I want the country to get back up and running,1,17/06/2021 12:58,17/06/2021 13:06,IP Address,For (I feel positively about the vaccines),Never,Most months,35,Female,NA,A levels,control,87,2,For,For
50,1659953883332,08/08/2022 10:18:03,1659953883333,1,08/08/2022 11:18:03,94118,2,task-xidh,NA,23521556,6893452,NA,complete,NA,62f0e2323a7e5971a931382f,computer,Desktop or Laptop,Windows 10,Edge 103.0.1264.77,1504x1003,1504x860,NA,ITT Ratings,2,against,9,NA,NA,NA,NA,NA,NA,NA,ACCEPT,NA,NA,batch9pro,batch9pro,6,48,1,Screen 1,continueButton,response_rating_scale_likert_active,3292.5999999940395,NA,NA,Strongly Disagree,1,0,1,0,NA,NA,NA,NA,1,statements,Don't believe that any vaccines are effective,1,17/06/2021 12:57,17/06/2021 13:05,IP Address,For (I feel positively about the vaccines),Rarely,Most weeks,31,Male,NA,"Undergraduate degree (BSc, BA)",choice,81,3,For,Against
51,1659953885344,08/08/2022 10:18:05,1659953885253,1,08/08/2022 11:18:05,94118,2,task-xidh,NA,23521556,6893452,NA,complete,NA,62f0e2323a7e5971a931382f,computer,Desktop or Laptop,Windows 10,Edge 103.0.1264.77,1504x1003,1504x860,NA,ITT Ratings,2,against,9,NA,NA,NA,NA,NA,NA,NA,ACCEPT,NA,NA,batch9pro,batch9pro,42,49,1,Screen 1,continueButton,response_rating_scale_likert_active,1906,NA,NA,Neither Agree nor Disagree,1,0,1,0,NA,NA,NA,NA,1,statements,You will get a blood clot,1,17/06/2021 12:58,17/06/2021 13:06,IP Address,For (I feel positively about the vaccines),Never,Most months,35,Female,NA,A levels,control,87,3,For,Against
52,1659953887735,08/08/2022 10:18:07,1659953887645,1,08/08/2022 11:18:07,94118,2,task-xidh,NA,23521556,6893452,NA,complete,NA,62f0e2323a7e5971a931382f,computer,Desktop or Laptop,Windows 10,Edge 103.0.1264.77,1504x1003,1504x860,NA,ITT Ratings,2,against,9,NA,NA,NA,NA,NA,NA,NA,ACCEPT,NA,NA,batch9pro,batch9pro,4,50,1,Screen 1,continueButton,response_rating_scale_likert_active,2378.7999999821186,NA,NA,Somewhat Agree,1,0,1,0,NA,NA,NA,NA,1,statements,The companies haven't had enough time to develop it properly,1,17/06/2021 12:57,17/06/2021 13:05,IP Address,For (I feel positively about the vaccines),Rarely,Most weeks,31,Male,NA,"Undergraduate degree (BSc, BA)",choice,81,1,For,Against
53,1659953890122,08/08/2022 10:18:10,1659953889919,1,08/08/2022 11:18:09,94118,2,task-xidh,NA,23521556,6893452,NA,complete,NA,62f0e2323a7e5971a931382f,computer,Desktop or Laptop,Windows 10,Edge 103.0.1264.77,1504x1003,1504x860,NA,ITT Ratings,2,against,9,NA,NA,NA,NA,NA,NA,NA,ACCEPT,NA,NA,batch9pro,batch9pro,29,51,1,Screen 1,continueButton,response_rating_scale_likert_active,2259.0999999940395,NA,NA,Disagree,1,0,1,0,NA,NA,NA,NA,1,statements,Against any type of vaccinations,1,17/06/2021 12:58,17/06/2021 13:06,IP Address,For (I feel positively about the vaccines),Rarely,Most weeks,57,Female,NA,"Undergraduate degree (BSc, BA)",control,85,2,For,Against
54,1659953891931,08/08/2022 10:18:11,1659953891929,1,08/08/2022 11:18:11,94118,2,task-xidh,NA,23521556,6893452,NA,complete,NA,62f0e2323a7e5971a931382f,computer,Desktop or Laptop,Windows 10,Edge 103.0.1264.77,1504x1003,1504x860,NA,ITT Ratings,2,against,9,NA,NA,NA,NA,NA,NA,NA,ACCEPT,NA,NA,batch9pro,batch9pro,22,52,1,Screen 1,continueButton,response_rating_scale_likert_active,1997.199999988079,NA,NA,Strongly Agree,1,0,1,0,NA,NA,NA,NA,1,statements,danger of side effects,1,17/06/2021 12:58,17/06/2021 13:06,IP Address,For (I feel positively about the vaccines),Rarely,Rarely,19,Male,NA,A levels,choice,84,1,For,Against
55,1659953899029,08/08/2022 10:18:19,1659953898906,1,08/08/2022 11:18:18,94118,2,task-xidh,NA,23521556,6893452,NA,complete,NA,62f0e2323a7e5971a931382f,computer,Desktop or Laptop,Windows 10,Edge 103.0.1264.77,1504x1003,1504x860,NA,ITT Ratings,2,against,9,NA,NA,NA,NA,NA,NA,NA,ACCEPT,NA,NA,batch9pro,batch9pro,56,53,1,Screen 1,continueButton,response_rating_scale_likert_active,6966.100000023842,NA,NA,Agree,1,0,1,0,NA,NA,NA,NA,1,statements,I don't want to catch covid,1,17/06/2021 12:53,17/06/2021 13:08,IP Address,For (I feel positively about the vaccines),A few times a year,Rarely,33,Female,NA,"Undergraduate degree (BSc, BA)",control,89,2,For,For
56,1659953900584,08/08/2022 10:18:20,1659953900586,1,08/08/2022 11:18:20,94118,2,task-xidh,NA,23521556,6893452,NA,complete,NA,62f0e2323a7e5971a931382f,computer,Desktop or Laptop,Windows 10,Edge 103.0.1264.77,1504x1003,1504x860,NA,ITT Ratings,2,against,9,NA,NA,NA,NA,NA,NA,NA,ACCEPT,NA,NA,batch9pro,batch9pro,32,54,1,Screen 1,continueButton,response_rating_scale_likert_active,1669.5,NA,NA,Agree,1,0,1,0,NA,NA,NA,NA,1,statements,Do not want to catch covid,1,17/06/2021 12:58,17/06/2021 13:06,IP Address,For (I feel positively about the vaccines),Rarely,Most weeks,57,Female,NA,"Undergraduate degree (BSc, BA)",control,85,2,For,For
57,1659953902338,08/08/2022 10:18:22,1659953902173,1,08/08/2022 11:18:22,94118,2,task-xidh,NA,23521556,6893452,NA,complete,NA,62f0e2323a7e5971a931382f,computer,Desktop or Laptop,Windows 10,Edge 103.0.1264.77,1504x1003,1504x860,NA,ITT Ratings,2,against,9,NA,NA,NA,NA,NA,NA,NA,ACCEPT,NA,NA,batch9pro,batch9pro,49,55,1,Screen 1,continueButton,response_rating_scale_likert_active,1575,NA,NA,Strongly Disagree,1,0,1,0,NA,NA,NA,NA,1,statements,I am afraid of catching Covid-19.,1,17/06/2021 13:00,17/06/2021 13:07,IP Address,For (I feel positively about the vaccines),A few times a year,Most months,31,Female,NA,"Undergraduate degree (BSc, BA)",choice,88,1,For,For
58,1659953904738,08/08/2022 10:18:24,1659953904614,1,08/08/2022 11:18:24,94118,2,task-xidh,NA,23521556,6893452,NA,complete,NA,62f0e2323a7e5971a931382f,computer,Desktop or Laptop,Windows 10,Edge 103.0.1264.77,1504x1003,1504x860,NA,ITT Ratings,2,against,9,NA,NA,NA,NA,NA,NA,NA,ACCEPT,NA,NA,batch9pro,batch9pro,17,56,1,Screen 1,continueButton,response_rating_scale_likert_active,2426.4000000059605,NA,NA,Strongly Agree,1,0,1,0,NA,NA,NA,NA,1,statements,We don't know how long it works for,1,17/06/2021 12:57,17/06/2021 13:06,IP Address,For (I feel positively about the vaccines),Rarely,A few times a year,31,Female,NA,"Undergraduate degree (BSc, BA)",choice,83,2,For,Against
59,1659953906350,08/08/2022 10:18:26,1659953906257,1,08/08/2022 11:18:26,94118,2,task-xidh,NA,23521556,6893452,NA,complete,NA,62f0e2323a7e5971a931382f,computer,Desktop or Laptop,Windows 10,Edge 103.0.1264.77,1504x1003,1504x860,NA,ITT Ratings,2,against,9,NA,NA,NA,NA,NA,NA,NA,ACCEPT,NA,NA,batch9pro,batch9pro,18,57,1,Screen 1,continueButton,response_rating_scale_likert_active,1628.5999999940395,NA,NA,Strongly Agree,1,0,1,0,NA,NA,NA,NA,1,statements,I don't want a Covid passport,1,17/06/2021 12:57,17/06/2021 13:06,IP Address,For (I feel positively about the vaccines),Rarely,A few times a year,31,Female,NA,"Undergraduate degree (BSc, BA)",choice,83,3,For,Against
60,1659953910706,08/08/2022 10:18:30,1659953910305,1,08/08/2022 11:18:30,94118,2,task-xidh,NA,23521556,6893452,NA,complete,NA,62f0e2323a7e5971a931382f,computer,Desktop or Laptop,Windows 10,Edge 103.0.1264.77,1504x1003,1504x860,NA,ITT Ratings,2,against,9,NA,NA,NA,NA,NA,NA,NA,ACCEPT,NA,NA,batch9pro,batch9pro,3,58,1,Screen 1,continueButton,response_rating_scale_likert_active,4030.2000000178814,NA,NA,Somewhat Disagree,1,0,1,0,NA,NA,NA,NA,1,statements,We would like to check you are reading each argument carefully. Please select 'Somewhat Disagree' for this answer,1,NA,NA,NA,NA,NA,NA,NA,NA,NA,NA,NA,NA,check2,NA,NA
61,1659953913052,08/08/2022 10:18:33,1659953912961,1,08/08/2022 11:18:32,94118,2,task-xidh,NA,23521556,6893452,NA,complete,NA,62f0e2323a7e5971a931382f,computer,Desktop or Laptop,Windows 10,Edge 103.0.1264.77,1504x1003,1504x860,NA,ITT Ratings,2,against,9,NA,NA,NA,NA,NA,NA,NA,ACCEPT,NA,NA,batch9pro,batch9pro,2,59,1,Screen 1,continueButton,response_rating_scale_likert_active,2641.600000023842,NA,NA,Somewhat Agree,1,0,1,0,NA,NA,NA,NA,1,statements,We would like to check you are reading each argument carefully. Please select 'Somewhat Agree' for this answer,1,NA,NA,NA,NA,NA,NA,NA,NA,NA,NA,NA,NA,check1,NA,NA
62,1659953914888,08/08/2022 10:18:34,1659953914767,1,08/08/2022 11:18:34,94118,2,task-xidh,NA,23521556,6893452,NA,complete,NA,62f0e2323a7e5971a931382f,computer,Desktop or Laptop,Windows 10,Edge 103.0.1264.77,1504x1003,1504x860,NA,ITT Ratings,2,against,9,NA,NA,NA,NA,NA,NA,NA,ACCEPT,NA,NA,batch9pro,batch9pro,52,60,1,Screen 1,continueButton,response_rating_scale_likert_active,1791.5,NA,NA,Strongly Disagree,1,0,1,0,NA,NA,NA,NA,1,statements,I don't believe covid is real.,1,17/06/2021 12:53,17/06/2021 13:08,IP Address,For (I feel positively about the vaccines),A few times a year,Rarely,33,Female,NA,"Undergraduate degree (BSc, BA)",control,89,1,For,Against
63,1659953916880,08/08/2022 10:18:36,1659953916748,1,08/08/2022 11:18:36,94118,2,task-xidh,NA,23521556,6893452,NA,complete,NA,62f0e2323a7e5971a931382f,computer,Desktop or Laptop,Windows 10,Edge 103.0.1264.77,1504x1003,1504x860,NA,ITT Ratings,2,against,9,NA,NA,NA,NA,NA,NA,NA,ACCEPT,NA,NA,batch9pro,batch9pro,50,61,1,Screen 1,continueButton,response_rating_scale_likert_active,1968.600000023842,NA,NA,Somewhat Agree,1,0,1,0,NA,NA,NA,NA,1,statements,I want to help society return to normality as soon as possible.,1,17/06/2021 13:00,17/06/2021 13:07,IP Address,For (I feel positively about the vaccines),A few times a year,Most months,31,Female,NA,"Undergraduate degree (BSc, BA)",choice,88,2,For,For
64,1659953919284,08/08/2022 10:18:39,1659953919206,1,08/08/2022 11:18:39,94118,2,task-xidh,NA,23521556,6893452,NA,complete,NA,62f0e2323a7e5971a931382f,computer,Desktop or Laptop,Windows 10,Edge 103.0.1264.77,1504x1003,1504x860,NA,ITT Ratings,2,against,9,NA,NA,NA,NA,NA,NA,NA,ACCEPT,NA,NA,batch9pro,batch9pro,59,62,1,Screen 1,continueButton,response_rating_scale_likert_active,2446,NA,NA,Strongly Agree,1,0,1,0,NA,NA,NA,NA,1,statements,It doesn't stop you from catching the disease,1,17/06/2021 12:53,17/06/2021 13:08,IP Address,For (I feel positively about the vaccines),Most weeks,Most months,25,Female,NA,"Undergraduate degree (BSc, BA)",control,90,2,For,Against
65,1659953919473,08/08/2022 10:18:39,1659953919212,1,08/08/2022 11:18:39,94118,2,task-xidh,NA,23521556,6893452,NA,complete,NA,62f0e2323a7e5971a931382f,computer,Desktop or Laptop,Windows 10,Edge 103.0.1264.77,1504x1003,1504x860,NA,ITT Ratings,2,against,9,NA,NA,NA,NA,NA,NA,NA,ACCEPT,NA,NA,batch9pro,NA,NA,END TASK,NA,NA,NA,NA,174424,NA,NA,NA,NA,0,1,0,NA,NA,NA,NA,NA,NA,NA,NA,NA,NA,NA,NA,NA,NA,NA,NA,NA,NA,NA,NA,NA,NA,NA
1,1659954108585,08/08/2022 10:21:48,1659954110006,1,08/08/2022 11:21:50,94118,2,task-xidh,NA,23521785,6893516,NA,complete,NA,62f0e3a0e8675aecd3edbb6d,computer,Desktop or Laptop,Windows 10,Chrome 103.0.0.0,1280x720,1280x569,NA,ITT Ratings,2,against,9,NA,NA,NA,NA,NA,NA,NA,ACCEPT,NA,NA,batch9pro,NA,NA,BEGIN TASK,NA,NA,NA,NA,NA,NA,NA,NA,NA,0,1,0,NA,NA,NA,NA,NA,NA,NA,NA,NA,NA,NA,NA,NA,NA,NA,NA,NA,NA,NA,NA,NA,NA,NA
2,1659954114101,08/08/2022 10:21:54,1659954115507,1,08/08/2022 11:21:55,94118,2,task-xidh,NA,23521785,6893516,NA,complete,NA,62f0e3a0e8675aecd3edbb6d,computer,Desktop or Laptop,Windows 10,Chrome 103.0.0.0,1280x720,1280x569,NA,ITT Ratings,2,against,9,NA,NA,NA,NA,NA,NA,NA,ACCEPT,NA,NA,batch9pro,batch9pro,1,1,1,Screen 1,advancementZone,continue_button,5473.400000095367,NA,NA,NA,NA,0,1,0,NA,NA,NA,NA,NA,instructions,NA,NA,NA,NA,NA,NA,NA,NA,NA,NA,NA,NA,NA,NA,NA,NA,NA
3,1659954124320,08/08/2022 10:22:04,1659954125790,1,08/08/2022 11:22:05,94118,2,task-xidh,NA,23521785,6893516,NA,complete,NA,62f0e3a0e8675aecd3edbb6d,computer,Desktop or Laptop,Windows 10,Chrome 103.0.0.0,1280x720,1280x569,NA,ITT Ratings,2,against,9,NA,NA,NA,NA,NA,NA,NA,ACCEPT,NA,NA,batch9pro,batch9pro,57,1,1,Screen 1,continueButton,response_rating_scale_likert_active,10268.200000047684,NA,NA,Somewhat Disagree,1,0,1,0,NA,NA,NA,NA,1,statements,I trust that this vaccine will work,1,17/06/2021 12:53,17/06/2021 13:08,IP Address,For (I feel positively about the vaccines),A few times a year,Rarely,33,Female,NA,"Undergraduate degree (BSc, BA)",control,89,3,For,For
4,1659954128044,08/08/2022 10:22:08,1659954129507,1,08/08/2022 11:22:09,94118,2,task-xidh,NA,23521785,6893516,NA,complete,NA,62f0e3a0e8675aecd3edbb6d,computer,Desktop or Laptop,Windows 10,Chrome 103.0.0.0,1280x720,1280x569,NA,ITT Ratings,2,against,9,NA,NA,NA,NA,NA,NA,NA,ACCEPT,NA,NA,batch9pro,batch9pro,45,2,1,Screen 1,continueButton,response_rating_scale_likert_active,3706.5,NA,NA,Agree,1,0,1,0,NA,NA,NA,NA,1,statements,I want to protect loved ones,1,17/06/2021 12:58,17/06/2021 13:06,IP Address,For (I feel positively about the vaccines),Never,Most months,35,Female,NA,A levels,control,87,3,For,For
5,1659954132880,08/08/2022 10:22:12,1659954134330,1,08/08/2022 11:22:14,94118,2,task-xidh,NA,23521785,6893516,NA,complete,NA,62f0e3a0e8675aecd3edbb6d,computer,Desktop or Laptop,Windows 10,Chrome 103.0.0.0,1280x720,1280x569,NA,ITT Ratings,2,against,9,NA,NA,NA,NA,NA,NA,NA,ACCEPT,NA,NA,batch9pro,batch9pro,55,3,1,Screen 1,continueButton,response_rating_scale_likert_active,4804.5,NA,NA,Agree,1,0,1,0,NA,NA,NA,NA,1,statements,I want to protect myself and my family,1,17/06/2021 12:53,17/06/2021 13:08,IP Address,For (I feel positively about the vaccines),A few times a year,Rarely,33,Female,NA,"Undergraduate degree (BSc, BA)",control,89,1,For,For
6,1659954138377,08/08/2022 10:22:18,1659954139844,1,08/08/2022 11:22:19,94118,2,task-xidh,NA,23521785,6893516,NA,complete,NA,62f0e3a0e8675aecd3edbb6d,computer,Desktop or Laptop,Windows 10,Chrome 103.0.0.0,1280x720,1280x569,NA,ITT Ratings,2,against,9,NA,NA,NA,NA,NA,NA,NA,ACCEPT,NA,NA,batch9pro,batch9pro,47,4,1,Screen 1,continueButton,response_rating_scale_likert_active,5496.599999904633,NA,NA,Somewhat Agree,1,0,1,0,NA,NA,NA,NA,1,statements,I don't trust the government/pharmaceutical industry to have produced a (safe) vaccine in the timeframe.,1,17/06/2021 13:00,17/06/2021 13:07,IP Address,For (I feel positively about the vaccines),A few times a year,Most months,31,Female,NA,"Undergraduate degree (BSc, BA)",choice,88,2,For,Against
7,1659954142819,08/08/2022 10:22:22,1659954144286,1,08/08/2022 11:22:24,94118,2,task-xidh,NA,23521785,6893516,NA,complete,NA,62f0e3a0e8675aecd3edbb6d,computer,Desktop or Laptop,Windows 10,Chrome 103.0.0.0,1280x720,1280x569,NA,ITT Ratings,2,against,9,NA,NA,NA,NA,NA,NA,NA,ACCEPT,NA,NA,batch9pro,batch9pro,31,5,1,Screen 1,continueButton,response_rating_scale_likert_active,4431.5,NA,NA,Disagree,1,0,1,0,NA,NA,NA,NA,1,statements,It's the only way to conquer and get rid of the virus,1,17/06/2021 12:58,17/06/2021 13:06,IP Address,For (I feel positively about the vaccines),Rarely,Most weeks,57,Female,NA,"Undergraduate degree (BSc, BA)",control,85,1,For,For
8,1659954147671,08/08/2022 10:22:27,1659954149138,1,08/08/2022 11:22:29,94118,2,task-xidh,NA,23521785,6893516,NA,complete,NA,62f0e3a0e8675aecd3edbb6d,computer,Desktop or Laptop,Windows 10,Chrome 103.0.0.0,1280x720,1280x569,NA,ITT Ratings,2,against,9,NA,NA,NA,NA,NA,NA,NA,ACCEPT,NA,NA,batch9pro,batch9pro,38,6,1,Screen 1,continueButton,response_rating_scale_likert_active,4840.099999904633,NA,NA,Strongly Disagree,1,0,1,0,NA,NA,NA,NA,1,statements,its about other peoples health swell as your own,1,17/06/2021 12:55,17/06/2021 13:06,IP Address,For (I feel positively about the vaccines),Rarely,Most days,19,Female,NA,A levels,control,86,2,For,For
9,1659954151119,08/08/2022 10:22:31,1659954152589,1,08/08/2022 11:22:32,94118,2,task-xidh,NA,23521785,6893516,NA,complete,NA,62f0e3a0e8675aecd3edbb6d,computer,Desktop or Laptop,Windows 10,Chrome 103.0.0.0,1280x720,1280x569,NA,ITT Ratings,2,against,9,NA,NA,NA,NA,NA,NA,NA,ACCEPT,NA,NA,batch9pro,batch9pro,20,7,1,Screen 1,continueButton,response_rating_scale_likert_active,3435.199999809265,NA,NA,Neither Agree nor Disagree,1,0,1,0,NA,NA,NA,NA,1,statements,I don't want to risk dying,1,17/06/2021 12:57,17/06/2021 13:06,IP Address,For (I feel positively about the vaccines),Rarely,A few times a year,31,Female,NA,"Undergraduate degree (BSc, BA)",choice,83,2,For,For
10,1659954158408,08/08/2022 10:22:38,1659954159881,1,08/08/2022 11:22:39,94118,2,task-xidh,NA,23521785,6893516,NA,complete,NA,62f0e3a0e8675aecd3edbb6d,computer,Desktop or Laptop,Windows 10,Chrome 103.0.0.0,1280x720,1280x569,NA,ITT Ratings,2,against,9,NA,NA,NA,NA,NA,NA,NA,ACCEPT,NA,NA,batch9pro,batch9pro,8,8,1,Screen 1,continueButton,response_rating_scale_likert_active,7284.300000190735,NA,NA,Neither Agree nor Disagree,1,0,1,0,NA,NA,NA,NA,1,statements,Vaccines are well researched and tested before being distributed to the public,1,17/06/2021 12:57,17/06/2021 13:05,IP Address,For (I feel positively about the vaccines),Rarely,Most weeks,31,Male,NA,"Undergraduate degree (BSc, BA)",choice,81,2,For,For
11,1659954161788,08/08/2022 10:22:41,1659954163235,1,08/08/2022 11:22:43,94118,2,task-xidh,NA,23521785,6893516,NA,complete,NA,62f0e3a0e8675aecd3edbb6d,computer,Desktop or Laptop,Windows 10,Chrome 103.0.0.0,1280x720,1280x569,NA,ITT Ratings,2,against,9,NA,NA,NA,NA,NA,NA,NA,ACCEPT,NA,NA,batch9pro,batch9pro,59,9,1,Screen 1,continueButton,response_rating_scale_likert_active,3338.7999999523163,NA,NA,Strongly Agree,1,0,1,0,NA,NA,NA,NA,1,statements,It doesn't stop you from catching the disease,1,17/06/2021 12:53,17/06/2021 13:08,IP Address,For (I feel positively about the vaccines),Most weeks,Most months,25,Female,NA,"Undergraduate degree (BSc, BA)",control,90,2,For,Against
12,1659954170034,08/08/2022 10:22:50,1659954171503,1,08/08/2022 11:22:51,94118,2,task-xidh,NA,23521785,6893516,NA,complete,NA,62f0e3a0e8675aecd3edbb6d,computer,Desktop or Laptop,Windows 10,Chrome 103.0.0.0,1280x720,1280x569,NA,ITT Ratings,2,against,9,NA,NA,NA,NA,NA,NA,NA,ACCEPT,NA,NA,batch9pro,batch9pro,3,10,1,Screen 1,continueButton,response_rating_scale_likert_active,8259.099999904633,NA,NA,Somewhat Disagree,1,0,1,0,NA,NA,NA,NA,1,statements,We would like to check you are reading each argument carefully. Please select 'Somewhat Disagree' for this answer,1,NA,NA,NA,NA,NA,NA,NA,NA,NA,NA,NA,NA,check2,NA,NA
13,1659954173131,08/08/2022 10:22:53,1659954174605,1,08/08/2022 11:22:54,94118,2,task-xidh,NA,23521785,6893516,NA,complete,NA,62f0e3a0e8675aecd3edbb6d,computer,Desktop or Laptop,Windows 10,Chrome 103.0.0.0,1280x720,1280x569,NA,ITT Ratings,2,against,9,NA,NA,NA,NA,NA,NA,NA,ACCEPT,NA,NA,batch9pro,batch9pro,36,11,1,Screen 1,continueButton,response_rating_scale_likert_active,3081.2999999523163,NA,NA,Strongly Agree,1,0,1,0,NA,NA,NA,NA,1,statements,the effectiveness hasn't really been proven,1,17/06/2021 12:55,17/06/2021 13:06,IP Address,For (I feel positively about the vaccines),Rarely,Most days,19,Female,NA,A levels,control,86,3,For,Against
14,1659954174625,08/08/2022 10:22:54,1659954176100,1,08/08/2022 11:22:56,94118,2,task-xidh,NA,23521785,6893516,NA,complete,NA,62f0e3a0e8675aecd3edbb6d,computer,Desktop or Laptop,Windows 10,Chrome 103.0.0.0,1280x720,1280x569,NA,ITT Ratings,2,against,9,NA,NA,NA,NA,NA,NA,NA,ACCEPT,NA,NA,batch9pro,batch9pro,18,12,1,Screen 1,continueButton,response_rating_scale_likert_active,1485.8000001907349,NA,NA,Strongly Agree,1,0,1,0,NA,NA,NA,NA,1,statements,I don't want a Covid passport,1,17/06/2021 12:57,17/06/2021 13:06,IP Address,For (I feel positively about the vaccines),Rarely,A few times a year,31,Female,NA,"Undergraduate degree (BSc, BA)",choice,83,3,For,Against
15,1659954179604,08/08/2022 10:22:59,1659954181014,1,08/08/2022 11:23:01,94118,2,task-xidh,NA,23521785,6893516,NA,complete,NA,62f0e3a0e8675aecd3edbb6d,computer,Desktop or Laptop,Windows 10,Chrome 103.0.0.0,1280x720,1280x569,NA,ITT Ratings,2,against,9,NA,NA,NA,NA,NA,NA,NA,ACCEPT,NA,NA,batch9pro,batch9pro,34,13,1,Screen 1,continueButton,response_rating_scale_likert_active,4894.5,NA,NA,Neither Agree nor Disagree,1,0,1,0,NA,NA,NA,NA,1,statements,it was produced fast,1,17/06/2021 12:55,17/06/2021 13:06,IP Address,For (I feel positively about the vaccines),Rarely,Most days,19,Female,NA,A levels,control,86,1,For,Against
16,1659954181619,08/08/2022 10:23:01,1659954183091,1,08/08/2022 11:23:03,94118,2,task-xidh,NA,23521785,6893516,NA,complete,NA,62f0e3a0e8675aecd3edbb6d,computer,Desktop or Laptop,Windows 10,Chrome 103.0.0.0,1280x720,1280x569,NA,ITT Ratings,2,against,9,NA,NA,NA,NA,NA,NA,NA,ACCEPT,NA,NA,batch9pro,batch9pro,40,14,1,Screen 1,continueButton,response_rating_scale_likert_active,2056.099999904633,NA,NA,Somewhat Agree,1,0,1,0,NA,NA,NA,NA,1,statements,There hasn't been long enough to develop a vaccination,1,17/06/2021 12:58,17/06/2021 13:06,IP Address,For (I feel positively about the vaccines),Never,Most months,35,Female,NA,A levels,control,87,1,For,Against
17,1659954186660,08/08/2022 10:23:06,1659954188115,1,08/08/2022 11:23:08,94118,2,task-xidh,NA,23521785,6893516,NA,complete,NA,62f0e3a0e8675aecd3edbb6d,computer,Desktop or Laptop,Windows 10,Chrome 103.0.0.0,1280x720,1280x569,NA,ITT Ratings,2,against,9,NA,NA,NA,NA,NA,NA,NA,ACCEPT,NA,NA,batch9pro,batch9pro,58,15,1,Screen 1,continueButton,response_rating_scale_likert_active,5016.399999856949,NA,NA,Agree,1,0,1,0,NA,NA,NA,NA,1,statements,The vaccine has been developed too quickly so they're not sure it's safe,1,17/06/2021 12:53,17/06/2021 13:08,IP Address,For (I feel positively about the vaccines),Most weeks,Most months,25,Female,NA,"Undergraduate degree (BSc, BA)",control,90,1,For,Against
18,1659954190512,08/08/2022 10:23:10,1659954191973,1,08/08/2022 11:23:11,94118,2,task-xidh,NA,23521785,6893516,NA,complete,NA,62f0e3a0e8675aecd3edbb6d,computer,Desktop or Laptop,Windows 10,Chrome 103.0.0.0,1280x720,1280x569,NA,ITT Ratings,2,against,9,NA,NA,NA,NA,NA,NA,NA,ACCEPT,NA,NA,batch9pro,batch9pro,12,16,1,Screen 1,continueButton,response_rating_scale_likert_active,3851.5,NA,NA,Neither Agree nor Disagree,1,0,1,0,NA,NA,NA,NA,1,statements,I'm healthy so I won't die from it,1,17/06/2021 12:57,17/06/2021 13:06,IP Address,For (I feel positively about the vaccines),Never,Rarely,28,Female,NA,"Undergraduate degree (BSc, BA)",choice,82,3,For,Against
19,1659954193174,08/08/2022 10:23:13,1659954194641,1,08/08/2022 11:23:14,94118,2,task-xidh,NA,23521785,6893516,NA,complete,NA,62f0e3a0e8675aecd3edbb6d,computer,Desktop or Laptop,Windows 10,Chrome 103.0.0.0,1280x720,1280x569,NA,ITT Ratings,2,against,9,NA,NA,NA,NA,NA,NA,NA,ACCEPT,NA,NA,batch9pro,batch9pro,21,17,1,Screen 1,continueButton,response_rating_scale_likert_active,2656.5,NA,NA,Agree,1,0,1,0,NA,NA,NA,NA,1,statements,I want to protect my family and friends,1,17/06/2021 12:57,17/06/2021 13:06,IP Address,For (I feel positively about the vaccines),Rarely,A few times a year,31,Female,NA,"Undergraduate degree (BSc, BA)",choice,83,3,For,For
20,1659954195915,08/08/2022 10:23:15,1659954197360,1,08/08/2022 11:23:17,94118,2,task-xidh,NA,23521785,6893516,NA,complete,NA,62f0e3a0e8675aecd3edbb6d,computer,Desktop or Laptop,Windows 10,Chrome 103.0.0.0,1280x720,1280x569,NA,ITT Ratings,2,against,9,NA,NA,NA,NA,NA,NA,NA,ACCEPT,NA,NA,batch9pro,batch9pro,48,18,1,Screen 1,continueButton,response_rating_scale_likert_active,2702.599999904633,NA,NA,Strongly Disagree,1,0,1,0,NA,NA,NA,NA,1,statements,I don't believe in Covid-19.,1,17/06/2021 13:00,17/06/2021 13:07,IP Address,For (I feel positively about the vaccines),A few times a year,Most months,31,Female,NA,"Undergraduate degree (BSc, BA)",choice,88,3,For,Against
21,1659954201009,08/08/2022 10:23:21,1659954202485,1,08/08/2022 11:23:22,94118,2,task-xidh,NA,23521785,6893516,NA,complete,NA,62f0e3a0e8675aecd3edbb6d,computer,Desktop or Laptop,Windows 10,Chrome 103.0.0.0,1280x720,1280x569,NA,ITT Ratings,2,against,9,NA,NA,NA,NA,NA,NA,NA,ACCEPT,NA,NA,batch9pro,batch9pro,33,19,1,Screen 1,continueButton,response_rating_scale_likert_active,5100.700000047684,NA,NA,Disagree,1,0,1,0,NA,NA,NA,NA,1,statements,Being vaccinated gives more freedom to open up the world again,1,17/06/2021 12:58,17/06/2021 13:06,IP Address,For (I feel positively about the vaccines),Rarely,Most weeks,57,Female,NA,"Undergraduate degree (BSc, BA)",control,85,3,For,For
22,1659954204975,08/08/2022 10:23:24,1659954206437,1,08/08/2022 11:23:26,94118,2,task-xidh,NA,23521785,6893516,NA,complete,NA,62f0e3a0e8675aecd3edbb6d,computer,Desktop or Laptop,Windows 10,Chrome 103.0.0.0,1280x720,1280x569,NA,ITT Ratings,2,against,9,NA,NA,NA,NA,NA,NA,NA,ACCEPT,NA,NA,batch9pro,batch9pro,9,20,1,Screen 1,continueButton,response_rating_scale_likert_active,3944.400000095367,NA,NA,Strongly Disagree,1,0,1,0,NA,NA,NA,NA,1,statements,It will enable the country to come out of lockdown quicker if more people are vaccinated,1,17/06/2021 12:57,17/06/2021 13:05,IP Address,For (I feel positively about the vaccines),Rarely,Most weeks,31,Male,NA,"Undergraduate degree (BSc, BA)",choice,81,3,For,For
23,1659954209582,08/08/2022 10:23:29,1659954211045,1,08/08/2022 11:23:31,94118,2,task-xidh,NA,23521785,6893516,NA,complete,NA,62f0e3a0e8675aecd3edbb6d,computer,Desktop or Laptop,Windows 10,Chrome 103.0.0.0,1280x720,1280x569,NA,ITT Ratings,2,against,9,NA,NA,NA,NA,NA,NA,NA,ACCEPT,NA,NA,batch9pro,batch9pro,53,21,1,Screen 1,continueButton,response_rating_scale_likert_active,4598.200000047684,NA,NA,Agree,1,0,1,0,NA,NA,NA,NA,1,statements,I don't trust the vaccine works,1,17/06/2021 12:53,17/06/2021 13:08,IP Address,For (I feel positively about the vaccines),A few times a year,Rarely,33,Female,NA,"Undergraduate degree (BSc, BA)",control,89,2,For,Against
24,1659954212898,08/08/2022 10:23:32,1659954214365,1,08/08/2022 11:23:34,94118,2,task-xidh,NA,23521785,6893516,NA,complete,NA,62f0e3a0e8675aecd3edbb6d,computer,Desktop or Laptop,Windows 10,Chrome 103.0.0.0,1280x720,1280x569,NA,ITT Ratings,2,against,9,NA,NA,NA,NA,NA,NA,NA,ACCEPT,NA,NA,batch9pro,batch9pro,11,22,1,Screen 1,continueButton,response_rating_scale_likert_active,3312.5,NA,NA,Strongly Agree,1,0,1,0,NA,NA,NA,NA,1,statements,I'm only young so I don't need it,1,17/06/2021 12:57,17/06/2021 13:06,IP Address,For (I feel positively about the vaccines),Never,Rarely,28,Female,NA,"Undergraduate degree (BSc, BA)",choice,82,2,For,Against
25,1659954216236,08/08/2022 10:23:36,1659954217708,1,08/08/2022 11:23:37,94118,2,task-xidh,NA,23521785,6893516,NA,complete,NA,62f0e3a0e8675aecd3edbb6d,computer,Desktop or Laptop,Windows 10,Chrome 103.0.0.0,1280x720,1280x569,NA,ITT Ratings,2,against,9,NA,NA,NA,NA,NA,NA,NA,ACCEPT,NA,NA,batch9pro,batch9pro,62,23,1,Screen 1,continueButton,response_rating_scale_likert_active,3329.600000143051,NA,NA,Disagree,1,0,1,0,NA,NA,NA,NA,1,statements,It helps me feel safer about returning to normal life,1,17/06/2021 12:53,17/06/2021 13:08,IP Address,For (I feel positively about the vaccines),Most weeks,Most months,25,Female,NA,"Undergraduate degree (BSc, BA)",control,90,2,For,For
26,1659954219984,08/08/2022 10:23:39,1659954221440,1,08/08/2022 11:23:41,94118,2,task-xidh,NA,23521785,6893516,NA,complete,NA,62f0e3a0e8675aecd3edbb6d,computer,Desktop or Laptop,Windows 10,Chrome 103.0.0.0,1280x720,1280x569,NA,ITT Ratings,2,against,9,NA,NA,NA,NA,NA,NA,NA,ACCEPT,NA,NA,batch9pro,batch9pro,42,24,1,Screen 1,continueButton,response_rating_scale_likert_active,3722.200000047684,NA,NA,Somewhat Agree,1,0,1,0,NA,NA,NA,NA,1,statements,You will get a blood clot,1,17/06/2021 12:58,17/06/2021 13:06,IP Address,For (I feel positively about the vaccines),Never,Most months,35,Female,NA,A levels,control,87,3,For,Against
27,1659954224696,08/08/2022 10:23:44,1659954226151,1,08/08/2022 11:23:46,94118,2,task-xidh,NA,23521785,6893516,NA,complete,NA,62f0e3a0e8675aecd3edbb6d,computer,Desktop or Laptop,Windows 10,Chrome 103.0.0.0,1280x720,1280x569,NA,ITT Ratings,2,against,9,NA,NA,NA,NA,NA,NA,NA,ACCEPT,NA,NA,batch9pro,batch9pro,43,25,1,Screen 1,continueButton,response_rating_scale_likert_active,4687.800000190735,NA,NA,Neither Agree nor Disagree,1,0,1,0,NA,NA,NA,NA,1,statements,I want to be protected from covid,1,17/06/2021 12:58,17/06/2021 13:06,IP Address,For (I feel positively about the vaccines),Never,Most months,35,Female,NA,A levels,control,87,1,For,For
28,1659954226671,08/08/2022 10:23:46,1659954228132,1,08/08/2022 11:23:48,94118,2,task-xidh,NA,23521785,6893516,NA,complete,NA,62f0e3a0e8675aecd3edbb6d,computer,Desktop or Laptop,Windows 10,Chrome 103.0.0.0,1280x720,1280x569,NA,ITT Ratings,2,against,9,NA,NA,NA,NA,NA,NA,NA,ACCEPT,NA,NA,batch9pro,batch9pro,27,26,1,Screen 1,continueButton,response_rating_scale_likert_active,1958.3000001907349,NA,NA,Strongly Agree,1,0,1,0,NA,NA,NA,NA,1,statements,hope for herd immunity,1,17/06/2021 12:58,17/06/2021 13:06,IP Address,For (I feel positively about the vaccines),Rarely,Rarely,19,Male,NA,A levels,choice,84,3,For,For
29,1659954229650,08/08/2022 10:23:49,1659954231119,1,08/08/2022 11:23:51,94118,2,task-xidh,NA,23521785,6893516,NA,complete,NA,62f0e3a0e8675aecd3edbb6d,computer,Desktop or Laptop,Windows 10,Chrome 103.0.0.0,1280x720,1280x569,NA,ITT Ratings,2,against,9,NA,NA,NA,NA,NA,NA,NA,ACCEPT,NA,NA,batch9pro,batch9pro,4,27,1,Screen 1,continueButton,response_rating_scale_likert_active,2980,NA,NA,Somewhat Agree,1,0,1,0,NA,NA,NA,NA,1,statements,The companies haven't had enough time to develop it properly,1,17/06/2021 12:57,17/06/2021 13:05,IP Address,For (I feel positively about the vaccines),Rarely,Most weeks,31,Male,NA,"Undergraduate degree (BSc, BA)",choice,81,1,For,Against
30,1659954231566,08/08/2022 10:23:51,1659954233011,1,08/08/2022 11:23:53,94118,2,task-xidh,NA,23521785,6893516,NA,complete,NA,62f0e3a0e8675aecd3edbb6d,computer,Desktop or Laptop,Windows 10,Chrome 103.0.0.0,1280x720,1280x569,NA,ITT Ratings,2,against,9,NA,NA,NA,NA,NA,NA,NA,ACCEPT,NA,NA,batch9pro,batch9pro,46,28,1,Screen 1,continueButton,response_rating_scale_likert_active,1872.1000001430511,NA,NA,Strongly Disagree,1,0,1,0,NA,NA,NA,NA,1,statements,I don't believe in vaccinations.,1,17/06/2021 13:00,17/06/2021 13:07,IP Address,For (I feel positively about the vaccines),A few times a year,Most months,31,Female,NA,"Undergraduate degree (BSc, BA)",choice,88,1,For,Against
31,1659954235212,08/08/2022 10:23:55,1659954236670,1,08/08/2022 11:23:56,94118,2,task-xidh,NA,23521785,6893516,NA,complete,NA,62f0e3a0e8675aecd3edbb6d,computer,Desktop or Laptop,Windows 10,Chrome 103.0.0.0,1280x720,1280x569,NA,ITT Ratings,2,against,9,NA,NA,NA,NA,NA,NA,NA,ACCEPT,NA,NA,batch9pro,batch9pro,29,29,1,Screen 1,continueButton,response_rating_scale_likert_active,3653.100000143051,NA,NA,Strongly Disagree,1,0,1,0,NA,NA,NA,NA,1,statements,Against any type of vaccinations,1,17/06/2021 12:58,17/06/2021 13:06,IP Address,For (I feel positively about the vaccines),Rarely,Most weeks,57,Female,NA,"Undergraduate degree (BSc, BA)",control,85,2,For,Against
32,1659954237974,08/08/2022 10:23:57,1659954239434,1,08/08/2022 11:23:59,94118,2,task-xidh,NA,23521785,6893516,NA,complete,NA,62f0e3a0e8675aecd3edbb6d,computer,Desktop or Laptop,Windows 10,Chrome 103.0.0.0,1280x720,1280x569,NA,ITT Ratings,2,against,9,NA,NA,NA,NA,NA,NA,NA,ACCEPT,NA,NA,batch9pro,batch9pro,56,30,1,Screen 1,continueButton,response_rating_scale_likert_active,2751.099999904633,NA,NA,Agree,1,0,1,0,NA,NA,NA,NA,1,statements,I don't want to catch covid,1,17/06/2021 12:53,17/06/2021 13:08,IP Address,For (I feel positively about the vaccines),A few times a year,Rarely,33,Female,NA,"Undergraduate degree (BSc, BA)",control,89,2,For,For
33,1659954244784,08/08/2022 10:24:04,1659954246241,1,08/08/2022 11:24:06,94118,2,task-xidh,NA,23521785,6893516,NA,complete,NA,62f0e3a0e8675aecd3edbb6d,computer,Desktop or Laptop,Windows 10,Chrome 103.0.0.0,1280x720,1280x569,NA,ITT Ratings,2,against,9,NA,NA,NA,NA,NA,NA,NA,ACCEPT,NA,NA,batch9pro,batch9pro,26,31,1,Screen 1,continueButton,response_rating_scale_likert_active,6795.900000095367,NA,NA,Somewhat Disagree,1,0,1,0,NA,NA,NA,NA,1,statements,protecting those who are close to you,1,17/06/2021 12:58,17/06/2021 13:06,IP Address,For (I feel positively about the vaccines),Rarely,Rarely,19,Male,NA,A levels,choice,84,2,For,For
34,1659954246720,08/08/2022 10:24:06,1659954248173,1,08/08/2022 11:24:08,94118,2,task-xidh,NA,23521785,6893516,NA,complete,NA,62f0e3a0e8675aecd3edbb6d,computer,Desktop or Laptop,Windows 10,Chrome 103.0.0.0,1280x720,1280x569,NA,ITT Ratings,2,against,9,NA,NA,NA,NA,NA,NA,NA,ACCEPT,NA,NA,batch9pro,batch9pro,60,32,1,Screen 1,continueButton,response_rating_scale_likert_active,1919,NA,NA,Somewhat Agree,1,0,1,0,NA,NA,NA,NA,1,statements,We don't know how effective the vaccine is yet,1,17/06/2021 12:53,17/06/2021 13:08,IP Address,For (I feel positively about the vaccines),Most weeks,Most months,25,Female,NA,"Undergraduate degree (BSc, BA)",control,90,3,For,Against
35,1659954249436,08/08/2022 10:24:09,1659954250896,1,08/08/2022 11:24:10,94118,2,task-xidh,NA,23521785,6893516,NA,complete,NA,62f0e3a0e8675aecd3edbb6d,computer,Desktop or Laptop,Windows 10,Chrome 103.0.0.0,1280x720,1280x569,NA,ITT Ratings,2,against,9,NA,NA,NA,NA,NA,NA,NA,ACCEPT,NA,NA,batch9pro,batch9pro,16,33,1,Screen 1,continueButton,response_rating_scale_likert_active,2716.5,NA,NA,Strongly Agree,1,0,1,0,NA,NA,NA,NA,1,statements,It hasn't been around long enough to know the long term effects,1,17/06/2021 12:57,17/06/2021 13:06,IP Address,For (I feel positively about the vaccines),Rarely,A few times a year,31,Female,NA,"Undergraduate degree (BSc, BA)",choice,83,1,For,Against
36,1659954251437,08/08/2022 10:24:11,1659954252904,1,08/08/2022 11:24:12,94118,2,task-xidh,NA,23521785,6893516,NA,complete,NA,62f0e3a0e8675aecd3edbb6d,computer,Desktop or Laptop,Windows 10,Chrome 103.0.0.0,1280x720,1280x569,NA,ITT Ratings,2,against,9,NA,NA,NA,NA,NA,NA,NA,ACCEPT,NA,NA,batch9pro,batch9pro,13,34,1,Screen 1,continueButton,response_rating_scale_likert_active,2001.8000001907349,NA,NA,Somewhat Disagree,1,0,1,0,NA,NA,NA,NA,1,statements,It protects my family,1,17/06/2021 12:57,17/06/2021 13:06,IP Address,For (I feel positively about the vaccines),Never,Rarely,28,Female,NA,"Undergraduate degree (BSc, BA)",choice,82,1,For,For
37,1659954254359,08/08/2022 10:24:14,1659954255815,1,08/08/2022 11:24:15,94118,2,task-xidh,NA,23521785,6893516,NA,complete,NA,62f0e3a0e8675aecd3edbb6d,computer,Desktop or Laptop,Windows 10,Chrome 103.0.0.0,1280x720,1280x569,NA,ITT Ratings,2,against,9,NA,NA,NA,NA,NA,NA,NA,ACCEPT,NA,NA,batch9pro,batch9pro,24,35,1,Screen 1,continueButton,response_rating_scale_likert_active,2900.2000000476837,NA,NA,Strongly Agree,1,0,1,0,NA,NA,NA,NA,1,statements,my body my choice sort of argument,1,17/06/2021 12:58,17/06/2021 13:06,IP Address,For (I feel positively about the vaccines),Rarely,Rarely,19,Male,NA,A levels,choice,84,3,For,Against
38,1659954256235,08/08/2022 10:24:16,1659954257693,1,08/08/2022 11:24:17,94118,2,task-xidh,NA,23521785,6893516,NA,complete,NA,62f0e3a0e8675aecd3edbb6d,computer,Desktop or Laptop,Windows 10,Chrome 103.0.0.0,1280x720,1280x569,NA,ITT Ratings,2,against,9,NA,NA,NA,NA,NA,NA,NA,ACCEPT,NA,NA,batch9pro,batch9pro,30,36,1,Screen 1,continueButton,response_rating_scale_likert_active,1866.0999999046328,NA,NA,Agree,1,0,1,0,NA,NA,NA,NA,1,statements,Possible side effects,1,17/06/2021 12:58,17/06/2021 13:06,IP Address,For (I feel positively about the vaccines),Rarely,Most weeks,57,Female,NA,"Undergraduate degree (BSc, BA)",control,85,3,For,Against
39,1659954258813,08/08/2022 10:24:18,1659954260272,1,08/08/2022 11:24:20,94118,2,task-xidh,NA,23521785,6893516,NA,complete,NA,62f0e3a0e8675aecd3edbb6d,computer,Desktop or Laptop,Windows 10,Chrome 103.0.0.0,1280x720,1280x569,NA,ITT Ratings,2,against,9,NA,NA,NA,NA,NA,NA,NA,ACCEPT,NA,NA,batch9pro,batch9pro,61,37,1,Screen 1,continueButton,response_rating_scale_likert_active,2571.399999856949,NA,NA,Strongly Disagree,1,0,1,0,NA,NA,NA,NA,1,statements,Scientists are recommending it and they know best,1,17/06/2021 12:53,17/06/2021 13:08,IP Address,For (I feel positively about the vaccines),Most weeks,Most months,25,Female,NA,"Undergraduate degree (BSc, BA)",control,90,1,For,For
40,1659954261138,08/08/2022 10:24:21,1659954262594,1,08/08/2022 11:24:22,94118,2,task-xidh,NA,23521785,6893516,NA,complete,NA,62f0e3a0e8675aecd3edbb6d,computer,Desktop or Laptop,Windows 10,Chrome 103.0.0.0,1280x720,1280x569,NA,ITT Ratings,2,against,9,NA,NA,NA,NA,NA,NA,NA,ACCEPT,NA,NA,batch9pro,batch9pro,5,38,1,Screen 1,continueButton,response_rating_scale_likert_active,2307.5,NA,NA,Strongly Disagree,1,0,1,0,NA,NA,NA,NA,1,statements,The government can track me if I take the vaccine,1,17/06/2021 12:57,17/06/2021 13:05,IP Address,For (I feel positively about the vaccines),Rarely,Most weeks,31,Male,NA,"Undergraduate degree (BSc, BA)",choice,81,2,For,Against
41,1659954264447,08/08/2022 10:24:24,1659954265905,1,08/08/2022 11:24:25,94118,2,task-xidh,NA,23521785,6893516,NA,complete,NA,62f0e3a0e8675aecd3edbb6d,computer,Desktop or Laptop,Windows 10,Chrome 103.0.0.0,1280x720,1280x569,NA,ITT Ratings,2,against,9,NA,NA,NA,NA,NA,NA,NA,ACCEPT,NA,NA,batch9pro,batch9pro,37,39,1,Screen 1,continueButton,response_rating_scale_likert_active,3288.800000190735,NA,NA,Disagree,1,0,1,0,NA,NA,NA,NA,1,statements,its a start to ending covid,1,17/06/2021 12:55,17/06/2021 13:06,IP Address,For (I feel positively about the vaccines),Rarely,Most days,19,Female,NA,A levels,control,86,1,For,For
42,1659954270562,08/08/2022 10:24:30,1659954272024,1,08/08/2022 11:24:32,94118,2,task-xidh,NA,23521785,6893516,NA,complete,NA,62f0e3a0e8675aecd3edbb6d,computer,Desktop or Laptop,Windows 10,Chrome 103.0.0.0,1280x720,1280x569,NA,ITT Ratings,2,against,9,NA,NA,NA,NA,NA,NA,NA,ACCEPT,NA,NA,batch9pro,batch9pro,7,40,1,Screen 1,continueButton,response_rating_scale_likert_active,6107.400000095367,NA,NA,Somewhat Disagree,1,0,1,0,NA,NA,NA,NA,1,statements,I will be fully protected from covid 19 and protect those around me,1,17/06/2021 12:57,17/06/2021 13:05,IP Address,For (I feel positively about the vaccines),Rarely,Most weeks,31,Male,NA,"Undergraduate degree (BSc, BA)",choice,81,1,For,For
43,1659954272939,08/08/2022 10:24:32,1659954274410,1,08/08/2022 11:24:34,94118,2,task-xidh,NA,23521785,6893516,NA,complete,NA,62f0e3a0e8675aecd3edbb6d,computer,Desktop or Laptop,Windows 10,Chrome 103.0.0.0,1280x720,1280x569,NA,ITT Ratings,2,against,9,NA,NA,NA,NA,NA,NA,NA,ACCEPT,NA,NA,batch9pro,batch9pro,50,41,1,Screen 1,continueButton,response_rating_scale_likert_active,2361.099999904633,NA,NA,Agree,1,0,1,0,NA,NA,NA,NA,1,statements,I want to help society return to normality as soon as possible.,1,17/06/2021 13:00,17/06/2021 13:07,IP Address,For (I feel positively about the vaccines),A few times a year,Most months,31,Female,NA,"Undergraduate degree (BSc, BA)",choice,88,2,For,For
44,1659954276421,08/08/2022 10:24:36,1659954277789,1,08/08/2022 11:24:37,94118,2,task-xidh,NA,23521785,6893516,NA,complete,NA,62f0e3a0e8675aecd3edbb6d,computer,Desktop or Laptop,Windows 10,Chrome 103.0.0.0,1280x720,1280x569,NA,ITT Ratings,2,against,9,NA,NA,NA,NA,NA,NA,NA,ACCEPT,NA,NA,batch9pro,batch9pro,32,42,1,Screen 1,continueButton,response_rating_scale_likert_active,3368.599999904633,NA,NA,Somewhat Agree,1,0,1,0,NA,NA,NA,NA,1,statements,Do not want to catch covid,1,17/06/2021 12:58,17/06/2021 13:06,IP Address,For (I feel positively about the vaccines),Rarely,Most weeks,57,Female,NA,"Undergraduate degree (BSc, BA)",control,85,2,For,For
45,1659954278798,08/08/2022 10:24:38,1659954280240,1,08/08/2022 11:24:40,94118,2,task-xidh,NA,23521785,6893516,NA,complete,NA,62f0e3a0e8675aecd3edbb6d,computer,Desktop or Laptop,Windows 10,Chrome 103.0.0.0,1280x720,1280x569,NA,ITT Ratings,2,against,9,NA,NA,NA,NA,NA,NA,NA,ACCEPT,NA,NA,batch9pro,batch9pro,49,43,1,Screen 1,continueButton,response_rating_scale_likert_active,2424.2000000476837,NA,NA,Strongly Disagree,1,0,1,0,NA,NA,NA,NA,1,statements,I am afraid of catching Covid-19.,1,17/06/2021 13:00,17/06/2021 13:07,IP Address,For (I feel positively about the vaccines),A few times a year,Most months,31,Female,NA,"Undergraduate degree (BSc, BA)",choice,88,1,For,For
46,1659954286858,08/08/2022 10:24:46,1659954288318,1,08/08/2022 11:24:48,94118,2,task-xidh,NA,23521785,6893516,NA,complete,NA,62f0e3a0e8675aecd3edbb6d,computer,Desktop or Laptop,Windows 10,Chrome 103.0.0.0,1280x720,1280x569,NA,ITT Ratings,2,against,9,NA,NA,NA,NA,NA,NA,NA,ACCEPT,NA,NA,batch9pro,batch9pro,35,44,1,Screen 1,continueButton,response_rating_scale_likert_active,8058.899999856949,NA,NA,Somewhat Agree,1,0,1,0,NA,NA,NA,NA,1,statements,the side effects short term and long term,1,17/06/2021 12:55,17/06/2021 13:06,IP Address,For (I feel positively about the vaccines),Rarely,Most days,19,Female,NA,A levels,control,86,2,For,Against
47,1659954288461,08/08/2022 10:24:48,1659954289911,1,08/08/2022 11:24:49,94118,2,task-xidh,NA,23521785,6893516,NA,complete,NA,62f0e3a0e8675aecd3edbb6d,computer,Desktop or Laptop,Windows 10,Chrome 103.0.0.0,1280x720,1280x569,NA,ITT Ratings,2,against,9,NA,NA,NA,NA,NA,NA,NA,ACCEPT,NA,NA,batch9pro,batch9pro,19,45,1,Screen 1,continueButton,response_rating_scale_likert_active,1583.4000000953674,NA,NA,Somewhat Agree,1,0,1,0,NA,NA,NA,NA,1,statements,I want to get back to normality,1,17/06/2021 12:57,17/06/2021 13:06,IP Address,For (I feel positively about the vaccines),Rarely,A few times a year,31,Female,NA,"Undergraduate degree (BSc, BA)",choice,83,1,For,For
48,1659954292865,08/08/2022 10:24:52,1659954294300,1,08/08/2022 11:24:54,94118,2,task-xidh,NA,23521785,6893516,NA,complete,NA,62f0e3a0e8675aecd3edbb6d,computer,Desktop or Laptop,Windows 10,Chrome 103.0.0.0,1280x720,1280x569,NA,ITT Ratings,2,against,9,NA,NA,NA,NA,NA,NA,NA,ACCEPT,NA,NA,batch9pro,batch9pro,2,46,1,Screen 1,continueButton,response_rating_scale_likert_active,4381.700000047684,NA,NA,Somewhat Agree,1,0,1,0,NA,NA,NA,NA,1,statements,We would like to check you are reading each argument carefully. Please select 'Somewhat Agree' for this answer,1,NA,NA,NA,NA,NA,NA,NA,NA,NA,NA,NA,NA,check1,NA,NA
49,1659954296701,08/08/2022 10:24:56,1659954298161,1,08/08/2022 11:24:58,94118,2,task-xidh,NA,23521785,6893516,NA,complete,NA,62f0e3a0e8675aecd3edbb6d,computer,Desktop or Laptop,Windows 10,Chrome 103.0.0.0,1280x720,1280x569,NA,ITT Ratings,2,against,9,NA,NA,NA,NA,NA,NA,NA,ACCEPT,NA,NA,batch9pro,batch9pro,54,47,1,Screen 1,continueButton,response_rating_scale_likert_active,3853.5,NA,NA,Somewhat Disagree,1,0,1,0,NA,NA,NA,NA,1,statements,There's not been enough time to make the vaccine work properly,1,17/06/2021 12:53,17/06/2021 13:08,IP Address,For (I feel positively about the vaccines),A few times a year,Rarely,33,Female,NA,"Undergraduate degree (BSc, BA)",control,89,3,For,Against
50,1659954298407,08/08/2022 10:24:58,1659954299868,1,08/08/2022 11:24:59,94118,2,task-xidh,NA,23521785,6893516,NA,complete,NA,62f0e3a0e8675aecd3edbb6d,computer,Desktop or Laptop,Windows 10,Chrome 103.0.0.0,1280x720,1280x569,NA,ITT Ratings,2,against,9,NA,NA,NA,NA,NA,NA,NA,ACCEPT,NA,NA,batch9pro,batch9pro,52,48,1,Screen 1,continueButton,response_rating_scale_likert_active,1700.5,NA,NA,Strongly Disagree,1,0,1,0,NA,NA,NA,NA,1,statements,I don't believe covid is real.,1,17/06/2021 12:53,17/06/2021 13:08,IP Address,For (I feel positively about the vaccines),A few times a year,Rarely,33,Female,NA,"Undergraduate degree (BSc, BA)",control,89,1,For,Against
51,1659954302489,08/08/2022 10:25:02,1659954303957,1,08/08/2022 11:25:03,94118,2,task-xidh,NA,23521785,6893516,NA,complete,NA,62f0e3a0e8675aecd3edbb6d,computer,Desktop or Laptop,Windows 10,Chrome 103.0.0.0,1280x720,1280x569,NA,ITT Ratings,2,against,9,NA,NA,NA,NA,NA,NA,NA,ACCEPT,NA,NA,batch9pro,batch9pro,51,49,1,Screen 1,continueButton,response_rating_scale_likert_active,4080.700000047684,NA,NA,Somewhat Disagree,1,0,1,0,NA,NA,NA,NA,1,statements,I believe the vaccine is safe.,1,17/06/2021 13:00,17/06/2021 13:07,IP Address,For (I feel positively about the vaccines),A few times a year,Most months,31,Female,NA,"Undergraduate degree (BSc, BA)",choice,88,3,For,For
52,1659954306091,08/08/2022 10:25:06,1659954307550,1,08/08/2022 11:25:07,94118,2,task-xidh,NA,23521785,6893516,NA,complete,NA,62f0e3a0e8675aecd3edbb6d,computer,Desktop or Laptop,Windows 10,Chrome 103.0.0.0,1280x720,1280x569,NA,ITT Ratings,2,against,9,NA,NA,NA,NA,NA,NA,NA,ACCEPT,NA,NA,batch9pro,batch9pro,28,50,1,Screen 1,continueButton,response_rating_scale_likert_active,3585.099999904633,NA,NA,Agree,1,0,1,0,NA,NA,NA,NA,1,statements,The time factor - trials can take up to 10 years,1,17/06/2021 12:58,17/06/2021 13:06,IP Address,For (I feel positively about the vaccines),Rarely,Most weeks,57,Female,NA,"Undergraduate degree (BSc, BA)",control,85,1,For,Against
53,1659954308812,08/08/2022 10:25:08,1659954310265,1,08/08/2022 11:25:10,94118,2,task-xidh,NA,23521785,6893516,NA,complete,NA,62f0e3a0e8675aecd3edbb6d,computer,Desktop or Laptop,Windows 10,Chrome 103.0.0.0,1280x720,1280x569,NA,ITT Ratings,2,against,9,NA,NA,NA,NA,NA,NA,NA,ACCEPT,NA,NA,batch9pro,batch9pro,10,51,1,Screen 1,continueButton,response_rating_scale_likert_active,2703.7999999523163,NA,NA,Agree,1,0,1,0,NA,NA,NA,NA,1,statements,Time of development,1,17/06/2021 12:57,17/06/2021 13:06,IP Address,For (I feel positively about the vaccines),Never,Rarely,28,Female,NA,"Undergraduate degree (BSc, BA)",choice,82,1,For,Against
54,1659954310958,08/08/2022 10:25:10,1659954312424,1,08/08/2022 11:25:12,94118,2,task-xidh,NA,23521785,6893516,NA,complete,NA,62f0e3a0e8675aecd3edbb6d,computer,Desktop or Laptop,Windows 10,Chrome 103.0.0.0,1280x720,1280x569,NA,ITT Ratings,2,against,9,NA,NA,NA,NA,NA,NA,NA,ACCEPT,NA,NA,batch9pro,batch9pro,14,52,1,Screen 1,continueButton,response_rating_scale_likert_active,2149.199999809265,NA,NA,Somewhat Disagree,1,0,1,0,NA,NA,NA,NA,1,statements,It will get everyone safer,1,17/06/2021 12:57,17/06/2021 13:06,IP Address,For (I feel positively about the vaccines),Never,Rarely,28,Female,NA,"Undergraduate degree (BSc, BA)",choice,82,2,For,For
55,1659954312995,08/08/2022 10:25:12,1659954314465,1,08/08/2022 11:25:14,94118,2,task-xidh,NA,23521785,6893516,NA,complete,NA,62f0e3a0e8675aecd3edbb6d,computer,Desktop or Laptop,Windows 10,Chrome 103.0.0.0,1280x720,1280x569,NA,ITT Ratings,2,against,9,NA,NA,NA,NA,NA,NA,NA,ACCEPT,NA,NA,batch9pro,batch9pro,39,53,1,Screen 1,continueButton,response_rating_scale_likert_active,2028.7999999523165,NA,NA,Disagree,1,0,1,0,NA,NA,NA,NA,1,statements,its responsible to do,1,17/06/2021 12:55,17/06/2021 13:06,IP Address,For (I feel positively about the vaccines),Rarely,Most days,19,Female,NA,A levels,control,86,3,For,For
56,1659954316643,08/08/2022 10:25:16,1659954318099,1,08/08/2022 11:25:18,94118,2,task-xidh,NA,23521785,6893516,NA,complete,NA,62f0e3a0e8675aecd3edbb6d,computer,Desktop or Laptop,Windows 10,Chrome 103.0.0.0,1280x720,1280x569,NA,ITT Ratings,2,against,9,NA,NA,NA,NA,NA,NA,NA,ACCEPT,NA,NA,batch9pro,batch9pro,63,54,1,Screen 1,continueButton,response_rating_scale_likert_active,3626,NA,NA,Somewhat Agree,1,0,1,0,NA,NA,NA,NA,1,statements,I want to help with group immunity for those who are unable to have vaccines,1,17/06/2021 12:53,17/06/2021 13:08,IP Address,For (I feel positively about the vaccines),Most weeks,Most months,25,Female,NA,"Undergraduate degree (BSc, BA)",control,90,3,For,For
57,1659954320060,08/08/2022 10:25:20,1659954321437,1,08/08/2022 11:25:21,94118,2,task-xidh,NA,23521785,6893516,NA,complete,NA,62f0e3a0e8675aecd3edbb6d,computer,Desktop or Laptop,Windows 10,Chrome 103.0.0.0,1280x720,1280x569,NA,ITT Ratings,2,against,9,NA,NA,NA,NA,NA,NA,NA,ACCEPT,NA,NA,batch9pro,batch9pro,41,55,1,Screen 1,continueButton,response_rating_scale_likert_active,3321.899999856949,NA,NA,Somewhat Disagree,1,0,1,0,NA,NA,NA,NA,1,statements,They are trying to control us,1,17/06/2021 12:58,17/06/2021 13:06,IP Address,For (I feel positively about the vaccines),Never,Most months,35,Female,NA,A levels,control,87,2,For,Against
58,1659954324553,08/08/2022 10:25:24,1659954326028,1,08/08/2022 11:25:26,94118,2,task-xidh,NA,23521785,6893516,NA,complete,NA,62f0e3a0e8675aecd3edbb6d,computer,Desktop or Laptop,Windows 10,Chrome 103.0.0.0,1280x720,1280x569,NA,ITT Ratings,2,against,9,NA,NA,NA,NA,NA,NA,NA,ACCEPT,NA,NA,batch9pro,batch9pro,25,56,1,Screen 1,continueButton,response_rating_scale_likert_active,4564.400000095367,NA,NA,Somewhat Agree,1,0,1,0,NA,NA,NA,NA,1,statements,protecting yourself; making yourself immune,1,17/06/2021 12:58,17/06/2021 13:06,IP Address,For (I feel positively about the vaccines),Rarely,Rarely,19,Male,NA,A levels,choice,84,1,For,For
59,1659954326924,08/08/2022 10:25:26,1659954328353,1,08/08/2022 11:25:28,94118,2,task-xidh,NA,23521785,6893516,NA,complete,NA,62f0e3a0e8675aecd3edbb6d,computer,Desktop or Laptop,Windows 10,Chrome 103.0.0.0,1280x720,1280x569,NA,ITT Ratings,2,against,9,NA,NA,NA,NA,NA,NA,NA,ACCEPT,NA,NA,batch9pro,batch9pro,15,57,1,Screen 1,continueButton,response_rating_scale_likert_active,2306.599999904633,NA,NA,Strongly Disagree,1,0,1,0,NA,NA,NA,NA,1,statements,It's been tested and shown to work,1,17/06/2021 12:57,17/06/2021 13:06,IP Address,For (I feel positively about the vaccines),Never,Rarely,28,Female,NA,"Undergraduate degree (BSc, BA)",choice,82,3,For,For
60,1659954329366,08/08/2022 10:25:29,1659954330827,1,08/08/2022 11:25:30,94118,2,task-xidh,NA,23521785,6893516,NA,complete,NA,62f0e3a0e8675aecd3edbb6d,computer,Desktop or Laptop,Windows 10,Chrome 103.0.0.0,1280x720,1280x569,NA,ITT Ratings,2,against,9,NA,NA,NA,NA,NA,NA,NA,ACCEPT,NA,NA,batch9pro,batch9pro,17,58,1,Screen 1,continueButton,response_rating_scale_likert_active,2464,NA,NA,Strongly Agree,1,0,1,0,NA,NA,NA,NA,1,statements,We don't know how long it works for,1,17/06/2021 12:57,17/06/2021 13:06,IP Address,For (I feel positively about the vaccines),Rarely,A few times a year,31,Female,NA,"Undergraduate degree (BSc, BA)",choice,83,2,For,Against
61,1659954331226,08/08/2022 10:25:31,1659954332679,1,08/08/2022 11:25:32,94118,2,task-xidh,NA,23521785,6893516,NA,complete,NA,62f0e3a0e8675aecd3edbb6d,computer,Desktop or Laptop,Windows 10,Chrome 103.0.0.0,1280x720,1280x569,NA,ITT Ratings,2,against,9,NA,NA,NA,NA,NA,NA,NA,ACCEPT,NA,NA,batch9pro,batch9pro,22,59,1,Screen 1,continueButton,response_rating_scale_likert_active,1844.2999999523165,NA,NA,Somewhat Agree,1,0,1,0,NA,NA,NA,NA,1,statements,danger of side effects,1,17/06/2021 12:58,17/06/2021 13:06,IP Address,For (I feel positively about the vaccines),Rarely,Rarely,19,Male,NA,A levels,choice,84,1,For,Against
62,1659954334714,08/08/2022 10:25:34,1659954336169,1,08/08/2022 11:25:36,94118,2,task-xidh,NA,23521785,6893516,NA,complete,NA,62f0e3a0e8675aecd3edbb6d,computer,Desktop or Laptop,Windows 10,Chrome 103.0.0.0,1280x720,1280x569,NA,ITT Ratings,2,against,9,NA,NA,NA,NA,NA,NA,NA,ACCEPT,NA,NA,batch9pro,batch9pro,44,60,1,Screen 1,continueButton,response_rating_scale_likert_active,3471.800000190735,NA,NA,Somewhat Agree,1,0,1,0,NA,NA,NA,NA,1,statements,I want the country to get back up and running,1,17/06/2021 12:58,17/06/2021 13:06,IP Address,For (I feel positively about the vaccines),Never,Most months,35,Female,NA,A levels,control,87,2,For,For
63,1659954337231,08/08/2022 10:25:37,1659954338691,1,08/08/2022 11:25:38,94118,2,task-xidh,NA,23521785,6893516,NA,complete,NA,62f0e3a0e8675aecd3edbb6d,computer,Desktop or Laptop,Windows 10,Chrome 103.0.0.0,1280x720,1280x569,NA,ITT Ratings,2,against,9,NA,NA,NA,NA,NA,NA,NA,ACCEPT,NA,NA,batch9pro,batch9pro,6,61,1,Screen 1,continueButton,response_rating_scale_likert_active,2515.900000095367,NA,NA,Strongly Disagree,1,0,1,0,NA,NA,NA,NA,1,statements,Don't believe that any vaccines are effective,1,17/06/2021 12:57,17/06/2021 13:05,IP Address,For (I feel positively about the vaccines),Rarely,Most weeks,31,Male,NA,"Undergraduate degree (BSc, BA)",choice,81,3,For,Against
64,1659954340859,08/08/2022 10:25:40,1659954342317,1,08/08/2022 11:25:42,94118,2,task-xidh,NA,23521785,6893516,NA,complete,NA,62f0e3a0e8675aecd3edbb6d,computer,Desktop or Laptop,Windows 10,Chrome 103.0.0.0,1280x720,1280x569,NA,ITT Ratings,2,against,9,NA,NA,NA,NA,NA,NA,NA,ACCEPT,NA,NA,batch9pro,batch9pro,23,62,1,Screen 1,continueButton,response_rating_scale_likert_active,3605.699999809265,NA,NA,Disagree,1,0,1,0,NA,NA,NA,NA,1,statements,thinking its a means of government control (conspiracy),1,17/06/2021 12:58,17/06/2021 13:06,IP Address,For (I feel positively about the vaccines),Rarely,Rarely,19,Male,NA,A levels,choice,84,2,For,Against
65,1659954341010,08/08/2022 10:25:41,1659954342324,1,08/08/2022 11:25:42,94118,2,task-xidh,NA,23521785,6893516,NA,complete,NA,62f0e3a0e8675aecd3edbb6d,computer,Desktop or Laptop,Windows 10,Chrome 103.0.0.0,1280x720,1280x569,NA,ITT Ratings,2,against,9,NA,NA,NA,NA,NA,NA,NA,ACCEPT,NA,NA,batch9pro,NA,NA,END TASK,NA,NA,NA,NA,232317,NA,NA,NA,NA,0,1,0,NA,NA,NA,NA,NA,NA,NA,NA,NA,NA,NA,NA,NA,NA,NA,NA,NA,NA,NA,NA,NA,NA,NA
1,1659954198860,08/08/2022 10:23:18,1659954197548,1,08/08/2022 11:23:17,94118,2,task-xidh,NA,23521842,6893524,NA,complete,NA,62f0e3bc073e25d93a972dad,mobile,Apple iPhone,iOS 15.6,Mobile Safari 15.6,428x926,832x345,NA,ITT Ratings,2,against,9,NA,NA,NA,NA,NA,NA,NA,ACCEPT,NA,NA,batch9pro,NA,NA,BEGIN TASK,NA,NA,NA,NA,NA,NA,NA,NA,NA,0,1,0,NA,NA,NA,NA,NA,NA,NA,NA,NA,NA,NA,NA,NA,NA,NA,NA,NA,NA,NA,NA,NA,NA,NA
2,1659954205649,08/08/2022 10:23:25,1659954205142,1,08/08/2022 11:23:25,94118,2,task-xidh,NA,23521842,6893524,NA,complete,NA,62f0e3bc073e25d93a972dad,mobile,Apple iPhone,iOS 15.6,Mobile Safari 15.6,428x926,832x345,NA,ITT Ratings,2,against,9,NA,NA,NA,NA,NA,NA,NA,ACCEPT,NA,NA,batch9pro,batch9pro,1,1,1,Screen 1,advancementZone,continue_button,7562,NA,NA,NA,NA,0,1,0,NA,NA,NA,NA,NA,instructions,NA,NA,NA,NA,NA,NA,NA,NA,NA,NA,NA,NA,NA,NA,NA,NA,NA
3,1659954209445,08/08/2022 10:23:29,1659954209023,1,08/08/2022 11:23:29,94118,2,task-xidh,NA,23521842,6893524,NA,complete,NA,62f0e3bc073e25d93a972dad,mobile,Apple iPhone,iOS 15.6,Mobile Safari 15.6,428x926,832x345,NA,ITT Ratings,2,against,9,NA,NA,NA,NA,NA,NA,NA,ACCEPT,NA,NA,batch9pro,batch9pro,18,1,1,Screen 1,continueButton,response_rating_scale_likert_active,3864.000000000002,NA,NA,Strongly Agree,1,0,1,0,NA,NA,NA,NA,1,statements,I don't want a Covid passport,1,17/06/2021 12:57,17/06/2021 13:06,IP Address,For (I feel positively about the vaccines),Rarely,A few times a year,31,Female,NA,"Undergraduate degree (BSc, BA)",choice,83,3,For,Against
4,1659954212235,08/08/2022 10:23:32,1659954211807,1,08/08/2022 11:23:31,94118,2,task-xidh,NA,23521842,6893524,NA,complete,NA,62f0e3bc073e25d93a972dad,mobile,Apple iPhone,iOS 15.6,Mobile Safari 15.6,428x926,832x345,NA,ITT Ratings,2,against,9,NA,NA,NA,NA,NA,NA,NA,ACCEPT,NA,NA,batch9pro,batch9pro,21,2,1,Screen 1,continueButton,response_rating_scale_likert_active,2771,NA,NA,Somewhat Agree,1,0,1,0,NA,NA,NA,NA,1,statements,I want to protect my family and friends,1,17/06/2021 12:57,17/06/2021 13:06,IP Address,For (I feel positively about the vaccines),Rarely,A few times a year,31,Female,NA,"Undergraduate degree (BSc, BA)",choice,83,3,For,For
5,1659954218544,08/08/2022 10:23:38,1659954218087,1,08/08/2022 11:23:38,94118,2,task-xidh,NA,23521842,6893524,NA,complete,NA,62f0e3bc073e25d93a972dad,mobile,Apple iPhone,iOS 15.6,Mobile Safari 15.6,428x926,832x345,NA,ITT Ratings,2,against,9,NA,NA,NA,NA,NA,NA,NA,ACCEPT,NA,NA,batch9pro,batch9pro,31,3,1,Screen 1,continueButton,response_rating_scale_likert_active,6264,NA,NA,Strongly Disagree,1,0,1,0,NA,NA,NA,NA,1,statements,It's the only way to conquer and get rid of the virus,1,17/06/2021 12:58,17/06/2021 13:06,IP Address,For (I feel positively about the vaccines),Rarely,Most weeks,57,Female,NA,"Undergraduate degree (BSc, BA)",control,85,1,For,For
6,1659954222636,08/08/2022 10:23:42,1659954222170,1,08/08/2022 11:23:42,94118,2,task-xidh,NA,23521842,6893524,NA,complete,NA,62f0e3bc073e25d93a972dad,mobile,Apple iPhone,iOS 15.6,Mobile Safari 15.6,428x926,832x345,NA,ITT Ratings,2,against,9,NA,NA,NA,NA,NA,NA,NA,ACCEPT,NA,NA,batch9pro,batch9pro,47,4,1,Screen 1,continueButton,response_rating_scale_likert_active,4061,NA,NA,Agree,1,0,1,0,NA,NA,NA,NA,1,statements,I don't trust the government/pharmaceutical industry to have produced a (safe) vaccine in the timeframe.,1,17/06/2021 13:00,17/06/2021 13:07,IP Address,For (I feel positively about the vaccines),A few times a year,Most months,31,Female,NA,"Undergraduate degree (BSc, BA)",choice,88,2,For,Against
7,1659954232526,08/08/2022 10:23:52,1659954232077,1,08/08/2022 11:23:52,94118,2,task-xidh,NA,23521842,6893524,NA,complete,NA,62f0e3bc073e25d93a972dad,mobile,Apple iPhone,iOS 15.6,Mobile Safari 15.6,428x926,832x345,NA,ITT Ratings,2,against,9,NA,NA,NA,NA,NA,NA,NA,ACCEPT,NA,NA,batch9pro,batch9pro,35,5,1,Screen 1,continueButton,response_rating_scale_likert_active,9889,NA,NA,Agree,1,0,1,0,NA,NA,NA,NA,1,statements,the side effects short term and long term,1,17/06/2021 12:55,17/06/2021 13:06,IP Address,For (I feel positively about the vaccines),Rarely,Most days,19,Female,NA,A levels,control,86,2,For,Against
8,1659954234088,08/08/2022 10:23:54,1659954233877,1,08/08/2022 11:23:53,94118,2,task-xidh,NA,23521842,6893524,NA,complete,NA,62f0e3bc073e25d93a972dad,mobile,Apple iPhone,iOS 15.6,Mobile Safari 15.6,428x926,832x345,NA,ITT Ratings,2,against,9,NA,NA,NA,NA,NA,NA,NA,ACCEPT,NA,NA,batch9pro,batch9pro,40,6,1,Screen 1,continueButton,response_rating_scale_likert_active,1780,NA,NA,Agree,1,0,1,0,NA,NA,NA,NA,1,statements,There hasn't been long enough to develop a vaccination,1,17/06/2021 12:58,17/06/2021 13:06,IP Address,For (I feel positively about the vaccines),Never,Most months,35,Female,NA,A levels,control,87,1,For,Against
9,1659954237557,08/08/2022 10:23:57,1659954237145,1,08/08/2022 11:23:57,94118,2,task-xidh,NA,23521842,6893524,NA,complete,NA,62f0e3bc073e25d93a972dad,mobile,Apple iPhone,iOS 15.6,Mobile Safari 15.6,428x926,832x345,NA,ITT Ratings,2,against,9,NA,NA,NA,NA,NA,NA,NA,ACCEPT,NA,NA,batch9pro,batch9pro,23,7,1,Screen 1,continueButton,response_rating_scale_likert_active,3251,NA,NA,Neither Agree nor Disagree,1,0,1,0,NA,NA,NA,NA,1,statements,thinking its a means of government control (conspiracy),1,17/06/2021 12:58,17/06/2021 13:06,IP Address,For (I feel positively about the vaccines),Rarely,Rarely,19,Male,NA,A levels,choice,84,2,For,Against
10,1659954240088,08/08/2022 10:24:00,1659954239678,1,08/08/2022 11:23:59,94118,2,task-xidh,NA,23521842,6893524,NA,complete,NA,62f0e3bc073e25d93a972dad,mobile,Apple iPhone,iOS 15.6,Mobile Safari 15.6,428x926,832x345,NA,ITT Ratings,2,against,9,NA,NA,NA,NA,NA,NA,NA,ACCEPT,NA,NA,batch9pro,batch9pro,16,8,1,Screen 1,continueButton,response_rating_scale_likert_active,2513,NA,NA,Agree,1,0,1,0,NA,NA,NA,NA,1,statements,It hasn't been around long enough to know the long term effects,1,17/06/2021 12:57,17/06/2021 13:06,IP Address,For (I feel positively about the vaccines),Rarely,A few times a year,31,Female,NA,"Undergraduate degree (BSc, BA)",choice,83,1,For,Against
11,1659954242687,08/08/2022 10:24:02,1659954242196,1,08/08/2022 11:24:02,94118,2,task-xidh,NA,23521842,6893524,NA,complete,NA,62f0e3bc073e25d93a972dad,mobile,Apple iPhone,iOS 15.6,Mobile Safari 15.6,428x926,832x345,NA,ITT Ratings,2,against,9,NA,NA,NA,NA,NA,NA,NA,ACCEPT,NA,NA,batch9pro,batch9pro,41,9,1,Screen 1,continueButton,response_rating_scale_likert_active,2500.9999999999927,NA,NA,Neither Agree nor Disagree,1,0,1,0,NA,NA,NA,NA,1,statements,They are trying to control us,1,17/06/2021 12:58,17/06/2021 13:06,IP Address,For (I feel positively about the vaccines),Never,Most months,35,Female,NA,A levels,control,87,2,For,Against
12,1659954249401,08/08/2022 10:24:09,1659954248854,1,08/08/2022 11:24:08,94118,2,task-xidh,NA,23521842,6893524,NA,complete,NA,62f0e3bc073e25d93a972dad,mobile,Apple iPhone,iOS 15.6,Mobile Safari 15.6,428x926,832x345,NA,ITT Ratings,2,against,9,NA,NA,NA,NA,NA,NA,NA,ACCEPT,NA,NA,batch9pro,batch9pro,45,10,1,Screen 1,continueButton,response_rating_scale_likert_active,6640,NA,NA,Agree,1,0,1,0,NA,NA,NA,NA,1,statements,I want to protect loved ones,1,17/06/2021 12:58,17/06/2021 13:06,IP Address,For (I feel positively about the vaccines),Never,Most months,35,Female,NA,A levels,control,87,3,For,For
13,1659954254062,08/08/2022 10:24:14,1659954253278,1,08/08/2022 11:24:13,94118,2,task-xidh,NA,23521842,6893524,NA,complete,NA,62f0e3bc073e25d93a972dad,mobile,Apple iPhone,iOS 15.6,Mobile Safari 15.6,428x926,832x345,NA,ITT Ratings,2,against,9,NA,NA,NA,NA,NA,NA,NA,ACCEPT,NA,NA,batch9pro,batch9pro,58,11,1,Screen 1,continueButton,response_rating_scale_likert_active,4399.999999999993,NA,NA,Agree,1,0,1,0,NA,NA,NA,NA,1,statements,The vaccine has been developed too quickly so they're not sure it's safe,1,17/06/2021 12:53,17/06/2021 13:08,IP Address,For (I feel positively about the vaccines),Most weeks,Most months,25,Female,NA,"Undergraduate degree (BSc, BA)",control,90,1,For,Against
14,1659954258159,08/08/2022 10:24:18,1659954257712,1,08/08/2022 11:24:17,94118,2,task-xidh,NA,23521842,6893524,NA,complete,NA,62f0e3bc073e25d93a972dad,mobile,Apple iPhone,iOS 15.6,Mobile Safari 15.6,428x926,832x345,NA,ITT Ratings,2,against,9,NA,NA,NA,NA,NA,NA,NA,ACCEPT,NA,NA,batch9pro,batch9pro,2,12,1,Screen 1,continueButton,response_rating_scale_likert_active,4413,NA,NA,Somewhat Agree,1,0,1,0,NA,NA,NA,NA,1,statements,We would like to check you are reading each argument carefully. Please select 'Somewhat Agree' for this answer,1,NA,NA,NA,NA,NA,NA,NA,NA,NA,NA,NA,NA,check1,NA,NA
15,1659954261452,08/08/2022 10:24:21,1659954260928,1,08/08/2022 11:24:20,94118,2,task-xidh,NA,23521842,6893524,NA,complete,NA,62f0e3bc073e25d93a972dad,mobile,Apple iPhone,iOS 15.6,Mobile Safari 15.6,428x926,832x345,NA,ITT Ratings,2,against,9,NA,NA,NA,NA,NA,NA,NA,ACCEPT,NA,NA,batch9pro,batch9pro,13,13,1,Screen 1,continueButton,response_rating_scale_likert_active,3197,NA,NA,Somewhat Disagree,1,0,1,0,NA,NA,NA,NA,1,statements,It protects my family,1,17/06/2021 12:57,17/06/2021 13:06,IP Address,For (I feel positively about the vaccines),Never,Rarely,28,Female,NA,"Undergraduate degree (BSc, BA)",choice,82,1,For,For
16,1659954263638,08/08/2022 10:24:23,1659954263198,1,08/08/2022 11:24:23,94118,2,task-xidh,NA,23521842,6893524,NA,complete,NA,62f0e3bc073e25d93a972dad,mobile,Apple iPhone,iOS 15.6,Mobile Safari 15.6,428x926,832x345,NA,ITT Ratings,2,against,9,NA,NA,NA,NA,NA,NA,NA,ACCEPT,NA,NA,batch9pro,batch9pro,43,14,1,Screen 1,continueButton,response_rating_scale_likert_active,2251,NA,NA,Somewhat Disagree,1,0,1,0,NA,NA,NA,NA,1,statements,I want to be protected from covid,1,17/06/2021 12:58,17/06/2021 13:06,IP Address,For (I feel positively about the vaccines),Never,Most months,35,Female,NA,A levels,control,87,1,For,For
17,1659954270533,08/08/2022 10:24:30,1659954270106,1,08/08/2022 11:24:30,94118,2,task-xidh,NA,23521842,6893524,NA,complete,NA,62f0e3bc073e25d93a972dad,mobile,Apple iPhone,iOS 15.6,Mobile Safari 15.6,428x926,832x345,NA,ITT Ratings,2,against,9,NA,NA,NA,NA,NA,NA,NA,ACCEPT,NA,NA,batch9pro,batch9pro,25,15,1,Screen 1,continueButton,response_rating_scale_likert_active,6889,NA,NA,Somewhat Disagree,1,0,1,0,NA,NA,NA,NA,1,statements,protecting yourself; making yourself immune,1,17/06/2021 12:58,17/06/2021 13:06,IP Address,For (I feel positively about the vaccines),Rarely,Rarely,19,Male,NA,A levels,choice,84,1,For,For
18,1659954278690,08/08/2022 10:24:38,1659954278199,1,08/08/2022 11:24:38,94118,2,task-xidh,NA,23521842,6893524,NA,complete,NA,62f0e3bc073e25d93a972dad,mobile,Apple iPhone,iOS 15.6,Mobile Safari 15.6,428x926,832x345,NA,ITT Ratings,2,against,9,NA,NA,NA,NA,NA,NA,NA,ACCEPT,NA,NA,batch9pro,batch9pro,29,16,1,Screen 1,continueButton,response_rating_scale_likert_active,8074,NA,NA,Disagree,1,0,1,0,NA,NA,NA,NA,1,statements,Against any type of vaccinations,1,17/06/2021 12:58,17/06/2021 13:06,IP Address,For (I feel positively about the vaccines),Rarely,Most weeks,57,Female,NA,"Undergraduate degree (BSc, BA)",control,85,2,For,Against
19,1659954282321,08/08/2022 10:24:42,1659954281816,1,08/08/2022 11:24:41,94118,2,task-xidh,NA,23521842,6893524,NA,complete,NA,62f0e3bc073e25d93a972dad,mobile,Apple iPhone,iOS 15.6,Mobile Safari 15.6,428x926,832x345,NA,ITT Ratings,2,against,9,NA,NA,NA,NA,NA,NA,NA,ACCEPT,NA,NA,batch9pro,batch9pro,28,17,1,Screen 1,continueButton,response_rating_scale_likert_active,3600,NA,NA,Somewhat Agree,1,0,1,0,NA,NA,NA,NA,1,statements,The time factor - trials can take up to 10 years,1,17/06/2021 12:58,17/06/2021 13:06,IP Address,For (I feel positively about the vaccines),Rarely,Most weeks,57,Female,NA,"Undergraduate degree (BSc, BA)",control,85,1,For,Against
20,1659954284368,08/08/2022 10:24:44,1659954284172,1,08/08/2022 11:24:44,94118,2,task-xidh,NA,23521842,6893524,NA,complete,NA,62f0e3bc073e25d93a972dad,mobile,Apple iPhone,iOS 15.6,Mobile Safari 15.6,428x926,832x345,NA,ITT Ratings,2,against,9,NA,NA,NA,NA,NA,NA,NA,ACCEPT,NA,NA,batch9pro,batch9pro,14,18,1,Screen 1,continueButton,response_rating_scale_likert_active,2335,NA,NA,Disagree,1,0,1,0,NA,NA,NA,NA,1,statements,It will get everyone safer,1,17/06/2021 12:57,17/06/2021 13:06,IP Address,For (I feel positively about the vaccines),Never,Rarely,28,Female,NA,"Undergraduate degree (BSc, BA)",choice,82,2,For,For
21,1659954288073,08/08/2022 10:24:48,1659954287541,1,08/08/2022 11:24:47,94118,2,task-xidh,NA,23521842,6893524,NA,complete,NA,62f0e3bc073e25d93a972dad,mobile,Apple iPhone,iOS 15.6,Mobile Safari 15.6,428x926,832x345,NA,ITT Ratings,2,against,9,NA,NA,NA,NA,NA,NA,NA,ACCEPT,NA,NA,batch9pro,batch9pro,63,19,1,Screen 1,continueButton,response_rating_scale_likert_active,3351,NA,NA,Neither Agree nor Disagree,1,0,1,0,NA,NA,NA,NA,1,statements,I want to help with group immunity for those who are unable to have vaccines,1,17/06/2021 12:53,17/06/2021 13:08,IP Address,For (I feel positively about the vaccines),Most weeks,Most months,25,Female,NA,"Undergraduate degree (BSc, BA)",control,90,3,For,For
22,1659954291434,08/08/2022 10:24:51,1659954290939,1,08/08/2022 11:24:50,94118,2,task-xidh,NA,23521842,6893524,NA,complete,NA,62f0e3bc073e25d93a972dad,mobile,Apple iPhone,iOS 15.6,Mobile Safari 15.6,428x926,832x345,NA,ITT Ratings,2,against,9,NA,NA,NA,NA,NA,NA,NA,ACCEPT,NA,NA,batch9pro,batch9pro,30,20,1,Screen 1,continueButton,response_rating_scale_likert_active,3377,NA,NA,Somewhat Agree,1,0,1,0,NA,NA,NA,NA,1,statements,Possible side effects,1,17/06/2021 12:58,17/06/2021 13:06,IP Address,For (I feel positively about the vaccines),Rarely,Most weeks,57,Female,NA,"Undergraduate degree (BSc, BA)",control,85,3,For,Against
23,1659954294864,08/08/2022 10:24:54,1659954294434,1,08/08/2022 11:24:54,94118,2,task-xidh,NA,23521842,6893524,NA,complete,NA,62f0e3bc073e25d93a972dad,mobile,Apple iPhone,iOS 15.6,Mobile Safari 15.6,428x926,832x345,NA,ITT Ratings,2,against,9,NA,NA,NA,NA,NA,NA,NA,ACCEPT,NA,NA,batch9pro,batch9pro,24,21,1,Screen 1,continueButton,response_rating_scale_likert_active,3473,NA,NA,Agree,1,0,1,0,NA,NA,NA,NA,1,statements,my body my choice sort of argument,1,17/06/2021 12:58,17/06/2021 13:06,IP Address,For (I feel positively about the vaccines),Rarely,Rarely,19,Male,NA,A levels,choice,84,3,For,Against
24,1659954297807,08/08/2022 10:24:57,1659954297350,1,08/08/2022 11:24:57,94118,2,task-xidh,NA,23521842,6893524,NA,complete,NA,62f0e3bc073e25d93a972dad,mobile,Apple iPhone,iOS 15.6,Mobile Safari 15.6,428x926,832x345,NA,ITT Ratings,2,against,9,NA,NA,NA,NA,NA,NA,NA,ACCEPT,NA,NA,batch9pro,batch9pro,37,22,1,Screen 1,continueButton,response_rating_scale_likert_active,2894,NA,NA,Somewhat Disagree,1,0,1,0,NA,NA,NA,NA,1,statements,its a start to ending covid,1,17/06/2021 12:55,17/06/2021 13:06,IP Address,For (I feel positively about the vaccines),Rarely,Most days,19,Female,NA,A levels,control,86,1,For,For
