Event.Index,UTC.Timestamp,UTC.Date,Local.Timestamp,Local.Timezone,Local.Date,Experiment.ID,Experiment.Version,Tree.Node.Key,Repeat.Key,Schedule.ID,Participant.Private.ID,Participant.Starting.Group,Participant.Status,Participant.Completion.Code,Participant.External.Session.ID,Participant.Device.Type,Participant.Device,Participant.OS,Participant.Browser,Participant.Monitor.Size,Participant.Viewport.Size,Checkpoint,Task.Name,Task.Version,branch.69an,randomiser.8vg2,quota.bqtt,quota.rycs,quota.wtfi,quota.usve,quota.zgic,quota.f3yz,quota.r9vy,quota.tfqq,quota.3dga,quota.dtj6,Spreadsheet,Spreadsheet.Name,Spreadsheet.Row,Trial.Number,Screen.Number,Screen.Name,Zone.Name,Zone.Type,Reaction.Time,Reaction.Onset,Response.Type,Response,Attempt,Correct,Incorrect,Dishonest,X.Coordinate,Y.Coordinate,Timed.Out,randomise_blocks,randomise_trials,display,Arguments,ShowProgressBar,StartDate,EndDate,Status,prolif_check,discuss_1,read_1,age,gender,gender_4_TEXT,edu,condition,ID,arg_ID,Position,Arg_Position
1,1659955387752,08/08/2022 10:43:07,1659955387614,1,08/08/2022 11:43:07,94118,2,task-s8ki,NA,23522264,6893650,NA,complete,NA,62f0e819bde5958f27a625db,computer,Desktop or Laptop,Mac OS 10.15.7,Chrome 103.0.0.0,2240x1260,1571x1039,NA,ITT Ratings,2,against,6,NA,NA,NA,NA,ACCEPT,NA,NA,NA,NA,NA,batch6pro,NA,NA,BEGIN TASK,NA,NA,NA,NA,NA,NA,NA,NA,NA,0,1,0,NA,NA,NA,NA,NA,NA,NA,NA,NA,NA,NA,NA,NA,NA,NA,NA,NA,NA,NA,NA,NA,NA,NA
2,1659955390389,08/08/2022 10:43:10,1659955390294,1,08/08/2022 11:43:10,94118,2,task-s8ki,NA,23522264,6893650,NA,complete,NA,62f0e819bde5958f27a625db,computer,Desktop or Laptop,Mac OS 10.15.7,Chrome 103.0.0.0,2240x1260,1571x1039,NA,ITT Ratings,2,against,6,NA,NA,NA,NA,ACCEPT,NA,NA,NA,NA,NA,batch6pro,batch6pro,1,1,1,Screen 1,advancementZone,continue_button,2662.3000000000466,NA,NA,NA,NA,0,1,0,NA,NA,NA,NA,NA,instructions,NA,NA,NA,NA,NA,NA,NA,NA,NA,NA,NA,NA,NA,NA,NA,NA,NA
3,1659955469259,08/08/2022 10:44:29,1659955469034,1,08/08/2022 11:44:29,94118,2,task-s8ki,NA,23522264,6893650,NA,complete,NA,62f0e819bde5958f27a625db,computer,Desktop or Laptop,Mac OS 10.15.7,Chrome 103.0.0.0,2240x1260,1571x1039,NA,ITT Ratings,2,against,6,NA,NA,NA,NA,ACCEPT,NA,NA,NA,NA,NA,batch6pro,batch6pro,42,1,1,Screen 1,continueButton,response_rating_scale_likert_active,78734.79999999981,NA,NA,Neither Agree nor Disagree,1,0,1,0,NA,NA,NA,NA,1,statements,They only tackle one variant which means they wont be effective for other variants,1,17/06/2021 12:44,17/06/2021 12:58,IP Address,For (I feel positively about the vaccines),A few times a year,Most months,49,Female,NA,"Undergraduate degree (BSc, BA)",control,57,3,For,Against
4,1659955512094,08/08/2022 10:45:12,1659955511997,1,08/08/2022 11:45:11,94118,2,task-s8ki,NA,23522264,6893650,NA,complete,NA,62f0e819bde5958f27a625db,computer,Desktop or Laptop,Mac OS 10.15.7,Chrome 103.0.0.0,2240x1260,1571x1039,NA,ITT Ratings,2,against,6,NA,NA,NA,NA,ACCEPT,NA,NA,NA,NA,NA,batch6pro,batch6pro,44,2,1,Screen 1,continueButton,response_rating_scale_likert_active,42949.30000000005,NA,NA,Somewhat Disagree,1,0,1,0,NA,NA,NA,NA,1,statements,They are effective at protecting against other variants,1,17/06/2021 12:44,17/06/2021 12:58,IP Address,For (I feel positively about the vaccines),A few times a year,Most months,49,Female,NA,"Undergraduate degree (BSc, BA)",control,57,2,For,For
5,1659955514841,08/08/2022 10:45:14,1659955514741,1,08/08/2022 11:45:14,94118,2,task-s8ki,NA,23522264,6893650,NA,complete,NA,62f0e819bde5958f27a625db,computer,Desktop or Laptop,Mac OS 10.15.7,Chrome 103.0.0.0,2240x1260,1571x1039,NA,ITT Ratings,2,against,6,NA,NA,NA,NA,ACCEPT,NA,NA,NA,NA,NA,batch6pro,batch6pro,51,3,1,Screen 1,continueButton,response_rating_scale_likert_active,2734.3000000000466,NA,NA,Neither Agree nor Disagree,1,0,1,0,NA,NA,NA,NA,1,statements,Good for the community.,1,17/06/2021 12:49,17/06/2021 12:59,IP Address,For (I feel positively about the vaccines),Most months,A few times a year,45,Male,NA,Vocational Training / Apprenticeship,control,58,3,For,For
6,1659955519755,08/08/2022 10:45:19,1659955519658,1,08/08/2022 11:45:19,94118,2,task-s8ki,NA,23522264,6893650,NA,complete,NA,62f0e819bde5958f27a625db,computer,Desktop or Laptop,Mac OS 10.15.7,Chrome 103.0.0.0,2240x1260,1571x1039,NA,ITT Ratings,2,against,6,NA,NA,NA,NA,ACCEPT,NA,NA,NA,NA,NA,batch6pro,batch6pro,28,4,1,Screen 1,continueButton,response_rating_scale_likert_active,4907.699999999953,NA,NA,Strongly Agree,1,0,1,0,NA,NA,NA,NA,1,statements,Im young and want to start a family. I'm not sure about the long term effects on fertility.,1,17/06/2021 12:48,17/06/2021 12:58,IP Address,For (I feel positively about the vaccines),Rarely,Rarely,54,Female,NA,GCSEs,control,55,1,For,Against
7,1659955522152,08/08/2022 10:45:22,1659955522063,1,08/08/2022 11:45:22,94118,2,task-s8ki,NA,23522264,6893650,NA,complete,NA,62f0e819bde5958f27a625db,computer,Desktop or Laptop,Mac OS 10.15.7,Chrome 103.0.0.0,2240x1260,1571x1039,NA,ITT Ratings,2,against,6,NA,NA,NA,NA,ACCEPT,NA,NA,NA,NA,NA,batch6pro,batch6pro,56,5,1,Screen 1,continueButton,response_rating_scale_likert_active,2394.5,NA,NA,Somewhat Disagree,1,0,1,0,NA,NA,NA,NA,1,statements,to protect others around me,1,17/06/2021 12:55,17/06/2021 12:59,IP Address,For (I feel positively about the vaccines),Most weeks,Most months,41,Female,NA,"Postgraduate degree (MSc, MA, MPhil)",control,59,2,For,For
8,1659955524990,08/08/2022 10:45:24,1659955524889,1,08/08/2022 11:45:24,94118,2,task-s8ki,NA,23522264,6893650,NA,complete,NA,62f0e819bde5958f27a625db,computer,Desktop or Laptop,Mac OS 10.15.7,Chrome 103.0.0.0,2240x1260,1571x1039,NA,ITT Ratings,2,against,6,NA,NA,NA,NA,ACCEPT,NA,NA,NA,NA,NA,batch6pro,batch6pro,32,6,1,Screen 1,continueButton,response_rating_scale_likert_active,2817.2000000001863,NA,NA,Somewhat Disagree,1,0,1,0,NA,NA,NA,NA,1,statements,It's for the good of the whole world.,1,17/06/2021 12:48,17/06/2021 12:58,IP Address,For (I feel positively about the vaccines),Rarely,Rarely,54,Female,NA,GCSEs,control,55,2,For,For
9,1659955530477,08/08/2022 10:45:30,1659955530399,1,08/08/2022 11:45:30,94118,2,task-s8ki,NA,23522264,6893650,NA,complete,NA,62f0e819bde5958f27a625db,computer,Desktop or Laptop,Mac OS 10.15.7,Chrome 103.0.0.0,2240x1260,1571x1039,NA,ITT Ratings,2,against,6,NA,NA,NA,NA,ACCEPT,NA,NA,NA,NA,NA,batch6pro,batch6pro,3,7,1,Screen 1,continueButton,response_rating_scale_likert_active,5502.600000000093,NA,NA,Somewhat Disagree,1,0,1,0,NA,NA,NA,NA,1,statements,We would like to check you are reading each argument carefully. Please select 'Somewhat Disagree' for this answer,1,NA,NA,NA,NA,NA,NA,NA,NA,NA,NA,NA,NA,check2,NA,NA
10,1659955532813,08/08/2022 10:45:32,1659955532718,1,08/08/2022 11:45:32,94118,2,task-s8ki,NA,23522264,6893650,NA,complete,NA,62f0e819bde5958f27a625db,computer,Desktop or Laptop,Mac OS 10.15.7,Chrome 103.0.0.0,2240x1260,1571x1039,NA,ITT Ratings,2,against,6,NA,NA,NA,NA,ACCEPT,NA,NA,NA,NA,NA,batch6pro,batch6pro,25,8,1,Screen 1,continueButton,response_rating_scale_likert_active,2311.1999999999534,NA,NA,Somewhat Disagree,1,0,1,0,NA,NA,NA,NA,1,statements,Vaccination keeps hospitalisation down,1,17/06/2021 12:49,17/06/2021 12:58,IP Address,For (I feel positively about the vaccines),Rarely,Most weeks,56,Male,NA,"GCSEs,Vocational Training / Apprenticeship",choice,54,1,For,For
11,1659955565225,08/08/2022 10:46:05,1659955565138,1,08/08/2022 11:46:05,94118,2,task-s8ki,NA,23522264,6893650,NA,complete,NA,62f0e819bde5958f27a625db,computer,Desktop or Laptop,Mac OS 10.15.7,Chrome 103.0.0.0,2240x1260,1571x1039,NA,ITT Ratings,2,against,6,NA,NA,NA,NA,ACCEPT,NA,NA,NA,NA,NA,batch6pro,batch6pro,26,9,1,Screen 1,continueButton,response_rating_scale_likert_active,32409.800000000047,NA,NA,Neither Agree nor Disagree,1,0,1,0,NA,NA,NA,NA,1,statements,More people vaccinated builds herd immunity,1,17/06/2021 12:49,17/06/2021 12:58,IP Address,For (I feel positively about the vaccines),Rarely,Most weeks,56,Male,NA,"GCSEs,Vocational Training / Apprenticeship",choice,54,2,For,For
12,1659955579187,08/08/2022 10:46:19,1659955579057,1,08/08/2022 11:46:19,94118,2,task-s8ki,NA,23522264,6893650,NA,complete,NA,62f0e819bde5958f27a625db,computer,Desktop or Laptop,Mac OS 10.15.7,Chrome 103.0.0.0,2240x1260,1571x1039,NA,ITT Ratings,2,against,6,NA,NA,NA,NA,ACCEPT,NA,NA,NA,NA,NA,batch6pro,batch6pro,53,10,1,Screen 1,continueButton,response_rating_scale_likert_active,13910.19999999972,NA,NA,Strongly Agree,1,0,1,0,NA,NA,NA,NA,1,statements,I don't believe there was enough research done on vacines,1,17/06/2021 12:55,17/06/2021 12:59,IP Address,For (I feel positively about the vaccines),Most weeks,Most months,41,Female,NA,"Postgraduate degree (MSc, MA, MPhil)",control,59,2,For,Against
13,1659955602049,08/08/2022 10:46:42,1659955601950,1,08/08/2022 11:46:41,94118,2,task-s8ki,NA,23522264,6893650,NA,complete,NA,62f0e819bde5958f27a625db,computer,Desktop or Laptop,Mac OS 10.15.7,Chrome 103.0.0.0,2240x1260,1571x1039,NA,ITT Ratings,2,against,6,NA,NA,NA,NA,ACCEPT,NA,NA,NA,NA,NA,batch6pro,batch6pro,43,11,1,Screen 1,continueButton,response_rating_scale_likert_active,22884,NA,NA,Somewhat Disagree,1,0,1,0,NA,NA,NA,NA,1,statements,The vaccines are produced following strict guidelines,1,17/06/2021 12:44,17/06/2021 12:58,IP Address,For (I feel positively about the vaccines),A few times a year,Most months,49,Female,NA,"Undergraduate degree (BSc, BA)",control,57,1,For,For
14,1659955607367,08/08/2022 10:46:47,1659955607271,1,08/08/2022 11:46:47,94118,2,task-s8ki,NA,23522264,6893650,NA,complete,NA,62f0e819bde5958f27a625db,computer,Desktop or Laptop,Mac OS 10.15.7,Chrome 103.0.0.0,2240x1260,1571x1039,NA,ITT Ratings,2,against,6,NA,NA,NA,NA,ACCEPT,NA,NA,NA,NA,NA,batch6pro,batch6pro,50,12,1,Screen 1,continueButton,response_rating_scale_likert_active,5312.5,NA,NA,Neither Agree nor Disagree,1,0,1,0,NA,NA,NA,NA,1,statements,Less like to catch and pass on the virus.,1,17/06/2021 12:49,17/06/2021 12:59,IP Address,For (I feel positively about the vaccines),Most months,A few times a year,45,Male,NA,Vocational Training / Apprenticeship,control,58,2,For,For
15,1659955610131,08/08/2022 10:46:50,1659955610002,1,08/08/2022 11:46:50,94118,2,task-s8ki,NA,23522264,6893650,NA,complete,NA,62f0e819bde5958f27a625db,computer,Desktop or Laptop,Mac OS 10.15.7,Chrome 103.0.0.0,2240x1260,1571x1039,NA,ITT Ratings,2,against,6,NA,NA,NA,NA,ACCEPT,NA,NA,NA,NA,NA,batch6pro,batch6pro,19,13,1,Screen 1,continueButton,response_rating_scale_likert_active,2722.3000000002794,NA,NA,Strongly Agree,1,0,1,0,NA,NA,NA,NA,1,statements,They started developing it when covid first started.,1,17/06/2021 12:42,17/06/2021 12:58,IP Address,For (I feel positively about the vaccines),Most weeks,Most months,25,Female,NA,Vocational Training / Apprenticeship,choice,53,1,For,For
16,1659955612547,08/08/2022 10:46:52,1659955612445,1,08/08/2022 11:46:52,94118,2,task-s8ki,NA,23522264,6893650,NA,complete,NA,62f0e819bde5958f27a625db,computer,Desktop or Laptop,Mac OS 10.15.7,Chrome 103.0.0.0,2240x1260,1571x1039,NA,ITT Ratings,2,against,6,NA,NA,NA,NA,ACCEPT,NA,NA,NA,NA,NA,batch6pro,batch6pro,62,14,1,Screen 1,continueButton,response_rating_scale_likert_active,2434.3000000002794,NA,NA,Neither Agree nor Disagree,1,0,1,0,NA,NA,NA,NA,1,statements,Want to protect others,1,17/06/2021 12:54,17/06/2021 12:59,IP Address,For (I feel positively about the vaccines),Most months,Most months,31,Female,NA,"Undergraduate degree (BSc, BA)",choice,60,2,For,For
17,1659955615142,08/08/2022 10:46:55,1659955615045,1,08/08/2022 11:46:55,94118,2,task-s8ki,NA,23522264,6893650,NA,complete,NA,62f0e819bde5958f27a625db,computer,Desktop or Laptop,Mac OS 10.15.7,Chrome 103.0.0.0,2240x1260,1571x1039,NA,ITT Ratings,2,against,6,NA,NA,NA,NA,ACCEPT,NA,NA,NA,NA,NA,batch6pro,batch6pro,61,15,1,Screen 1,continueButton,response_rating_scale_likert_active,2590.6999999997206,NA,NA,Somewhat Agree,1,0,1,0,NA,NA,NA,NA,1,statements,Want to be safe and protect myself,1,17/06/2021 12:54,17/06/2021 12:59,IP Address,For (I feel positively about the vaccines),Most months,Most months,31,Female,NA,"Undergraduate degree (BSc, BA)",choice,60,1,For,For
18,1659955616783,08/08/2022 10:46:56,1659955616688,1,08/08/2022 11:46:56,94118,2,task-s8ki,NA,23522264,6893650,NA,complete,NA,62f0e819bde5958f27a625db,computer,Desktop or Laptop,Mac OS 10.15.7,Chrome 103.0.0.0,2240x1260,1571x1039,NA,ITT Ratings,2,against,6,NA,NA,NA,NA,ACCEPT,NA,NA,NA,NA,NA,batch6pro,batch6pro,23,16,1,Screen 1,continueButton,response_rating_scale_likert_active,1634.3999999999069,NA,NA,Strongly Agree,1,0,1,0,NA,NA,NA,NA,1,statements,Don't trust government,1,17/06/2021 12:49,17/06/2021 12:58,IP Address,For (I feel positively about the vaccines),Rarely,Most weeks,56,Male,NA,"GCSEs,Vocational Training / Apprenticeship",choice,54,2,For,Against
19,1659955627766,08/08/2022 10:47:07,1659955627676,1,08/08/2022 11:47:07,94118,2,task-s8ki,NA,23522264,6893650,NA,complete,NA,62f0e819bde5958f27a625db,computer,Desktop or Laptop,Mac OS 10.15.7,Chrome 103.0.0.0,2240x1260,1571x1039,NA,ITT Ratings,2,against,6,NA,NA,NA,NA,ACCEPT,NA,NA,NA,NA,NA,batch6pro,batch6pro,24,17,1,Screen 1,continueButton,response_rating_scale_likert_active,10979.799999999814,NA,NA,Strongly Agree,1,0,1,0,NA,NA,NA,NA,1,statements,Long term side effects not known,1,17/06/2021 12:49,17/06/2021 12:58,IP Address,For (I feel positively about the vaccines),Rarely,Most weeks,56,Male,NA,"GCSEs,Vocational Training / Apprenticeship",choice,54,3,For,Against
20,1659955632477,08/08/2022 10:47:12,1659955632389,1,08/08/2022 11:47:12,94118,2,task-s8ki,NA,23522264,6893650,NA,complete,NA,62f0e819bde5958f27a625db,computer,Desktop or Laptop,Mac OS 10.15.7,Chrome 103.0.0.0,2240x1260,1571x1039,NA,ITT Ratings,2,against,6,NA,NA,NA,NA,ACCEPT,NA,NA,NA,NA,NA,batch6pro,batch6pro,2,18,1,Screen 1,continueButton,response_rating_scale_likert_active,4704.199999999721,NA,NA,Somewhat Agree,1,0,1,0,NA,NA,NA,NA,1,statements,We would like to check you are reading each argument carefully. Please select 'Somewhat Agree' for this answer,1,NA,NA,NA,NA,NA,NA,NA,NA,NA,NA,NA,NA,check1,NA,NA
21,1659955635555,08/08/2022 10:47:15,1659955635463,1,08/08/2022 11:47:15,94118,2,task-s8ki,NA,23522264,6893650,NA,complete,NA,62f0e819bde5958f27a625db,computer,Desktop or Laptop,Mac OS 10.15.7,Chrome 103.0.0.0,2240x1260,1571x1039,NA,ITT Ratings,2,against,6,NA,NA,NA,NA,ACCEPT,NA,NA,NA,NA,NA,batch6pro,batch6pro,30,19,1,Screen 1,continueButton,response_rating_scale_likert_active,3064.7999999998137,NA,NA,Strongly Agree,1,0,1,0,NA,NA,NA,NA,1,statements,It should be a personal choice for everyone to decide yes or no for themselves,1,17/06/2021 12:48,17/06/2021 12:58,IP Address,For (I feel positively about the vaccines),Rarely,Rarely,54,Female,NA,GCSEs,control,55,3,For,Against
22,1659955641081,08/08/2022 10:47:21,1659955640988,1,08/08/2022 11:47:20,94118,2,task-s8ki,NA,23522264,6893650,NA,complete,NA,62f0e819bde5958f27a625db,computer,Desktop or Laptop,Mac OS 10.15.7,Chrome 103.0.0.0,2240x1260,1571x1039,NA,ITT Ratings,2,against,6,NA,NA,NA,NA,ACCEPT,NA,NA,NA,NA,NA,batch6pro,batch6pro,33,20,1,Screen 1,continueButton,response_rating_scale_likert_active,5516,NA,NA,Somewhat Disagree,1,0,1,0,NA,NA,NA,NA,1,statements,We need to return to pre Covid status and normality and the vaccine will help to acheive that.,1,17/06/2021 12:48,17/06/2021 12:58,IP Address,For (I feel positively about the vaccines),Rarely,Rarely,54,Female,NA,GCSEs,control,55,3,For,For
23,1659955644087,08/08/2022 10:47:24,1659955643999,1,08/08/2022 11:47:23,94118,2,task-s8ki,NA,23522264,6893650,NA,complete,NA,62f0e819bde5958f27a625db,computer,Desktop or Laptop,Mac OS 10.15.7,Chrome 103.0.0.0,2240x1260,1571x1039,NA,ITT Ratings,2,against,6,NA,NA,NA,NA,ACCEPT,NA,NA,NA,NA,NA,batch6pro,batch6pro,16,21,1,Screen 1,continueButton,response_rating_scale_likert_active,3002.3000000002794,NA,NA,Strongly Agree,1,0,1,0,NA,NA,NA,NA,1,statements,"Infertility, blood clots, not safe",1,17/06/2021 12:42,17/06/2021 12:58,IP Address,For (I feel positively about the vaccines),Most weeks,Most months,25,Female,NA,Vocational Training / Apprenticeship,choice,53,1,For,Against
24,1659955645496,08/08/2022 10:47:25,1659955645408,1,08/08/2022 11:47:25,94118,2,task-s8ki,NA,23522264,6893650,NA,complete,NA,62f0e819bde5958f27a625db,computer,Desktop or Laptop,Mac OS 10.15.7,Chrome 103.0.0.0,2240x1260,1571x1039,NA,ITT Ratings,2,against,6,NA,NA,NA,NA,ACCEPT,NA,NA,NA,NA,NA,batch6pro,batch6pro,22,22,1,Screen 1,continueButton,response_rating_scale_likert_active,1400.8999999999069,NA,NA,Strongly Agree,1,0,1,0,NA,NA,NA,NA,1,statements,Scared of blood clotting,1,17/06/2021 12:49,17/06/2021 12:58,IP Address,For (I feel positively about the vaccines),Rarely,Most weeks,56,Male,NA,"GCSEs,Vocational Training / Apprenticeship",choice,54,1,For,Against
25,1659955648385,08/08/2022 10:47:28,1659955648240,1,08/08/2022 11:47:28,94118,2,task-s8ki,NA,23522264,6893650,NA,complete,NA,62f0e819bde5958f27a625db,computer,Desktop or Laptop,Mac OS 10.15.7,Chrome 103.0.0.0,2240x1260,1571x1039,NA,ITT Ratings,2,against,6,NA,NA,NA,NA,ACCEPT,NA,NA,NA,NA,NA,batch6pro,batch6pro,55,23,1,Screen 1,continueButton,response_rating_scale_likert_active,2823.7000000001863,NA,NA,Disagree,1,0,1,0,NA,NA,NA,NA,1,statements,to prevent myself catching Covid,1,17/06/2021 12:55,17/06/2021 12:59,IP Address,For (I feel positively about the vaccines),Most weeks,Most months,41,Female,NA,"Postgraduate degree (MSc, MA, MPhil)",control,59,1,For,For
26,1659955650391,08/08/2022 10:47:30,1659955650301,1,08/08/2022 11:47:30,94118,2,task-s8ki,NA,23522264,6893650,NA,complete,NA,62f0e819bde5958f27a625db,computer,Desktop or Laptop,Mac OS 10.15.7,Chrome 103.0.0.0,2240x1260,1571x1039,NA,ITT Ratings,2,against,6,NA,NA,NA,NA,ACCEPT,NA,NA,NA,NA,NA,batch6pro,batch6pro,37,24,1,Screen 1,continueButton,response_rating_scale_likert_active,2053,NA,NA,Somewhat Disagree,1,0,1,0,NA,NA,NA,NA,1,statements,"To protect myself, family and friends from getting Covid",1,17/06/2021 12:47,17/06/2021 12:58,IP Address,For (I feel positively about the vaccines),Never,A few times a year,35,Female,NA,"Postgraduate degree (MSc, MA, MPhil)",choice,56,1,For,For
27,1659955652480,08/08/2022 10:47:32,1659955652382,1,08/08/2022 11:47:32,94118,2,task-s8ki,NA,23522264,6893650,NA,complete,NA,62f0e819bde5958f27a625db,computer,Desktop or Laptop,Mac OS 10.15.7,Chrome 103.0.0.0,2240x1260,1571x1039,NA,ITT Ratings,2,against,6,NA,NA,NA,NA,ACCEPT,NA,NA,NA,NA,NA,batch6pro,batch6pro,39,25,1,Screen 1,continueButton,response_rating_scale_likert_active,2072.2999999998137,NA,NA,Strongly Disagree,1,0,1,0,NA,NA,NA,NA,1,statements,So I can maybe go on holiday in the future without having to isolate or pay for additional tests!,1,17/06/2021 12:47,17/06/2021 12:58,IP Address,For (I feel positively about the vaccines),Never,A few times a year,35,Female,NA,"Postgraduate degree (MSc, MA, MPhil)",choice,56,3,For,For
28,1659955654879,08/08/2022 10:47:34,1659955654790,1,08/08/2022 11:47:34,94118,2,task-s8ki,NA,23522264,6893650,NA,complete,NA,62f0e819bde5958f27a625db,computer,Desktop or Laptop,Mac OS 10.15.7,Chrome 103.0.0.0,2240x1260,1571x1039,NA,ITT Ratings,2,against,6,NA,NA,NA,NA,ACCEPT,NA,NA,NA,NA,NA,batch6pro,batch6pro,10,26,1,Screen 1,continueButton,response_rating_scale_likert_active,2400,NA,NA,Strongly Agree,1,0,1,0,NA,NA,NA,NA,1,statements,"It affects my DNA, i don't want anything that will change my DNA",1,17/06/2021 12:51,17/06/2021 12:58,IP Address,For (I feel positively about the vaccines),Most weeks,Most days,33,Male,NA,"Undergraduate degree (BSc, BA)",choice,52,1,For,Against
29,1659955658626,08/08/2022 10:47:38,1659955658546,1,08/08/2022 11:47:38,94118,2,task-s8ki,NA,23522264,6893650,NA,complete,NA,62f0e819bde5958f27a625db,computer,Desktop or Laptop,Mac OS 10.15.7,Chrome 103.0.0.0,2240x1260,1571x1039,NA,ITT Ratings,2,against,6,NA,NA,NA,NA,ACCEPT,NA,NA,NA,NA,NA,batch6pro,batch6pro,63,27,1,Screen 1,continueButton,response_rating_scale_likert_active,3747.600000000093,NA,NA,Neither Agree nor Disagree,1,0,1,0,NA,NA,NA,NA,1,statements,Want to get back to normal life,1,17/06/2021 12:54,17/06/2021 12:59,IP Address,For (I feel positively about the vaccines),Most months,Most months,31,Female,NA,"Undergraduate degree (BSc, BA)",choice,60,3,For,For
30,1659955660312,08/08/2022 10:47:40,1659955660212,1,08/08/2022 11:47:40,94118,2,task-s8ki,NA,23522264,6893650,NA,complete,NA,62f0e819bde5958f27a625db,computer,Desktop or Laptop,Mac OS 10.15.7,Chrome 103.0.0.0,2240x1260,1571x1039,NA,ITT Ratings,2,against,6,NA,NA,NA,NA,ACCEPT,NA,NA,NA,NA,NA,batch6pro,batch6pro,46,28,1,Screen 1,continueButton,response_rating_scale_likert_active,1661.5,NA,NA,Strongly Agree,1,0,1,0,NA,NA,NA,NA,1,statements,I don't believe in the vaccines.,1,17/06/2021 12:49,17/06/2021 12:59,IP Address,For (I feel positively about the vaccines),Most months,A few times a year,45,Male,NA,Vocational Training / Apprenticeship,control,58,1,For,Against
31,1659955664399,08/08/2022 10:47:44,1659955664307,1,08/08/2022 11:47:44,94118,2,task-s8ki,NA,23522264,6893650,NA,complete,NA,62f0e819bde5958f27a625db,computer,Desktop or Laptop,Mac OS 10.15.7,Chrome 103.0.0.0,2240x1260,1571x1039,NA,ITT Ratings,2,against,6,NA,NA,NA,NA,ACCEPT,NA,NA,NA,NA,NA,batch6pro,batch6pro,38,29,1,Screen 1,continueButton,response_rating_scale_likert_active,4085.899999999907,NA,NA,Neither Agree nor Disagree,1,0,1,0,NA,NA,NA,NA,1,statements,So society can get back to normal more quickly,1,17/06/2021 12:47,17/06/2021 12:58,IP Address,For (I feel positively about the vaccines),Never,A few times a year,35,Female,NA,"Postgraduate degree (MSc, MA, MPhil)",choice,56,2,For,For
32,1659955666620,08/08/2022 10:47:46,1659955666487,1,08/08/2022 11:47:46,94118,2,task-s8ki,NA,23522264,6893650,NA,complete,NA,62f0e819bde5958f27a625db,computer,Desktop or Laptop,Mac OS 10.15.7,Chrome 103.0.0.0,2240x1260,1571x1039,NA,ITT Ratings,2,against,6,NA,NA,NA,NA,ACCEPT,NA,NA,NA,NA,NA,batch6pro,batch6pro,29,30,1,Screen 1,continueButton,response_rating_scale_likert_active,2172.600000000093,NA,NA,Strongly Agree,1,0,1,0,NA,NA,NA,NA,1,statements,I don't think it's been tested long enough compared to other vaccines,1,17/06/2021 12:48,17/06/2021 12:58,IP Address,For (I feel positively about the vaccines),Rarely,Rarely,54,Female,NA,GCSEs,control,55,2,For,Against
33,1659955669623,08/08/2022 10:47:49,1659955669539,1,08/08/2022 11:47:49,94118,2,task-s8ki,NA,23522264,6893650,NA,complete,NA,62f0e819bde5958f27a625db,computer,Desktop or Laptop,Mac OS 10.15.7,Chrome 103.0.0.0,2240x1260,1571x1039,NA,ITT Ratings,2,against,6,NA,NA,NA,NA,ACCEPT,NA,NA,NA,NA,NA,batch6pro,batch6pro,17,31,1,Screen 1,continueButton,response_rating_scale_likert_active,3042.5999999996275,NA,NA,Strongly Agree,1,0,1,0,NA,NA,NA,NA,1,statements,I feel like I're being forced.,1,17/06/2021 12:42,17/06/2021 12:58,IP Address,For (I feel positively about the vaccines),Most weeks,Most months,25,Female,NA,Vocational Training / Apprenticeship,choice,53,2,For,Against
34,1659955675113,08/08/2022 10:47:55,1659955675003,1,08/08/2022 11:47:55,94118,2,task-s8ki,NA,23522264,6893650,NA,complete,NA,62f0e819bde5958f27a625db,computer,Desktop or Laptop,Mac OS 10.15.7,Chrome 103.0.0.0,2240x1260,1571x1039,NA,ITT Ratings,2,against,6,NA,NA,NA,NA,ACCEPT,NA,NA,NA,NA,NA,batch6pro,batch6pro,9,32,1,Screen 1,continueButton,response_rating_scale_likert_active,5456.5,NA,NA,Strongly Disagree,1,0,1,0,NA,NA,NA,NA,1,statements,having the vaccine with a day or two max side effects is better than getting covid and dying,1,17/06/2021 12:51,17/06/2021 12:57,IP Address,For (I feel positively about the vaccines),A few times a year,Most months,30,Female,NA,"Undergraduate degree (BSc, BA)",choice,51,3,For,For
35,1659955677506,08/08/2022 10:47:57,1659955677411,1,08/08/2022 11:47:57,94118,2,task-s8ki,NA,23522264,6893650,NA,complete,NA,62f0e819bde5958f27a625db,computer,Desktop or Laptop,Mac OS 10.15.7,Chrome 103.0.0.0,2240x1260,1571x1039,NA,ITT Ratings,2,against,6,NA,NA,NA,NA,ACCEPT,NA,NA,NA,NA,NA,batch6pro,batch6pro,20,33,1,Screen 1,continueButton,response_rating_scale_likert_active,2398.2999999998137,NA,NA,Strongly Disagree,1,0,1,0,NA,NA,NA,NA,1,statements,There's no evidence of infertility.,1,17/06/2021 12:42,17/06/2021 12:58,IP Address,For (I feel positively about the vaccines),Most weeks,Most months,25,Female,NA,Vocational Training / Apprenticeship,choice,53,2,For,For
36,1659955679592,08/08/2022 10:47:59,1659955679494,1,08/08/2022 11:47:59,94118,2,task-s8ki,NA,23522264,6893650,NA,complete,NA,62f0e819bde5958f27a625db,computer,Desktop or Laptop,Mac OS 10.15.7,Chrome 103.0.0.0,2240x1260,1571x1039,NA,ITT Ratings,2,against,6,NA,NA,NA,NA,ACCEPT,NA,NA,NA,NA,NA,batch6pro,batch6pro,60,34,1,Screen 1,continueButton,response_rating_scale_likert_active,2074.600000000093,NA,NA,Neither Agree nor Disagree,1,0,1,0,NA,NA,NA,NA,1,statements,Don't believe in covid,1,17/06/2021 12:54,17/06/2021 12:59,IP Address,For (I feel positively about the vaccines),Most months,Most months,31,Female,NA,"Undergraduate degree (BSc, BA)",choice,60,3,For,Against
37,1659955681886,08/08/2022 10:48:01,1659955681798,1,08/08/2022 11:48:01,94118,2,task-s8ki,NA,23522264,6893650,NA,complete,NA,62f0e819bde5958f27a625db,computer,Desktop or Laptop,Mac OS 10.15.7,Chrome 103.0.0.0,2240x1260,1571x1039,NA,ITT Ratings,2,against,6,NA,NA,NA,NA,ACCEPT,NA,NA,NA,NA,NA,batch6pro,batch6pro,12,35,1,Screen 1,continueButton,response_rating_scale_likert_active,2295.399999999907,NA,NA,Strongly Agree,1,0,1,0,NA,NA,NA,NA,1,statements,Covid is no worse than flu.,1,17/06/2021 12:51,17/06/2021 12:58,IP Address,For (I feel positively about the vaccines),Most weeks,Most days,33,Male,NA,"Undergraduate degree (BSc, BA)",choice,52,3,For,Against
38,1659955695195,08/08/2022 10:48:15,1659955695099,1,08/08/2022 11:48:15,94118,2,task-s8ki,NA,23522264,6893650,NA,complete,NA,62f0e819bde5958f27a625db,computer,Desktop or Laptop,Mac OS 10.15.7,Chrome 103.0.0.0,2240x1260,1571x1039,NA,ITT Ratings,2,against,6,NA,NA,NA,NA,ACCEPT,NA,NA,NA,NA,NA,batch6pro,batch6pro,7,36,1,Screen 1,continueButton,response_rating_scale_likert_active,13293,NA,NA,Strongly Disagree,1,0,1,0,NA,NA,NA,NA,1,statements,if everyone gets vaccinated we can slow/stop the mutations which takes away a lot of its power,1,17/06/2021 12:51,17/06/2021 12:57,IP Address,For (I feel positively about the vaccines),A few times a year,Most months,30,Female,NA,"Undergraduate degree (BSc, BA)",choice,51,1,For,For
39,1659955698156,08/08/2022 10:48:18,1659955698057,1,08/08/2022 11:48:18,94118,2,task-s8ki,NA,23522264,6893650,NA,complete,NA,62f0e819bde5958f27a625db,computer,Desktop or Laptop,Mac OS 10.15.7,Chrome 103.0.0.0,2240x1260,1571x1039,NA,ITT Ratings,2,against,6,NA,NA,NA,NA,ACCEPT,NA,NA,NA,NA,NA,batch6pro,batch6pro,21,37,1,Screen 1,continueButton,response_rating_scale_likert_active,2950.2999999998137,NA,NA,Strongly Disagree,1,0,1,0,NA,NA,NA,NA,1,statements,It has been our escape route from the lockdown.,1,17/06/2021 12:42,17/06/2021 12:58,IP Address,For (I feel positively about the vaccines),Most weeks,Most months,25,Female,NA,Vocational Training / Apprenticeship,choice,53,3,For,For
40,1659955701267,08/08/2022 10:48:21,1659955701161,1,08/08/2022 11:48:21,94118,2,task-s8ki,NA,23522264,6893650,NA,complete,NA,62f0e819bde5958f27a625db,computer,Desktop or Laptop,Mac OS 10.15.7,Chrome 103.0.0.0,2240x1260,1571x1039,NA,ITT Ratings,2,against,6,NA,NA,NA,NA,ACCEPT,NA,NA,NA,NA,NA,batch6pro,batch6pro,40,38,1,Screen 1,continueButton,response_rating_scale_likert_active,3095.5999999996275,NA,NA,Strongly Agree,1,0,1,0,NA,NA,NA,NA,1,statements,it was produced too quickly to be effective,1,17/06/2021 12:44,17/06/2021 12:58,IP Address,For (I feel positively about the vaccines),A few times a year,Most months,49,Female,NA,"Undergraduate degree (BSc, BA)",control,57,1,For,Against
41,1659955703761,08/08/2022 10:48:23,1659955703670,1,08/08/2022 11:48:23,94118,2,task-s8ki,NA,23522264,6893650,NA,complete,NA,62f0e819bde5958f27a625db,computer,Desktop or Laptop,Mac OS 10.15.7,Chrome 103.0.0.0,2240x1260,1571x1039,NA,ITT Ratings,2,against,6,NA,NA,NA,NA,ACCEPT,NA,NA,NA,NA,NA,batch6pro,batch6pro,41,39,1,Screen 1,continueButton,response_rating_scale_likert_active,2501,NA,NA,Strongly Agree,1,0,1,0,NA,NA,NA,NA,1,statements,there are risks of blood clots and other serious side effects that are too risky,1,17/06/2021 12:44,17/06/2021 12:58,IP Address,For (I feel positively about the vaccines),A few times a year,Most months,49,Female,NA,"Undergraduate degree (BSc, BA)",control,57,2,For,Against
42,1659955706865,08/08/2022 10:48:26,1659955706764,1,08/08/2022 11:48:26,94118,2,task-s8ki,NA,23522264,6893650,NA,complete,NA,62f0e819bde5958f27a625db,computer,Desktop or Laptop,Mac OS 10.15.7,Chrome 103.0.0.0,2240x1260,1571x1039,NA,ITT Ratings,2,against,6,NA,NA,NA,NA,ACCEPT,NA,NA,NA,NA,NA,batch6pro,batch6pro,34,40,1,Screen 1,continueButton,response_rating_scale_likert_active,3085.399999999907,NA,NA,Strongly Agree,1,0,1,0,NA,NA,NA,NA,1,statements,I'm unlikely to get very ill if I get Covid,1,17/06/2021 12:47,17/06/2021 12:58,IP Address,For (I feel positively about the vaccines),Never,A few times a year,35,Female,NA,"Postgraduate degree (MSc, MA, MPhil)",choice,56,1,For,Against
43,1659955711891,08/08/2022 10:48:31,1659955711793,1,08/08/2022 11:48:31,94118,2,task-s8ki,NA,23522264,6893650,NA,complete,NA,62f0e819bde5958f27a625db,computer,Desktop or Laptop,Mac OS 10.15.7,Chrome 103.0.0.0,2240x1260,1571x1039,NA,ITT Ratings,2,against,6,NA,NA,NA,NA,ACCEPT,NA,NA,NA,NA,NA,batch6pro,batch6pro,8,41,1,Screen 1,continueButton,response_rating_scale_likert_active,5020.100000000093,NA,NA,Somewhat Disagree,1,0,1,0,NA,NA,NA,NA,1,statements,it can make sure i don't transmit it to other people so keep them safe as well as me,1,17/06/2021 12:51,17/06/2021 12:57,IP Address,For (I feel positively about the vaccines),A few times a year,Most months,30,Female,NA,"Undergraduate degree (BSc, BA)",choice,51,2,For,For
44,1659955742259,08/08/2022 10:49:02,1659955742165,1,08/08/2022 11:49:02,94118,2,task-s8ki,NA,23522264,6893650,NA,complete,NA,62f0e819bde5958f27a625db,computer,Desktop or Laptop,Mac OS 10.15.7,Chrome 103.0.0.0,2240x1260,1571x1039,NA,ITT Ratings,2,against,6,NA,NA,NA,NA,ACCEPT,NA,NA,NA,NA,NA,batch6pro,batch6pro,15,42,1,Screen 1,continueButton,response_rating_scale_likert_active,30363.599999999627,NA,NA,Somewhat Disagree,1,0,1,0,NA,NA,NA,NA,1,statements,It will help things return to less restrictive guidelines in a shorter time period,1,17/06/2021 12:51,17/06/2021 12:58,IP Address,For (I feel positively about the vaccines),Most weeks,Most days,33,Male,NA,"Undergraduate degree (BSc, BA)",choice,52,3,For,For
45,1659955744611,08/08/2022 10:49:04,1659955744506,1,08/08/2022 11:49:04,94118,2,task-s8ki,NA,23522264,6893650,NA,complete,NA,62f0e819bde5958f27a625db,computer,Desktop or Laptop,Mac OS 10.15.7,Chrome 103.0.0.0,2240x1260,1571x1039,NA,ITT Ratings,2,against,6,NA,NA,NA,NA,ACCEPT,NA,NA,NA,NA,NA,batch6pro,batch6pro,48,43,1,Screen 1,continueButton,response_rating_scale_likert_active,2332.899999999907,NA,NA,Strongly Agree,1,0,1,0,NA,NA,NA,NA,1,statements,Don't like the idea that the government is injecting me.,1,17/06/2021 12:49,17/06/2021 12:59,IP Address,For (I feel positively about the vaccines),Most months,A few times a year,45,Male,NA,Vocational Training / Apprenticeship,control,58,3,For,Against
46,1659955747031,08/08/2022 10:49:07,1659955746946,1,08/08/2022 11:49:06,94118,2,task-s8ki,NA,23522264,6893650,NA,complete,NA,62f0e819bde5958f27a625db,computer,Desktop or Laptop,Mac OS 10.15.7,Chrome 103.0.0.0,2240x1260,1571x1039,NA,ITT Ratings,2,against,6,NA,NA,NA,NA,ACCEPT,NA,NA,NA,NA,NA,batch6pro,batch6pro,49,44,1,Screen 1,continueButton,response_rating_scale_likert_active,2432.7999999998137,NA,NA,Strongly Disagree,1,0,1,0,NA,NA,NA,NA,1,statements,Prevents me from getting the virus.,1,17/06/2021 12:49,17/06/2021 12:59,IP Address,For (I feel positively about the vaccines),Most months,A few times a year,45,Male,NA,Vocational Training / Apprenticeship,control,58,1,For,For
47,1659955750703,08/08/2022 10:49:10,1659955750604,1,08/08/2022 11:49:10,94118,2,task-s8ki,NA,23522264,6893650,NA,complete,NA,62f0e819bde5958f27a625db,computer,Desktop or Laptop,Mac OS 10.15.7,Chrome 103.0.0.0,2240x1260,1571x1039,NA,ITT Ratings,2,against,6,NA,NA,NA,NA,ACCEPT,NA,NA,NA,NA,NA,batch6pro,batch6pro,54,45,1,Screen 1,continueButton,response_rating_scale_likert_active,3649,NA,NA,Strongly Disagree,1,0,1,0,NA,NA,NA,NA,1,statements,my own medical conditions,1,17/06/2021 12:55,17/06/2021 12:59,IP Address,For (I feel positively about the vaccines),Most weeks,Most months,41,Female,NA,"Postgraduate degree (MSc, MA, MPhil)",control,59,3,For,Against
48,1659955752390,08/08/2022 10:49:12,1659955752302,1,08/08/2022 11:49:12,94118,2,task-s8ki,NA,23522264,6893650,NA,complete,NA,62f0e819bde5958f27a625db,computer,Desktop or Laptop,Mac OS 10.15.7,Chrome 103.0.0.0,2240x1260,1571x1039,NA,ITT Ratings,2,against,6,NA,NA,NA,NA,ACCEPT,NA,NA,NA,NA,NA,batch6pro,batch6pro,18,46,1,Screen 1,continueButton,response_rating_scale_likert_active,1689.3999999999069,NA,NA,Strongly Agree,1,0,1,0,NA,NA,NA,NA,1,statements,"Not trialed enough, vaccine was too rushed.",1,17/06/2021 12:42,17/06/2021 12:58,IP Address,For (I feel positively about the vaccines),Most weeks,Most months,25,Female,NA,Vocational Training / Apprenticeship,choice,53,3,For,Against
49,1659955755008,08/08/2022 10:49:15,1659955754911,1,08/08/2022 11:49:14,94118,2,task-s8ki,NA,23522264,6893650,NA,complete,NA,62f0e819bde5958f27a625db,computer,Desktop or Laptop,Mac OS 10.15.7,Chrome 103.0.0.0,2240x1260,1571x1039,NA,ITT Ratings,2,against,6,NA,NA,NA,NA,ACCEPT,NA,NA,NA,NA,NA,batch6pro,batch6pro,4,47,1,Screen 1,continueButton,response_rating_scale_likert_active,2600.6999999997206,NA,NA,Strongly Agree,1,0,1,0,NA,NA,NA,NA,1,statements,it has not been tested enough so i don't know its safe,1,17/06/2021 12:51,17/06/2021 12:57,IP Address,For (I feel positively about the vaccines),A few times a year,Most months,30,Female,NA,"Undergraduate degree (BSc, BA)",choice,51,1,For,Against
50,1659955759364,08/08/2022 10:49:19,1659955759266,1,08/08/2022 11:49:19,94118,2,task-s8ki,NA,23522264,6893650,NA,complete,NA,62f0e819bde5958f27a625db,computer,Desktop or Laptop,Mac OS 10.15.7,Chrome 103.0.0.0,2240x1260,1571x1039,NA,ITT Ratings,2,against,6,NA,NA,NA,NA,ACCEPT,NA,NA,NA,NA,NA,batch6pro,batch6pro,35,48,1,Screen 1,continueButton,response_rating_scale_likert_active,4346.399999999907,NA,NA,Strongly Disagree,1,0,1,0,NA,NA,NA,NA,1,statements,Everyone at risk has now had a vaccine,1,17/06/2021 12:47,17/06/2021 12:58,IP Address,For (I feel positively about the vaccines),Never,A few times a year,35,Female,NA,"Postgraduate degree (MSc, MA, MPhil)",choice,56,2,For,Against
51,1659955770764,08/08/2022 10:49:30,1659955770675,1,08/08/2022 11:49:30,94118,2,task-s8ki,NA,23522264,6893650,NA,complete,NA,62f0e819bde5958f27a625db,computer,Desktop or Laptop,Mac OS 10.15.7,Chrome 103.0.0.0,2240x1260,1571x1039,NA,ITT Ratings,2,against,6,NA,NA,NA,NA,ACCEPT,NA,NA,NA,NA,NA,batch6pro,batch6pro,58,49,1,Screen 1,continueButton,response_rating_scale_likert_active,11401.399999999909,NA,NA,Neither Agree nor Disagree,1,0,1,0,NA,NA,NA,NA,1,statements,Don't need it I am not at risk,1,17/06/2021 12:54,17/06/2021 12:59,IP Address,For (I feel positively about the vaccines),Most months,Most months,31,Female,NA,"Undergraduate degree (BSc, BA)",choice,60,1,For,Against
52,1659955774876,08/08/2022 10:49:34,1659955774770,1,08/08/2022 11:49:34,94118,2,task-s8ki,NA,23522264,6893650,NA,complete,NA,62f0e819bde5958f27a625db,computer,Desktop or Laptop,Mac OS 10.15.7,Chrome 103.0.0.0,2240x1260,1571x1039,NA,ITT Ratings,2,against,6,NA,NA,NA,NA,ACCEPT,NA,NA,NA,NA,NA,batch6pro,batch6pro,6,50,1,Screen 1,continueButton,response_rating_scale_likert_active,4085.899999999907,NA,NA,Somewhat Disagree,1,0,1,0,NA,NA,NA,NA,1,statements,everyone else is getting it so i don't need too,1,17/06/2021 12:51,17/06/2021 12:57,IP Address,For (I feel positively about the vaccines),A few times a year,Most months,30,Female,NA,"Undergraduate degree (BSc, BA)",choice,51,3,For,Against
53,1659955778620,08/08/2022 10:49:38,1659955778514,1,08/08/2022 11:49:38,94118,2,task-s8ki,NA,23522264,6893650,NA,complete,NA,62f0e819bde5958f27a625db,computer,Desktop or Laptop,Mac OS 10.15.7,Chrome 103.0.0.0,2240x1260,1571x1039,NA,ITT Ratings,2,against,6,NA,NA,NA,NA,ACCEPT,NA,NA,NA,NA,NA,batch6pro,batch6pro,27,51,1,Screen 1,continueButton,response_rating_scale_likert_active,3736.400000000373,NA,NA,Somewhat Disagree,1,0,1,0,NA,NA,NA,NA,1,statements,More people vaccinated less chance of mutations in the virus,1,17/06/2021 12:49,17/06/2021 12:58,IP Address,For (I feel positively about the vaccines),Rarely,Most weeks,56,Male,NA,"GCSEs,Vocational Training / Apprenticeship",choice,54,3,For,For
54,1659955782395,08/08/2022 10:49:42,1659955782262,1,08/08/2022 11:49:42,94118,2,task-s8ki,NA,23522264,6893650,NA,complete,NA,62f0e819bde5958f27a625db,computer,Desktop or Laptop,Mac OS 10.15.7,Chrome 103.0.0.0,2240x1260,1571x1039,NA,ITT Ratings,2,against,6,NA,NA,NA,NA,ACCEPT,NA,NA,NA,NA,NA,batch6pro,batch6pro,31,52,1,Screen 1,continueButton,response_rating_scale_likert_active,3739.2999999998137,NA,NA,Somewhat Disagree,1,0,1,0,NA,NA,NA,NA,1,statements,Im protecting myself and my family.,1,17/06/2021 12:48,17/06/2021 12:58,IP Address,For (I feel positively about the vaccines),Rarely,Rarely,54,Female,NA,GCSEs,control,55,1,For,For
55,1659955784173,08/08/2022 10:49:44,1659955784083,1,08/08/2022 11:49:44,94118,2,task-s8ki,NA,23522264,6893650,NA,complete,NA,62f0e819bde5958f27a625db,computer,Desktop or Laptop,Mac OS 10.15.7,Chrome 103.0.0.0,2240x1260,1571x1039,NA,ITT Ratings,2,against,6,NA,NA,NA,NA,ACCEPT,NA,NA,NA,NA,NA,batch6pro,batch6pro,59,53,1,Screen 1,continueButton,response_rating_scale_likert_active,1813.9000000003723,NA,NA,Strongly Agree,1,0,1,0,NA,NA,NA,NA,1,statements,Scared of risks related to vaccines,1,17/06/2021 12:54,17/06/2021 12:59,IP Address,For (I feel positively about the vaccines),Most months,Most months,31,Female,NA,"Undergraduate degree (BSc, BA)",choice,60,2,For,Against
56,1659955787538,08/08/2022 10:49:47,1659955787437,1,08/08/2022 11:49:47,94118,2,task-s8ki,NA,23522264,6893650,NA,complete,NA,62f0e819bde5958f27a625db,computer,Desktop or Laptop,Mac OS 10.15.7,Chrome 103.0.0.0,2240x1260,1571x1039,NA,ITT Ratings,2,against,6,NA,NA,NA,NA,ACCEPT,NA,NA,NA,NA,NA,batch6pro,batch6pro,45,54,1,Screen 1,continueButton,response_rating_scale_likert_active,3345.399999999907,NA,NA,Strongly Disagree,1,0,1,0,NA,NA,NA,NA,1,statements,The more people that are vaccinated the more successful we will be of bringing covid under control and get our lives back to normal,1,17/06/2021 12:44,17/06/2021 12:58,IP Address,For (I feel positively about the vaccines),A few times a year,Most months,49,Female,NA,"Undergraduate degree (BSc, BA)",control,57,3,For,For
57,1659955791191,08/08/2022 10:49:51,1659955791056,1,08/08/2022 11:49:51,94118,2,task-s8ki,NA,23522264,6893650,NA,complete,NA,62f0e819bde5958f27a625db,computer,Desktop or Laptop,Mac OS 10.15.7,Chrome 103.0.0.0,2240x1260,1571x1039,NA,ITT Ratings,2,against,6,NA,NA,NA,NA,ACCEPT,NA,NA,NA,NA,NA,batch6pro,batch6pro,57,55,1,Screen 1,continueButton,response_rating_scale_likert_active,3610.8000000002794,NA,NA,Strongly Disagree,1,0,1,0,NA,NA,NA,NA,1,statements,because I want to help get the world back to normal,1,17/06/2021 12:55,17/06/2021 12:59,IP Address,For (I feel positively about the vaccines),Most weeks,Most months,41,Female,NA,"Postgraduate degree (MSc, MA, MPhil)",control,59,3,For,For
58,1659955792768,08/08/2022 10:49:52,1659955792687,1,08/08/2022 11:49:52,94118,2,task-s8ki,NA,23522264,6893650,NA,complete,NA,62f0e819bde5958f27a625db,computer,Desktop or Laptop,Mac OS 10.15.7,Chrome 103.0.0.0,2240x1260,1571x1039,NA,ITT Ratings,2,against,6,NA,NA,NA,NA,ACCEPT,NA,NA,NA,NA,NA,batch6pro,batch6pro,47,56,1,Screen 1,continueButton,response_rating_scale_likert_active,1622.5,NA,NA,Strongly Agree,1,0,1,0,NA,NA,NA,NA,1,statements,Not enough research has gone into the vaccines.,1,17/06/2021 12:49,17/06/2021 12:59,IP Address,For (I feel positively about the vaccines),Most months,A few times a year,45,Male,NA,Vocational Training / Apprenticeship,control,58,2,For,Against
59,1659955795670,08/08/2022 10:49:55,1659955795566,1,08/08/2022 11:49:55,94118,2,task-s8ki,NA,23522264,6893650,NA,complete,NA,62f0e819bde5958f27a625db,computer,Desktop or Laptop,Mac OS 10.15.7,Chrome 103.0.0.0,2240x1260,1571x1039,NA,ITT Ratings,2,against,6,NA,NA,NA,NA,ACCEPT,NA,NA,NA,NA,NA,batch6pro,batch6pro,11,57,1,Screen 1,continueButton,response_rating_scale_likert_active,2872.5,NA,NA,Strongly Agree,1,0,1,0,NA,NA,NA,NA,1,statements,"It is the government controlling us, we deserve a choice.",1,17/06/2021 12:51,17/06/2021 12:58,IP Address,For (I feel positively about the vaccines),Most weeks,Most days,33,Male,NA,"Undergraduate degree (BSc, BA)",choice,52,2,For,Against
60,1659955799158,08/08/2022 10:49:59,1659955799056,1,08/08/2022 11:49:59,94118,2,task-s8ki,NA,23522264,6893650,NA,complete,NA,62f0e819bde5958f27a625db,computer,Desktop or Laptop,Mac OS 10.15.7,Chrome 103.0.0.0,2240x1260,1571x1039,NA,ITT Ratings,2,against,6,NA,NA,NA,NA,ACCEPT,NA,NA,NA,NA,NA,batch6pro,batch6pro,13,58,1,Screen 1,continueButton,response_rating_scale_likert_active,3484.899999999907,NA,NA,Neither Agree nor Disagree,1,0,1,0,NA,NA,NA,NA,1,statements,It reduces the severity of symptoms if i catch covid.,1,17/06/2021 12:51,17/06/2021 12:58,IP Address,For (I feel positively about the vaccines),Most weeks,Most days,33,Male,NA,"Undergraduate degree (BSc, BA)",choice,52,1,For,For
61,1659955812128,08/08/2022 10:50:12,1659955812039,1,08/08/2022 11:50:12,94118,2,task-s8ki,NA,23522264,6893650,NA,complete,NA,62f0e819bde5958f27a625db,computer,Desktop or Laptop,Mac OS 10.15.7,Chrome 103.0.0.0,2240x1260,1571x1039,NA,ITT Ratings,2,against,6,NA,NA,NA,NA,ACCEPT,NA,NA,NA,NA,NA,batch6pro,batch6pro,14,59,1,Screen 1,continueButton,response_rating_scale_likert_active,12973.100000000091,NA,NA,Somewhat Disagree,1,0,1,0,NA,NA,NA,NA,1,statements,"It helps protect me and others around me, having a reducing effect on transmission rates",1,17/06/2021 12:51,17/06/2021 12:58,IP Address,For (I feel positively about the vaccines),Most weeks,Most days,33,Male,NA,"Undergraduate degree (BSc, BA)",choice,52,2,For,For
62,1659955813959,08/08/2022 10:50:13,1659955813859,1,08/08/2022 11:50:13,94118,2,task-s8ki,NA,23522264,6893650,NA,complete,NA,62f0e819bde5958f27a625db,computer,Desktop or Laptop,Mac OS 10.15.7,Chrome 103.0.0.0,2240x1260,1571x1039,NA,ITT Ratings,2,against,6,NA,NA,NA,NA,ACCEPT,NA,NA,NA,NA,NA,batch6pro,batch6pro,52,60,1,Screen 1,continueButton,response_rating_scale_likert_active,1811.8000000002792,NA,NA,Strongly Agree,1,0,1,0,NA,NA,NA,NA,1,statements,I am pregnant or planning a pregnancy,1,17/06/2021 12:55,17/06/2021 12:59,IP Address,For (I feel positively about the vaccines),Most weeks,Most months,41,Female,NA,"Postgraduate degree (MSc, MA, MPhil)",control,59,1,For,Against
63,1659955815557,08/08/2022 10:50:15,1659955815446,1,08/08/2022 11:50:15,94118,2,task-s8ki,NA,23522264,6893650,NA,complete,NA,62f0e819bde5958f27a625db,computer,Desktop or Laptop,Mac OS 10.15.7,Chrome 103.0.0.0,2240x1260,1571x1039,NA,ITT Ratings,2,against,6,NA,NA,NA,NA,ACCEPT,NA,NA,NA,NA,NA,batch6pro,batch6pro,36,61,1,Screen 1,continueButton,response_rating_scale_likert_active,1579.2999999998135,NA,NA,Strongly Agree,1,0,1,0,NA,NA,NA,NA,1,statements,There's not been enough time to develop a safe vaccine,1,17/06/2021 12:47,17/06/2021 12:58,IP Address,For (I feel positively about the vaccines),Never,A few times a year,35,Female,NA,"Postgraduate degree (MSc, MA, MPhil)",choice,56,3,For,Against
64,1659955819458,08/08/2022 10:50:19,1659955819357,1,08/08/2022 11:50:19,94118,2,task-s8ki,NA,23522264,6893650,NA,complete,NA,62f0e819bde5958f27a625db,computer,Desktop or Laptop,Mac OS 10.15.7,Chrome 103.0.0.0,2240x1260,1571x1039,NA,ITT Ratings,2,against,6,NA,NA,NA,NA,ACCEPT,NA,NA,NA,NA,NA,batch6pro,batch6pro,5,62,1,Screen 1,continueButton,response_rating_scale_likert_active,3903.5,NA,NA,Strongly Disagree,1,0,1,0,NA,NA,NA,NA,1,statements,covid is all a hoax made up to cull the population as its too big,1,17/06/2021 12:51,17/06/2021 12:57,IP Address,For (I feel positively about the vaccines),A few times a year,Most months,30,Female,NA,"Undergraduate degree (BSc, BA)",choice,51,2,For,Against
65,1659955819505,08/08/2022 10:50:19,1659955819363,1,08/08/2022 11:50:19,94118,2,task-s8ki,NA,23522264,6893650,NA,complete,NA,62f0e819bde5958f27a625db,computer,Desktop or Laptop,Mac OS 10.15.7,Chrome 103.0.0.0,2240x1260,1571x1039,NA,ITT Ratings,2,against,6,NA,NA,NA,NA,ACCEPT,NA,NA,NA,NA,NA,batch6pro,NA,NA,END TASK,NA,NA,NA,NA,431749,NA,NA,NA,NA,0,1,0,NA,NA,NA,NA,NA,NA,NA,NA,NA,NA,NA,NA,NA,NA,NA,NA,NA,NA,NA,NA,NA,NA,NA
1,1659957331619,08/08/2022 11:15:31,1659957331483,1,08/08/2022 12:15:31,94118,2,task-s8ki,NA,23522774,6893809,NA,complete,NA,62f0efed05ade071958410dd,computer,Desktop or Laptop,Linux i686,Firefox 103.0,1429x893,1429x702,NA,ITT Ratings,2,against,6,NA,NA,NA,NA,ACCEPT,NA,NA,NA,NA,NA,batch6pro,NA,NA,BEGIN TASK,NA,NA,NA,NA,NA,NA,NA,NA,NA,0,1,0,NA,NA,NA,NA,NA,NA,NA,NA,NA,NA,NA,NA,NA,NA,NA,NA,NA,NA,NA,NA,NA,NA,NA
2,1659957340773,08/08/2022 11:15:40,1659957340697,1,08/08/2022 12:15:40,94118,2,task-s8ki,NA,23522774,6893809,NA,complete,NA,62f0efed05ade071958410dd,computer,Desktop or Laptop,Linux i686,Firefox 103.0,1429x893,1429x702,NA,ITT Ratings,2,against,6,NA,NA,NA,NA,ACCEPT,NA,NA,NA,NA,NA,batch6pro,batch6pro,1,1,1,Screen 1,advancementZone,continue_button,8743,NA,NA,NA,NA,0,1,0,NA,NA,NA,NA,NA,instructions,NA,NA,NA,NA,NA,NA,NA,NA,NA,NA,NA,NA,NA,NA,NA,NA,NA
3,1659957348139,08/08/2022 11:15:48,1659957348052,1,08/08/2022 12:15:48,94118,2,task-s8ki,NA,23522774,6893809,NA,complete,NA,62f0efed05ade071958410dd,computer,Desktop or Laptop,Linux i686,Firefox 103.0,1429x893,1429x702,NA,ITT Ratings,2,against,6,NA,NA,NA,NA,ACCEPT,NA,NA,NA,NA,NA,batch6pro,batch6pro,18,1,1,Screen 1,continueButton,response_rating_scale_likert_active,7264,NA,NA,Strongly Agree,1,0,1,0,NA,NA,NA,NA,1,statements,"Not trialed enough, vaccine was too rushed.",1,17/06/2021 12:42,17/06/2021 12:58,IP Address,For (I feel positively about the vaccines),Most weeks,Most months,25,Female,NA,Vocational Training / Apprenticeship,choice,53,3,For,Against
4,1659957354560,08/08/2022 11:15:54,1659957354479,1,08/08/2022 12:15:54,94118,2,task-s8ki,NA,23522774,6893809,NA,complete,NA,62f0efed05ade071958410dd,computer,Desktop or Laptop,Linux i686,Firefox 103.0,1429x893,1429x702,NA,ITT Ratings,2,against,6,NA,NA,NA,NA,ACCEPT,NA,NA,NA,NA,NA,batch6pro,batch6pro,43,2,1,Screen 1,continueButton,response_rating_scale_likert_active,6366,NA,NA,Somewhat Agree,1,0,1,0,NA,NA,NA,NA,1,statements,The vaccines are produced following strict guidelines,1,17/06/2021 12:44,17/06/2021 12:58,IP Address,For (I feel positively about the vaccines),A few times a year,Most months,49,Female,NA,"Undergraduate degree (BSc, BA)",control,57,1,For,For
5,1659957357949,08/08/2022 11:15:57,1659957357878,1,08/08/2022 12:15:57,94118,2,task-s8ki,NA,23522774,6893809,NA,complete,NA,62f0efed05ade071958410dd,computer,Desktop or Laptop,Linux i686,Firefox 103.0,1429x893,1429x702,NA,ITT Ratings,2,against,6,NA,NA,NA,NA,ACCEPT,NA,NA,NA,NA,NA,batch6pro,batch6pro,41,3,1,Screen 1,continueButton,response_rating_scale_likert_active,3344,NA,NA,Agree,1,0,1,0,NA,NA,NA,NA,1,statements,there are risks of blood clots and other serious side effects that are too risky,1,17/06/2021 12:44,17/06/2021 12:58,IP Address,For (I feel positively about the vaccines),A few times a year,Most months,49,Female,NA,"Undergraduate degree (BSc, BA)",control,57,2,For,Against
6,1659957374159,08/08/2022 11:16:14,1659957374041,1,08/08/2022 12:16:14,94118,2,task-s8ki,NA,23522774,6893809,NA,complete,NA,62f0efed05ade071958410dd,computer,Desktop or Laptop,Linux i686,Firefox 103.0,1429x893,1429x702,NA,ITT Ratings,2,against,6,NA,NA,NA,NA,ACCEPT,NA,NA,NA,NA,NA,batch6pro,batch6pro,7,4,1,Screen 1,continueButton,response_rating_scale_likert_active,16116,NA,NA,Somewhat Disagree,1,0,1,0,NA,NA,NA,NA,1,statements,if everyone gets vaccinated we can slow/stop the mutations which takes away a lot of its power,1,17/06/2021 12:51,17/06/2021 12:57,IP Address,For (I feel positively about the vaccines),A few times a year,Most months,30,Female,NA,"Undergraduate degree (BSc, BA)",choice,51,1,For,For
7,1659957380964,08/08/2022 11:16:20,1659957380876,1,08/08/2022 12:16:20,94118,2,task-s8ki,NA,23522774,6893809,NA,complete,NA,62f0efed05ade071958410dd,computer,Desktop or Laptop,Linux i686,Firefox 103.0,1429x893,1429x702,NA,ITT Ratings,2,against,6,NA,NA,NA,NA,ACCEPT,NA,NA,NA,NA,NA,batch6pro,batch6pro,52,5,1,Screen 1,continueButton,response_rating_scale_likert_active,6786,NA,NA,Strongly Disagree,1,0,1,0,NA,NA,NA,NA,1,statements,I am pregnant or planning a pregnancy,1,17/06/2021 12:55,17/06/2021 12:59,IP Address,For (I feel positively about the vaccines),Most weeks,Most months,41,Female,NA,"Postgraduate degree (MSc, MA, MPhil)",control,59,1,For,Against
8,1659957384565,08/08/2022 11:16:24,1659957384503,1,08/08/2022 12:16:24,94118,2,task-s8ki,NA,23522774,6893809,NA,complete,NA,62f0efed05ade071958410dd,computer,Desktop or Laptop,Linux i686,Firefox 103.0,1429x893,1429x702,NA,ITT Ratings,2,against,6,NA,NA,NA,NA,ACCEPT,NA,NA,NA,NA,NA,batch6pro,batch6pro,6,6,1,Screen 1,continueButton,response_rating_scale_likert_active,3581,NA,NA,Somewhat Disagree,1,0,1,0,NA,NA,NA,NA,1,statements,everyone else is getting it so i don't need too,1,17/06/2021 12:51,17/06/2021 12:57,IP Address,For (I feel positively about the vaccines),A few times a year,Most months,30,Female,NA,"Undergraduate degree (BSc, BA)",choice,51,3,For,Against
9,1659957388508,08/08/2022 11:16:28,1659957388447,1,08/08/2022 12:16:28,94118,2,task-s8ki,NA,23522774,6893809,NA,complete,NA,62f0efed05ade071958410dd,computer,Desktop or Laptop,Linux i686,Firefox 103.0,1429x893,1429x702,NA,ITT Ratings,2,against,6,NA,NA,NA,NA,ACCEPT,NA,NA,NA,NA,NA,batch6pro,batch6pro,50,7,1,Screen 1,continueButton,response_rating_scale_likert_active,3894,NA,NA,Disagree,1,0,1,0,NA,NA,NA,NA,1,statements,Less like to catch and pass on the virus.,1,17/06/2021 12:49,17/06/2021 12:59,IP Address,For (I feel positively about the vaccines),Most months,A few times a year,45,Male,NA,Vocational Training / Apprenticeship,control,58,2,For,For
10,1659957390942,08/08/2022 11:16:30,1659957390877,1,08/08/2022 12:16:30,94118,2,task-s8ki,NA,23522774,6893809,NA,complete,NA,62f0efed05ade071958410dd,computer,Desktop or Laptop,Linux i686,Firefox 103.0,1429x893,1429x702,NA,ITT Ratings,2,against,6,NA,NA,NA,NA,ACCEPT,NA,NA,NA,NA,NA,batch6pro,batch6pro,49,8,1,Screen 1,continueButton,response_rating_scale_likert_active,2378,NA,NA,Disagree,1,0,1,0,NA,NA,NA,NA,1,statements,Prevents me from getting the virus.,1,17/06/2021 12:49,17/06/2021 12:59,IP Address,For (I feel positively about the vaccines),Most months,A few times a year,45,Male,NA,Vocational Training / Apprenticeship,control,58,1,For,For
11,1659957393995,08/08/2022 11:16:33,1659957393900,1,08/08/2022 12:16:33,94118,2,task-s8ki,NA,23522774,6893809,NA,complete,NA,62f0efed05ade071958410dd,computer,Desktop or Laptop,Linux i686,Firefox 103.0,1429x893,1429x702,NA,ITT Ratings,2,against,6,NA,NA,NA,NA,ACCEPT,NA,NA,NA,NA,NA,batch6pro,batch6pro,29,9,1,Screen 1,continueButton,response_rating_scale_likert_active,2984,NA,NA,Strongly Agree,1,0,1,0,NA,NA,NA,NA,1,statements,I don't think it's been tested long enough compared to other vaccines,1,17/06/2021 12:48,17/06/2021 12:58,IP Address,For (I feel positively about the vaccines),Rarely,Rarely,54,Female,NA,GCSEs,control,55,2,For,Against
12,1659957396744,08/08/2022 11:16:36,1659957396681,1,08/08/2022 12:16:36,94118,2,task-s8ki,NA,23522774,6893809,NA,complete,NA,62f0efed05ade071958410dd,computer,Desktop or Laptop,Linux i686,Firefox 103.0,1429x893,1429x702,NA,ITT Ratings,2,against,6,NA,NA,NA,NA,ACCEPT,NA,NA,NA,NA,NA,batch6pro,batch6pro,4,10,1,Screen 1,continueButton,response_rating_scale_likert_active,2737,NA,NA,Agree,1,0,1,0,NA,NA,NA,NA,1,statements,it has not been tested enough so i don't know its safe,1,17/06/2021 12:51,17/06/2021 12:57,IP Address,For (I feel positively about the vaccines),A few times a year,Most months,30,Female,NA,"Undergraduate degree (BSc, BA)",choice,51,1,For,Against
13,1659957401698,08/08/2022 11:16:41,1659957401620,1,08/08/2022 12:16:41,94118,2,task-s8ki,NA,23522774,6893809,NA,complete,NA,62f0efed05ade071958410dd,computer,Desktop or Laptop,Linux i686,Firefox 103.0,1429x893,1429x702,NA,ITT Ratings,2,against,6,NA,NA,NA,NA,ACCEPT,NA,NA,NA,NA,NA,batch6pro,batch6pro,54,11,1,Screen 1,continueButton,response_rating_scale_likert_active,4900,NA,NA,Somewhat Disagree,1,0,1,0,NA,NA,NA,NA,1,statements,my own medical conditions,1,17/06/2021 12:55,17/06/2021 12:59,IP Address,For (I feel positively about the vaccines),Most weeks,Most months,41,Female,NA,"Postgraduate degree (MSc, MA, MPhil)",control,59,3,For,Against
14,1659957404923,08/08/2022 11:16:44,1659957404854,1,08/08/2022 12:16:44,94118,2,task-s8ki,NA,23522774,6893809,NA,complete,NA,62f0efed05ade071958410dd,computer,Desktop or Laptop,Linux i686,Firefox 103.0,1429x893,1429x702,NA,ITT Ratings,2,against,6,NA,NA,NA,NA,ACCEPT,NA,NA,NA,NA,NA,batch6pro,batch6pro,30,12,1,Screen 1,continueButton,response_rating_scale_likert_active,3141,NA,NA,Strongly Agree,1,0,1,0,NA,NA,NA,NA,1,statements,It should be a personal choice for everyone to decide yes or no for themselves,1,17/06/2021 12:48,17/06/2021 12:58,IP Address,For (I feel positively about the vaccines),Rarely,Rarely,54,Female,NA,GCSEs,control,55,3,For,Against
15,1659957410922,08/08/2022 11:16:50,1659957410838,1,08/08/2022 12:16:50,94118,2,task-s8ki,NA,23522774,6893809,NA,complete,NA,62f0efed05ade071958410dd,computer,Desktop or Laptop,Linux i686,Firefox 103.0,1429x893,1429x702,NA,ITT Ratings,2,against,6,NA,NA,NA,NA,ACCEPT,NA,NA,NA,NA,NA,batch6pro,batch6pro,15,13,1,Screen 1,continueButton,response_rating_scale_likert_active,5929,NA,NA,Neither Agree nor Disagree,1,0,1,0,NA,NA,NA,NA,1,statements,It will help things return to less restrictive guidelines in a shorter time period,1,17/06/2021 12:51,17/06/2021 12:58,IP Address,For (I feel positively about the vaccines),Most weeks,Most days,33,Male,NA,"Undergraduate degree (BSc, BA)",choice,52,3,For,For
16,1659957413714,08/08/2022 11:16:53,1659957413642,1,08/08/2022 12:16:53,94118,2,task-s8ki,NA,23522774,6893809,NA,complete,NA,62f0efed05ade071958410dd,computer,Desktop or Laptop,Linux i686,Firefox 103.0,1429x893,1429x702,NA,ITT Ratings,2,against,6,NA,NA,NA,NA,ACCEPT,NA,NA,NA,NA,NA,batch6pro,batch6pro,57,14,1,Screen 1,continueButton,response_rating_scale_likert_active,2751,NA,NA,Neither Agree nor Disagree,1,0,1,0,NA,NA,NA,NA,1,statements,because I want to help get the world back to normal,1,17/06/2021 12:55,17/06/2021 12:59,IP Address,For (I feel positively about the vaccines),Most weeks,Most months,41,Female,NA,"Postgraduate degree (MSc, MA, MPhil)",control,59,3,For,For
17,1659957416839,08/08/2022 11:16:56,1659957416769,1,08/08/2022 12:16:56,94118,2,task-s8ki,NA,23522774,6893809,NA,complete,NA,62f0efed05ade071958410dd,computer,Desktop or Laptop,Linux i686,Firefox 103.0,1429x893,1429x702,NA,ITT Ratings,2,against,6,NA,NA,NA,NA,ACCEPT,NA,NA,NA,NA,NA,batch6pro,batch6pro,59,15,1,Screen 1,continueButton,response_rating_scale_likert_active,3081,NA,NA,Somewhat Agree,1,0,1,0,NA,NA,NA,NA,1,statements,Scared of risks related to vaccines,1,17/06/2021 12:54,17/06/2021 12:59,IP Address,For (I feel positively about the vaccines),Most months,Most months,31,Female,NA,"Undergraduate degree (BSc, BA)",choice,60,2,For,Against
18,1659957420286,08/08/2022 11:17:00,1659957420220,1,08/08/2022 12:17:00,94118,2,task-s8ki,NA,23522774,6893809,NA,complete,NA,62f0efed05ade071958410dd,computer,Desktop or Laptop,Linux i686,Firefox 103.0,1429x893,1429x702,NA,ITT Ratings,2,against,6,NA,NA,NA,NA,ACCEPT,NA,NA,NA,NA,NA,batch6pro,batch6pro,42,16,1,Screen 1,continueButton,response_rating_scale_likert_active,3404,NA,NA,Agree,1,0,1,0,NA,NA,NA,NA,1,statements,They only tackle one variant which means they wont be effective for other variants,1,17/06/2021 12:44,17/06/2021 12:58,IP Address,For (I feel positively about the vaccines),A few times a year,Most months,49,Female,NA,"Undergraduate degree (BSc, BA)",control,57,3,For,Against
19,1659957426836,08/08/2022 11:17:06,1659957426769,1,08/08/2022 12:17:06,94118,2,task-s8ki,NA,23522774,6893809,NA,complete,NA,62f0efed05ade071958410dd,computer,Desktop or Laptop,Linux i686,Firefox 103.0,1429x893,1429x702,NA,ITT Ratings,2,against,6,NA,NA,NA,NA,ACCEPT,NA,NA,NA,NA,NA,batch6pro,batch6pro,46,17,1,Screen 1,continueButton,response_rating_scale_likert_active,6502,NA,NA,Agree,1,0,1,0,NA,NA,NA,NA,1,statements,I don't believe in the vaccines.,1,17/06/2021 12:49,17/06/2021 12:59,IP Address,For (I feel positively about the vaccines),Most months,A few times a year,45,Male,NA,Vocational Training / Apprenticeship,control,58,1,For,Against
20,1659957430427,08/08/2022 11:17:10,1659957430363,1,08/08/2022 12:17:10,94118,2,task-s8ki,NA,23522774,6893809,NA,complete,NA,62f0efed05ade071958410dd,computer,Desktop or Laptop,Linux i686,Firefox 103.0,1429x893,1429x702,NA,ITT Ratings,2,against,6,NA,NA,NA,NA,ACCEPT,NA,NA,NA,NA,NA,batch6pro,batch6pro,53,18,1,Screen 1,continueButton,response_rating_scale_likert_active,3541,NA,NA,Agree,1,0,1,0,NA,NA,NA,NA,1,statements,I don't believe there was enough research done on vacines,1,17/06/2021 12:55,17/06/2021 12:59,IP Address,For (I feel positively about the vaccines),Most weeks,Most months,41,Female,NA,"Postgraduate degree (MSc, MA, MPhil)",control,59,2,For,Against
21,1659957434711,08/08/2022 11:17:14,1659957434634,1,08/08/2022 12:17:14,94118,2,task-s8ki,NA,23522774,6893809,NA,complete,NA,62f0efed05ade071958410dd,computer,Desktop or Laptop,Linux i686,Firefox 103.0,1429x893,1429x702,NA,ITT Ratings,2,against,6,NA,NA,NA,NA,ACCEPT,NA,NA,NA,NA,NA,batch6pro,batch6pro,28,19,1,Screen 1,continueButton,response_rating_scale_likert_active,4226,NA,NA,Disagree,1,0,1,0,NA,NA,NA,NA,1,statements,Im young and want to start a family. I'm not sure about the long term effects on fertility.,1,17/06/2021 12:48,17/06/2021 12:58,IP Address,For (I feel positively about the vaccines),Rarely,Rarely,54,Female,NA,GCSEs,control,55,1,For,Against
22,1659957441607,08/08/2022 11:17:21,1659957441534,1,08/08/2022 12:17:21,94118,2,task-s8ki,NA,23522774,6893809,NA,complete,NA,62f0efed05ade071958410dd,computer,Desktop or Laptop,Linux i686,Firefox 103.0,1429x893,1429x702,NA,ITT Ratings,2,against,6,NA,NA,NA,NA,ACCEPT,NA,NA,NA,NA,NA,batch6pro,batch6pro,21,20,1,Screen 1,continueButton,response_rating_scale_likert_active,6854,NA,NA,Somewhat Agree,1,0,1,0,NA,NA,NA,NA,1,statements,It has been our escape route from the lockdown.,1,17/06/2021 12:42,17/06/2021 12:58,IP Address,For (I feel positively about the vaccines),Most weeks,Most months,25,Female,NA,Vocational Training / Apprenticeship,choice,53,3,For,For
23,1659957443956,08/08/2022 11:17:23,1659957443838,1,08/08/2022 12:17:23,94118,2,task-s8ki,NA,23522774,6893809,NA,complete,NA,62f0efed05ade071958410dd,computer,Desktop or Laptop,Linux i686,Firefox 103.0,1429x893,1429x702,NA,ITT Ratings,2,against,6,NA,NA,NA,NA,ACCEPT,NA,NA,NA,NA,NA,batch6pro,batch6pro,36,21,1,Screen 1,continueButton,response_rating_scale_likert_active,2262,NA,NA,Strongly Agree,1,0,1,0,NA,NA,NA,NA,1,statements,There's not been enough time to develop a safe vaccine,1,17/06/2021 12:47,17/06/2021 12:58,IP Address,For (I feel positively about the vaccines),Never,A few times a year,35,Female,NA,"Postgraduate degree (MSc, MA, MPhil)",choice,56,3,For,Against
24,1659957447060,08/08/2022 11:17:27,1659957446973,1,08/08/2022 12:17:26,94118,2,task-s8ki,NA,23522774,6893809,NA,complete,NA,62f0efed05ade071958410dd,computer,Desktop or Laptop,Linux i686,Firefox 103.0,1429x893,1429x702,NA,ITT Ratings,2,against,6,NA,NA,NA,NA,ACCEPT,NA,NA,NA,NA,NA,batch6pro,batch6pro,48,22,1,Screen 1,continueButton,response_rating_scale_likert_active,3061,NA,NA,Somewhat Disagree,1,0,1,0,NA,NA,NA,NA,1,statements,Don't like the idea that the government is injecting me.,1,17/06/2021 12:49,17/06/2021 12:59,IP Address,For (I feel positively about the vaccines),Most months,A few times a year,45,Male,NA,Vocational Training / Apprenticeship,control,58,3,For,Against
25,1659957449464,08/08/2022 11:17:29,1659957449393,1,08/08/2022 12:17:29,94118,2,task-s8ki,NA,23522774,6893809,NA,complete,NA,62f0efed05ade071958410dd,computer,Desktop or Laptop,Linux i686,Firefox 103.0,1429x893,1429x702,NA,ITT Ratings,2,against,6,NA,NA,NA,NA,ACCEPT,NA,NA,NA,NA,NA,batch6pro,batch6pro,55,23,1,Screen 1,continueButton,response_rating_scale_likert_active,2378,NA,NA,Neither Agree nor Disagree,1,0,1,0,NA,NA,NA,NA,1,statements,to prevent myself catching Covid,1,17/06/2021 12:55,17/06/2021 12:59,IP Address,For (I feel positively about the vaccines),Most weeks,Most months,41,Female,NA,"Postgraduate degree (MSc, MA, MPhil)",control,59,1,For,For
26,1659957455052,08/08/2022 11:17:35,1659957454964,1,08/08/2022 12:17:34,94118,2,task-s8ki,NA,23522774,6893809,NA,complete,NA,62f0efed05ade071958410dd,computer,Desktop or Laptop,Linux i686,Firefox 103.0,1429x893,1429x702,NA,ITT Ratings,2,against,6,NA,NA,NA,NA,ACCEPT,NA,NA,NA,NA,NA,batch6pro,batch6pro,25,24,1,Screen 1,continueButton,response_rating_scale_likert_active,5527,NA,NA,Somewhat Agree,1,0,1,0,NA,NA,NA,NA,1,statements,Vaccination keeps hospitalisation down,1,17/06/2021 12:49,17/06/2021 12:58,IP Address,For (I feel positively about the vaccines),Rarely,Most weeks,56,Male,NA,"GCSEs,Vocational Training / Apprenticeship",choice,54,1,For,For
27,1659957461449,08/08/2022 11:17:41,1659957461379,1,08/08/2022 12:17:41,94118,2,task-s8ki,NA,23522774,6893809,NA,complete,NA,62f0efed05ade071958410dd,computer,Desktop or Laptop,Linux i686,Firefox 103.0,1429x893,1429x702,NA,ITT Ratings,2,against,6,NA,NA,NA,NA,ACCEPT,NA,NA,NA,NA,NA,batch6pro,batch6pro,2,25,1,Screen 1,continueButton,response_rating_scale_likert_active,6374,NA,NA,Somewhat Agree,1,0,1,0,NA,NA,NA,NA,1,statements,We would like to check you are reading each argument carefully. Please select 'Somewhat Agree' for this answer,1,NA,NA,NA,NA,NA,NA,NA,NA,NA,NA,NA,NA,check1,NA,NA
28,1659957464182,08/08/2022 11:17:44,1659957464099,1,08/08/2022 12:17:44,94118,2,task-s8ki,NA,23522774,6893809,NA,complete,NA,62f0efed05ade071958410dd,computer,Desktop or Laptop,Linux i686,Firefox 103.0,1429x893,1429x702,NA,ITT Ratings,2,against,6,NA,NA,NA,NA,ACCEPT,NA,NA,NA,NA,NA,batch6pro,batch6pro,23,26,1,Screen 1,continueButton,response_rating_scale_likert_active,2680,NA,NA,Agree,1,0,1,0,NA,NA,NA,NA,1,statements,Don't trust government,1,17/06/2021 12:49,17/06/2021 12:58,IP Address,For (I feel positively about the vaccines),Rarely,Most weeks,56,Male,NA,"GCSEs,Vocational Training / Apprenticeship",choice,54,2,For,Against
29,1659957468014,08/08/2022 11:17:48,1659957467956,1,08/08/2022 12:17:47,94118,2,task-s8ki,NA,23522774,6893809,NA,complete,NA,62f0efed05ade071958410dd,computer,Desktop or Laptop,Linux i686,Firefox 103.0,1429x893,1429x702,NA,ITT Ratings,2,against,6,NA,NA,NA,NA,ACCEPT,NA,NA,NA,NA,NA,batch6pro,batch6pro,20,27,1,Screen 1,continueButton,response_rating_scale_likert_active,3819,NA,NA,Neither Agree nor Disagree,1,0,1,0,NA,NA,NA,NA,1,statements,There's no evidence of infertility.,1,17/06/2021 12:42,17/06/2021 12:58,IP Address,For (I feel positively about the vaccines),Most weeks,Most months,25,Female,NA,Vocational Training / Apprenticeship,choice,53,2,For,For
30,1659957470754,08/08/2022 11:17:50,1659957470676,1,08/08/2022 12:17:50,94118,2,task-s8ki,NA,23522774,6893809,NA,complete,NA,62f0efed05ade071958410dd,computer,Desktop or Laptop,Linux i686,Firefox 103.0,1429x893,1429x702,NA,ITT Ratings,2,against,6,NA,NA,NA,NA,ACCEPT,NA,NA,NA,NA,NA,batch6pro,batch6pro,5,28,1,Screen 1,continueButton,response_rating_scale_likert_active,2679,NA,NA,Strongly Disagree,1,0,1,0,NA,NA,NA,NA,1,statements,covid is all a hoax made up to cull the population as its too big,1,17/06/2021 12:51,17/06/2021 12:57,IP Address,For (I feel positively about the vaccines),A few times a year,Most months,30,Female,NA,"Undergraduate degree (BSc, BA)",choice,51,2,For,Against
31,1659957474192,08/08/2022 11:17:54,1659957474129,1,08/08/2022 12:17:54,94118,2,task-s8ki,NA,23522774,6893809,NA,complete,NA,62f0efed05ade071958410dd,computer,Desktop or Laptop,Linux i686,Firefox 103.0,1429x893,1429x702,NA,ITT Ratings,2,against,6,NA,NA,NA,NA,ACCEPT,NA,NA,NA,NA,NA,batch6pro,batch6pro,58,29,1,Screen 1,continueButton,response_rating_scale_likert_active,3414,NA,NA,Agree,1,0,1,0,NA,NA,NA,NA,1,statements,Don't need it I am not at risk,1,17/06/2021 12:54,17/06/2021 12:59,IP Address,For (I feel positively about the vaccines),Most months,Most months,31,Female,NA,"Undergraduate degree (BSc, BA)",choice,60,1,For,Against
32,1659957478548,08/08/2022 11:17:58,1659957478460,1,08/08/2022 12:17:58,94118,2,task-s8ki,NA,23522774,6893809,NA,complete,NA,62f0efed05ade071958410dd,computer,Desktop or Laptop,Linux i686,Firefox 103.0,1429x893,1429x702,NA,ITT Ratings,2,against,6,NA,NA,NA,NA,ACCEPT,NA,NA,NA,NA,NA,batch6pro,batch6pro,14,30,1,Screen 1,continueButton,response_rating_scale_likert_active,4291,NA,NA,Disagree,1,0,1,0,NA,NA,NA,NA,1,statements,"It helps protect me and others around me, having a reducing effect on transmission rates",1,17/06/2021 12:51,17/06/2021 12:58,IP Address,For (I feel positively about the vaccines),Most weeks,Most days,33,Male,NA,"Undergraduate degree (BSc, BA)",choice,52,2,For,For
33,1659957481508,08/08/2022 11:18:01,1659957481403,1,08/08/2022 12:18:01,94118,2,task-s8ki,NA,23522774,6893809,NA,complete,NA,62f0efed05ade071958410dd,computer,Desktop or Laptop,Linux i686,Firefox 103.0,1429x893,1429x702,NA,ITT Ratings,2,against,6,NA,NA,NA,NA,ACCEPT,NA,NA,NA,NA,NA,batch6pro,batch6pro,34,31,1,Screen 1,continueButton,response_rating_scale_likert_active,2897,NA,NA,Neither Agree nor Disagree,1,0,1,0,NA,NA,NA,NA,1,statements,I'm unlikely to get very ill if I get Covid,1,17/06/2021 12:47,17/06/2021 12:58,IP Address,For (I feel positively about the vaccines),Never,A few times a year,35,Female,NA,"Postgraduate degree (MSc, MA, MPhil)",choice,56,1,For,Against
34,1659957489425,08/08/2022 11:18:09,1659957489362,1,08/08/2022 12:18:09,94118,2,task-s8ki,NA,23522774,6893809,NA,complete,NA,62f0efed05ade071958410dd,computer,Desktop or Laptop,Linux i686,Firefox 103.0,1429x893,1429x702,NA,ITT Ratings,2,against,6,NA,NA,NA,NA,ACCEPT,NA,NA,NA,NA,NA,batch6pro,batch6pro,3,32,1,Screen 1,continueButton,response_rating_scale_likert_active,7920,NA,NA,Somewhat Disagree,1,0,1,0,NA,NA,NA,NA,1,statements,We would like to check you are reading each argument carefully. Please select 'Somewhat Disagree' for this answer,1,NA,NA,NA,NA,NA,NA,NA,NA,NA,NA,NA,NA,check2,NA,NA
35,1659957493527,08/08/2022 11:18:13,1659957493464,1,08/08/2022 12:18:13,94118,2,task-s8ki,NA,23522774,6893809,NA,complete,NA,62f0efed05ade071958410dd,computer,Desktop or Laptop,Linux i686,Firefox 103.0,1429x893,1429x702,NA,ITT Ratings,2,against,6,NA,NA,NA,NA,ACCEPT,NA,NA,NA,NA,NA,batch6pro,batch6pro,32,33,1,Screen 1,continueButton,response_rating_scale_likert_active,4061,NA,NA,Somewhat Disagree,1,0,1,0,NA,NA,NA,NA,1,statements,It's for the good of the whole world.,1,17/06/2021 12:48,17/06/2021 12:58,IP Address,For (I feel positively about the vaccines),Rarely,Rarely,54,Female,NA,GCSEs,control,55,2,For,For
36,1659957495643,08/08/2022 11:18:15,1659957495549,1,08/08/2022 12:18:15,94118,2,task-s8ki,NA,23522774,6893809,NA,complete,NA,62f0efed05ade071958410dd,computer,Desktop or Laptop,Linux i686,Firefox 103.0,1429x893,1429x702,NA,ITT Ratings,2,against,6,NA,NA,NA,NA,ACCEPT,NA,NA,NA,NA,NA,batch6pro,batch6pro,40,34,1,Screen 1,continueButton,response_rating_scale_likert_active,2046,NA,NA,Agree,1,0,1,0,NA,NA,NA,NA,1,statements,it was produced too quickly to be effective,1,17/06/2021 12:44,17/06/2021 12:58,IP Address,For (I feel positively about the vaccines),A few times a year,Most months,49,Female,NA,"Undergraduate degree (BSc, BA)",control,57,1,For,Against
37,1659957501700,08/08/2022 11:18:21,1659957501605,1,08/08/2022 12:18:21,94118,2,task-s8ki,NA,23522774,6893809,NA,complete,NA,62f0efed05ade071958410dd,computer,Desktop or Laptop,Linux i686,Firefox 103.0,1429x893,1429x702,NA,ITT Ratings,2,against,6,NA,NA,NA,NA,ACCEPT,NA,NA,NA,NA,NA,batch6pro,batch6pro,8,35,1,Screen 1,continueButton,response_rating_scale_likert_active,6005,NA,NA,Disagree,1,0,1,0,NA,NA,NA,NA,1,statements,it can make sure i don't transmit it to other people so keep them safe as well as me,1,17/06/2021 12:51,17/06/2021 12:57,IP Address,For (I feel positively about the vaccines),A few times a year,Most months,30,Female,NA,"Undergraduate degree (BSc, BA)",choice,51,2,For,For
38,1659957506471,08/08/2022 11:18:26,1659957506268,1,08/08/2022 12:18:26,94118,2,task-s8ki,NA,23522774,6893809,NA,complete,NA,62f0efed05ade071958410dd,computer,Desktop or Laptop,Linux i686,Firefox 103.0,1429x893,1429x702,NA,ITT Ratings,2,against,6,NA,NA,NA,NA,ACCEPT,NA,NA,NA,NA,NA,batch6pro,batch6pro,33,36,1,Screen 1,continueButton,response_rating_scale_likert_active,4620,NA,NA,Neither Agree nor Disagree,1,0,1,0,NA,NA,NA,NA,1,statements,We need to return to pre Covid status and normality and the vaccine will help to acheive that.,1,17/06/2021 12:48,17/06/2021 12:58,IP Address,For (I feel positively about the vaccines),Rarely,Rarely,54,Female,NA,GCSEs,control,55,3,For,For
39,1659957509396,08/08/2022 11:18:29,1659957509321,1,08/08/2022 12:18:29,94118,2,task-s8ki,NA,23522774,6893809,NA,complete,NA,62f0efed05ade071958410dd,computer,Desktop or Laptop,Linux i686,Firefox 103.0,1429x893,1429x702,NA,ITT Ratings,2,against,6,NA,NA,NA,NA,ACCEPT,NA,NA,NA,NA,NA,batch6pro,batch6pro,22,37,1,Screen 1,continueButton,response_rating_scale_likert_active,3016,NA,NA,Somewhat Agree,1,0,1,0,NA,NA,NA,NA,1,statements,Scared of blood clotting,1,17/06/2021 12:49,17/06/2021 12:58,IP Address,For (I feel positively about the vaccines),Rarely,Most weeks,56,Male,NA,"GCSEs,Vocational Training / Apprenticeship",choice,54,1,For,Against
40,1659957512489,08/08/2022 11:18:32,1659957512408,1,08/08/2022 12:18:32,94118,2,task-s8ki,NA,23522774,6893809,NA,complete,NA,62f0efed05ade071958410dd,computer,Desktop or Laptop,Linux i686,Firefox 103.0,1429x893,1429x702,NA,ITT Ratings,2,against,6,NA,NA,NA,NA,ACCEPT,NA,NA,NA,NA,NA,batch6pro,batch6pro,44,38,1,Screen 1,continueButton,response_rating_scale_likert_active,3046,NA,NA,Disagree,1,0,1,0,NA,NA,NA,NA,1,statements,They are effective at protecting against other variants,1,17/06/2021 12:44,17/06/2021 12:58,IP Address,For (I feel positively about the vaccines),A few times a year,Most months,49,Female,NA,"Undergraduate degree (BSc, BA)",control,57,2,For,For
41,1659957515104,08/08/2022 11:18:35,1659957515018,1,08/08/2022 12:18:35,94118,2,task-s8ki,NA,23522774,6893809,NA,complete,NA,62f0efed05ade071958410dd,computer,Desktop or Laptop,Linux i686,Firefox 103.0,1429x893,1429x702,NA,ITT Ratings,2,against,6,NA,NA,NA,NA,ACCEPT,NA,NA,NA,NA,NA,batch6pro,batch6pro,16,39,1,Screen 1,continueButton,response_rating_scale_likert_active,2573,NA,NA,Agree,1,0,1,0,NA,NA,NA,NA,1,statements,"Infertility, blood clots, not safe",1,17/06/2021 12:42,17/06/2021 12:58,IP Address,For (I feel positively about the vaccines),Most weeks,Most months,25,Female,NA,Vocational Training / Apprenticeship,choice,53,1,For,Against
42,1659957519163,08/08/2022 11:18:39,1659957519080,1,08/08/2022 12:18:39,94118,2,task-s8ki,NA,23522774,6893809,NA,complete,NA,62f0efed05ade071958410dd,computer,Desktop or Laptop,Linux i686,Firefox 103.0,1429x893,1429x702,NA,ITT Ratings,2,against,6,NA,NA,NA,NA,ACCEPT,NA,NA,NA,NA,NA,batch6pro,batch6pro,37,40,1,Screen 1,continueButton,response_rating_scale_likert_active,4021,NA,NA,Neither Agree nor Disagree,1,0,1,0,NA,NA,NA,NA,1,statements,"To protect myself, family and friends from getting Covid",1,17/06/2021 12:47,17/06/2021 12:58,IP Address,For (I feel positively about the vaccines),Never,A few times a year,35,Female,NA,"Postgraduate degree (MSc, MA, MPhil)",choice,56,1,For,For
43,1659957522697,08/08/2022 11:18:42,1659957522628,1,08/08/2022 12:18:42,94118,2,task-s8ki,NA,23522774,6893809,NA,complete,NA,62f0efed05ade071958410dd,computer,Desktop or Laptop,Linux i686,Firefox 103.0,1429x893,1429x702,NA,ITT Ratings,2,against,6,NA,NA,NA,NA,ACCEPT,NA,NA,NA,NA,NA,batch6pro,batch6pro,39,41,1,Screen 1,continueButton,response_rating_scale_likert_active,3510,NA,NA,Somewhat Disagree,1,0,1,0,NA,NA,NA,NA,1,statements,So I can maybe go on holiday in the future without having to isolate or pay for additional tests!,1,17/06/2021 12:47,17/06/2021 12:58,IP Address,For (I feel positively about the vaccines),Never,A few times a year,35,Female,NA,"Postgraduate degree (MSc, MA, MPhil)",choice,56,3,For,For
44,1659957524277,08/08/2022 11:18:44,1659957524214,1,08/08/2022 12:18:44,94118,2,task-s8ki,NA,23522774,6893809,NA,complete,NA,62f0efed05ade071958410dd,computer,Desktop or Laptop,Linux i686,Firefox 103.0,1429x893,1429x702,NA,ITT Ratings,2,against,6,NA,NA,NA,NA,ACCEPT,NA,NA,NA,NA,NA,batch6pro,batch6pro,61,42,1,Screen 1,continueButton,response_rating_scale_likert_active,1546,NA,NA,Somewhat Disagree,1,0,1,0,NA,NA,NA,NA,1,statements,Want to be safe and protect myself,1,17/06/2021 12:54,17/06/2021 12:59,IP Address,For (I feel positively about the vaccines),Most months,Most months,31,Female,NA,"Undergraduate degree (BSc, BA)",choice,60,1,For,For
45,1659957526062,08/08/2022 11:18:46,1659957526005,1,08/08/2022 12:18:46,94118,2,task-s8ki,NA,23522774,6893809,NA,complete,NA,62f0efed05ade071958410dd,computer,Desktop or Laptop,Linux i686,Firefox 103.0,1429x893,1429x702,NA,ITT Ratings,2,against,6,NA,NA,NA,NA,ACCEPT,NA,NA,NA,NA,NA,batch6pro,batch6pro,24,43,1,Screen 1,continueButton,response_rating_scale_likert_active,1746,NA,NA,Strongly Agree,1,0,1,0,NA,NA,NA,NA,1,statements,Long term side effects not known,1,17/06/2021 12:49,17/06/2021 12:58,IP Address,For (I feel positively about the vaccines),Rarely,Most weeks,56,Male,NA,"GCSEs,Vocational Training / Apprenticeship",choice,54,3,For,Against
46,1659957528130,08/08/2022 11:18:48,1659957528050,1,08/08/2022 12:18:48,94118,2,task-s8ki,NA,23522774,6893809,NA,complete,NA,62f0efed05ade071958410dd,computer,Desktop or Laptop,Linux i686,Firefox 103.0,1429x893,1429x702,NA,ITT Ratings,2,against,6,NA,NA,NA,NA,ACCEPT,NA,NA,NA,NA,NA,batch6pro,batch6pro,62,44,1,Screen 1,continueButton,response_rating_scale_likert_active,2007,NA,NA,Neither Agree nor Disagree,1,0,1,0,NA,NA,NA,NA,1,statements,Want to protect others,1,17/06/2021 12:54,17/06/2021 12:59,IP Address,For (I feel positively about the vaccines),Most months,Most months,31,Female,NA,"Undergraduate degree (BSc, BA)",choice,60,2,For,For
47,1659957530683,08/08/2022 11:18:50,1659957530620,1,08/08/2022 12:18:50,94118,2,task-s8ki,NA,23522774,6893809,NA,complete,NA,62f0efed05ade071958410dd,computer,Desktop or Laptop,Linux i686,Firefox 103.0,1429x893,1429x702,NA,ITT Ratings,2,against,6,NA,NA,NA,NA,ACCEPT,NA,NA,NA,NA,NA,batch6pro,batch6pro,11,45,1,Screen 1,continueButton,response_rating_scale_likert_active,2528,NA,NA,Somewhat Agree,1,0,1,0,NA,NA,NA,NA,1,statements,"It is the government controlling us, we deserve a choice.",1,17/06/2021 12:51,17/06/2021 12:58,IP Address,For (I feel positively about the vaccines),Most weeks,Most days,33,Male,NA,"Undergraduate degree (BSc, BA)",choice,52,2,For,Against
48,1659957537975,08/08/2022 11:18:57,1659957537898,1,08/08/2022 12:18:57,94118,2,task-s8ki,NA,23522774,6893809,NA,complete,NA,62f0efed05ade071958410dd,computer,Desktop or Laptop,Linux i686,Firefox 103.0,1429x893,1429x702,NA,ITT Ratings,2,against,6,NA,NA,NA,NA,ACCEPT,NA,NA,NA,NA,NA,batch6pro,batch6pro,9,46,1,Screen 1,continueButton,response_rating_scale_likert_active,7239,NA,NA,Somewhat Disagree,1,0,1,0,NA,NA,NA,NA,1,statements,having the vaccine with a day or two max side effects is better than getting covid and dying,1,17/06/2021 12:51,17/06/2021 12:57,IP Address,For (I feel positively about the vaccines),A few times a year,Most months,30,Female,NA,"Undergraduate degree (BSc, BA)",choice,51,3,For,For
49,1659957542266,08/08/2022 11:19:02,1659957542188,1,08/08/2022 12:19:02,94118,2,task-s8ki,NA,23522774,6893809,NA,complete,NA,62f0efed05ade071958410dd,computer,Desktop or Laptop,Linux i686,Firefox 103.0,1429x893,1429x702,NA,ITT Ratings,2,against,6,NA,NA,NA,NA,ACCEPT,NA,NA,NA,NA,NA,batch6pro,batch6pro,13,47,1,Screen 1,continueButton,response_rating_scale_likert_active,4245,NA,NA,Somewhat Disagree,1,0,1,0,NA,NA,NA,NA,1,statements,It reduces the severity of symptoms if i catch covid.,1,17/06/2021 12:51,17/06/2021 12:58,IP Address,For (I feel positively about the vaccines),Most weeks,Most days,33,Male,NA,"Undergraduate degree (BSc, BA)",choice,52,1,For,For
50,1659957546499,08/08/2022 11:19:06,1659957546422,1,08/08/2022 12:19:06,94118,2,task-s8ki,NA,23522774,6893809,NA,complete,NA,62f0efed05ade071958410dd,computer,Desktop or Laptop,Linux i686,Firefox 103.0,1429x893,1429x702,NA,ITT Ratings,2,against,6,NA,NA,NA,NA,ACCEPT,NA,NA,NA,NA,NA,batch6pro,batch6pro,35,48,1,Screen 1,continueButton,response_rating_scale_likert_active,4194,NA,NA,Somewhat Agree,1,0,1,0,NA,NA,NA,NA,1,statements,Everyone at risk has now had a vaccine,1,17/06/2021 12:47,17/06/2021 12:58,IP Address,For (I feel positively about the vaccines),Never,A few times a year,35,Female,NA,"Postgraduate degree (MSc, MA, MPhil)",choice,56,2,For,Against
51,1659957548734,08/08/2022 11:19:08,1659957548647,1,08/08/2022 12:19:08,94118,2,task-s8ki,NA,23522774,6893809,NA,complete,NA,62f0efed05ade071958410dd,computer,Desktop or Laptop,Linux i686,Firefox 103.0,1429x893,1429x702,NA,ITT Ratings,2,against,6,NA,NA,NA,NA,ACCEPT,NA,NA,NA,NA,NA,batch6pro,batch6pro,12,49,1,Screen 1,continueButton,response_rating_scale_likert_active,2187,NA,NA,Agree,1,0,1,0,NA,NA,NA,NA,1,statements,Covid is no worse than flu.,1,17/06/2021 12:51,17/06/2021 12:58,IP Address,For (I feel positively about the vaccines),Most weeks,Most days,33,Male,NA,"Undergraduate degree (BSc, BA)",choice,52,3,For,Against
52,1659957555091,08/08/2022 11:19:15,1659957555004,1,08/08/2022 12:19:15,94118,2,task-s8ki,NA,23522774,6893809,NA,complete,NA,62f0efed05ade071958410dd,computer,Desktop or Laptop,Linux i686,Firefox 103.0,1429x893,1429x702,NA,ITT Ratings,2,against,6,NA,NA,NA,NA,ACCEPT,NA,NA,NA,NA,NA,batch6pro,batch6pro,45,50,1,Screen 1,continueButton,response_rating_scale_likert_active,6319,NA,NA,Neither Agree nor Disagree,1,0,1,0,NA,NA,NA,NA,1,statements,The more people that are vaccinated the more successful we will be of bringing covid under control and get our lives back to normal,1,17/06/2021 12:44,17/06/2021 12:58,IP Address,For (I feel positively about the vaccines),A few times a year,Most months,49,Female,NA,"Undergraduate degree (BSc, BA)",control,57,3,For,For
53,1659957557026,08/08/2022 11:19:17,1659957556950,1,08/08/2022 12:19:16,94118,2,task-s8ki,NA,23522774,6893809,NA,complete,NA,62f0efed05ade071958410dd,computer,Desktop or Laptop,Linux i686,Firefox 103.0,1429x893,1429x702,NA,ITT Ratings,2,against,6,NA,NA,NA,NA,ACCEPT,NA,NA,NA,NA,NA,batch6pro,batch6pro,31,51,1,Screen 1,continueButton,response_rating_scale_likert_active,1905,NA,NA,Somewhat Disagree,1,0,1,0,NA,NA,NA,NA,1,statements,Im protecting myself and my family.,1,17/06/2021 12:48,17/06/2021 12:58,IP Address,For (I feel positively about the vaccines),Rarely,Rarely,54,Female,NA,GCSEs,control,55,1,For,For
54,1659957558735,08/08/2022 11:19:18,1659957558661,1,08/08/2022 12:19:18,94118,2,task-s8ki,NA,23522774,6893809,NA,complete,NA,62f0efed05ade071958410dd,computer,Desktop or Laptop,Linux i686,Firefox 103.0,1429x893,1429x702,NA,ITT Ratings,2,against,6,NA,NA,NA,NA,ACCEPT,NA,NA,NA,NA,NA,batch6pro,batch6pro,63,52,1,Screen 1,continueButton,response_rating_scale_likert_active,1665,NA,NA,Somewhat Agree,1,0,1,0,NA,NA,NA,NA,1,statements,Want to get back to normal life,1,17/06/2021 12:54,17/06/2021 12:59,IP Address,For (I feel positively about the vaccines),Most months,Most months,31,Female,NA,"Undergraduate degree (BSc, BA)",choice,60,3,For,For
55,1659957563196,08/08/2022 11:19:23,1659957563114,1,08/08/2022 12:19:23,94118,2,task-s8ki,NA,23522774,6893809,NA,complete,NA,62f0efed05ade071958410dd,computer,Desktop or Laptop,Linux i686,Firefox 103.0,1429x893,1429x702,NA,ITT Ratings,2,against,6,NA,NA,NA,NA,ACCEPT,NA,NA,NA,NA,NA,batch6pro,batch6pro,27,53,1,Screen 1,continueButton,response_rating_scale_likert_active,4414,NA,NA,Disagree,1,0,1,0,NA,NA,NA,NA,1,statements,More people vaccinated less chance of mutations in the virus,1,17/06/2021 12:49,17/06/2021 12:58,IP Address,For (I feel positively about the vaccines),Rarely,Most weeks,56,Male,NA,"GCSEs,Vocational Training / Apprenticeship",choice,54,3,For,For
56,1659957565729,08/08/2022 11:19:25,1659957565646,1,08/08/2022 12:19:25,94118,2,task-s8ki,NA,23522774,6893809,NA,complete,NA,62f0efed05ade071958410dd,computer,Desktop or Laptop,Linux i686,Firefox 103.0,1429x893,1429x702,NA,ITT Ratings,2,against,6,NA,NA,NA,NA,ACCEPT,NA,NA,NA,NA,NA,batch6pro,batch6pro,17,54,1,Screen 1,continueButton,response_rating_scale_likert_active,2494,NA,NA,Agree,1,0,1,0,NA,NA,NA,NA,1,statements,I feel like I're being forced.,1,17/06/2021 12:42,17/06/2021 12:58,IP Address,For (I feel positively about the vaccines),Most weeks,Most months,25,Female,NA,Vocational Training / Apprenticeship,choice,53,2,For,Against
57,1659957567553,08/08/2022 11:19:27,1659957567449,1,08/08/2022 12:19:27,94118,2,task-s8ki,NA,23522774,6893809,NA,complete,NA,62f0efed05ade071958410dd,computer,Desktop or Laptop,Linux i686,Firefox 103.0,1429x893,1429x702,NA,ITT Ratings,2,against,6,NA,NA,NA,NA,ACCEPT,NA,NA,NA,NA,NA,batch6pro,batch6pro,38,55,1,Screen 1,continueButton,response_rating_scale_likert_active,1763,NA,NA,Neither Agree nor Disagree,1,0,1,0,NA,NA,NA,NA,1,statements,So society can get back to normal more quickly,1,17/06/2021 12:47,17/06/2021 12:58,IP Address,For (I feel positively about the vaccines),Never,A few times a year,35,Female,NA,"Postgraduate degree (MSc, MA, MPhil)",choice,56,2,For,For
58,1659957569650,08/08/2022 11:19:29,1659957569573,1,08/08/2022 12:19:29,94118,2,task-s8ki,NA,23522774,6893809,NA,complete,NA,62f0efed05ade071958410dd,computer,Desktop or Laptop,Linux i686,Firefox 103.0,1429x893,1429x702,NA,ITT Ratings,2,against,6,NA,NA,NA,NA,ACCEPT,NA,NA,NA,NA,NA,batch6pro,batch6pro,56,56,1,Screen 1,continueButton,response_rating_scale_likert_active,2083,NA,NA,Disagree,1,0,1,0,NA,NA,NA,NA,1,statements,to protect others around me,1,17/06/2021 12:55,17/06/2021 12:59,IP Address,For (I feel positively about the vaccines),Most weeks,Most months,41,Female,NA,"Postgraduate degree (MSc, MA, MPhil)",control,59,2,For,For
59,1659957571667,08/08/2022 11:19:31,1659957571597,1,08/08/2022 12:19:31,94118,2,task-s8ki,NA,23522774,6893809,NA,complete,NA,62f0efed05ade071958410dd,computer,Desktop or Laptop,Linux i686,Firefox 103.0,1429x893,1429x702,NA,ITT Ratings,2,against,6,NA,NA,NA,NA,ACCEPT,NA,NA,NA,NA,NA,batch6pro,batch6pro,60,57,1,Screen 1,continueButton,response_rating_scale_likert_active,1983,NA,NA,Disagree,1,0,1,0,NA,NA,NA,NA,1,statements,Don't believe in covid,1,17/06/2021 12:54,17/06/2021 12:59,IP Address,For (I feel positively about the vaccines),Most months,Most months,31,Female,NA,"Undergraduate degree (BSc, BA)",choice,60,3,For,Against
60,1659957576056,08/08/2022 11:19:36,1659957575988,1,08/08/2022 12:19:35,94118,2,task-s8ki,NA,23522774,6893809,NA,complete,NA,62f0efed05ade071958410dd,computer,Desktop or Laptop,Linux i686,Firefox 103.0,1429x893,1429x702,NA,ITT Ratings,2,against,6,NA,NA,NA,NA,ACCEPT,NA,NA,NA,NA,NA,batch6pro,batch6pro,19,58,1,Screen 1,continueButton,response_rating_scale_likert_active,4351,NA,NA,Somewhat Agree,1,0,1,0,NA,NA,NA,NA,1,statements,They started developing it when covid first started.,1,17/06/2021 12:42,17/06/2021 12:58,IP Address,For (I feel positively about the vaccines),Most weeks,Most months,25,Female,NA,Vocational Training / Apprenticeship,choice,53,1,For,For
61,1659957579379,08/08/2022 11:19:39,1659957579262,1,08/08/2022 12:19:39,94118,2,task-s8ki,NA,23522774,6893809,NA,complete,NA,62f0efed05ade071958410dd,computer,Desktop or Laptop,Linux i686,Firefox 103.0,1429x893,1429x702,NA,ITT Ratings,2,against,6,NA,NA,NA,NA,ACCEPT,NA,NA,NA,NA,NA,batch6pro,batch6pro,26,59,1,Screen 1,continueButton,response_rating_scale_likert_active,3235,NA,NA,Strongly Disagree,1,0,1,0,NA,NA,NA,NA,1,statements,More people vaccinated builds herd immunity,1,17/06/2021 12:49,17/06/2021 12:58,IP Address,For (I feel positively about the vaccines),Rarely,Most weeks,56,Male,NA,"GCSEs,Vocational Training / Apprenticeship",choice,54,2,For,For
62,1659957581370,08/08/2022 11:19:41,1659957581310,1,08/08/2022 12:19:41,94118,2,task-s8ki,NA,23522774,6893809,NA,complete,NA,62f0efed05ade071958410dd,computer,Desktop or Laptop,Linux i686,Firefox 103.0,1429x893,1429x702,NA,ITT Ratings,2,against,6,NA,NA,NA,NA,ACCEPT,NA,NA,NA,NA,NA,batch6pro,batch6pro,47,60,1,Screen 1,continueButton,response_rating_scale_likert_active,2011,NA,NA,Agree,1,0,1,0,NA,NA,NA,NA,1,statements,Not enough research has gone into the vaccines.,1,17/06/2021 12:49,17/06/2021 12:59,IP Address,For (I feel positively about the vaccines),Most months,A few times a year,45,Male,NA,Vocational Training / Apprenticeship,control,58,2,For,Against
63,1659957583753,08/08/2022 11:19:43,1659957583536,1,08/08/2022 12:19:43,94118,2,task-s8ki,NA,23522774,6893809,NA,complete,NA,62f0efed05ade071958410dd,computer,Desktop or Laptop,Linux i686,Firefox 103.0,1429x893,1429x702,NA,ITT Ratings,2,against,6,NA,NA,NA,NA,ACCEPT,NA,NA,NA,NA,NA,batch6pro,batch6pro,10,61,1,Screen 1,continueButton,response_rating_scale_likert_active,2191,NA,NA,Neither Agree nor Disagree,1,0,1,0,NA,NA,NA,NA,1,statements,"It affects my DNA, i don't want anything that will change my DNA",1,17/06/2021 12:51,17/06/2021 12:58,IP Address,For (I feel positively about the vaccines),Most weeks,Most days,33,Male,NA,"Undergraduate degree (BSc, BA)",choice,52,1,For,Against
64,1659957585154,08/08/2022 11:19:45,1659957585089,1,08/08/2022 12:19:45,94118,2,task-s8ki,NA,23522774,6893809,NA,complete,NA,62f0efed05ade071958410dd,computer,Desktop or Laptop,Linux i686,Firefox 103.0,1429x893,1429x702,NA,ITT Ratings,2,against,6,NA,NA,NA,NA,ACCEPT,NA,NA,NA,NA,NA,batch6pro,batch6pro,51,62,1,Screen 1,continueButton,response_rating_scale_likert_active,1521,NA,NA,Somewhat Disagree,1,0,1,0,NA,NA,NA,NA,1,statements,Good for the community.,1,17/06/2021 12:49,17/06/2021 12:59,IP Address,For (I feel positively about the vaccines),Most months,A few times a year,45,Male,NA,Vocational Training / Apprenticeship,control,58,3,For,For
65,1659957585262,08/08/2022 11:19:45,1659957585134,1,08/08/2022 12:19:45,94118,2,task-s8ki,NA,23522774,6893809,NA,complete,NA,62f0efed05ade071958410dd,computer,Desktop or Laptop,Linux i686,Firefox 103.0,1429x893,1429x702,NA,ITT Ratings,2,against,6,NA,NA,NA,NA,ACCEPT,NA,NA,NA,NA,NA,batch6pro,NA,NA,END TASK,NA,NA,NA,NA,253651,NA,NA,NA,NA,0,1,0,NA,NA,NA,NA,NA,NA,NA,NA,NA,NA,NA,NA,NA,NA,NA,NA,NA,NA,NA,NA,NA,NA,NA
1,1659957339736,08/08/2022 11:15:39,1659957339644,1,08/08/2022 12:15:39,94118,2,task-s8ki,NA,23522776,6893818,NA,complete,NA,62f0f0368195d378dc4ba1fb,mobile,Apple iPhone,iOS 15.6,Mobile Safari 15.6,428x926,832x299,NA,ITT Ratings,2,against,6,NA,NA,NA,NA,ACCEPT,NA,NA,NA,NA,NA,batch6pro,NA,NA,BEGIN TASK,NA,NA,NA,NA,NA,NA,NA,NA,NA,0,1,0,NA,NA,NA,NA,NA,NA,NA,NA,NA,NA,NA,NA,NA,NA,NA,NA,NA,NA,NA,NA,NA,NA,NA
2,1659957346088,08/08/2022 11:15:46,1659957346042,1,08/08/2022 12:15:46,94118,2,task-s8ki,NA,23522776,6893818,NA,complete,NA,62f0f0368195d378dc4ba1fb,mobile,Apple iPhone,iOS 15.6,Mobile Safari 15.6,428x926,832x299,NA,ITT Ratings,2,against,6,NA,NA,NA,NA,ACCEPT,NA,NA,NA,NA,NA,batch6pro,batch6pro,1,1,1,Screen 1,advancementZone,continue_button,6368,NA,NA,NA,NA,0,1,0,NA,NA,NA,NA,NA,instructions,NA,NA,NA,NA,NA,NA,NA,NA,NA,NA,NA,NA,NA,NA,NA,NA,NA
3,1659957351144,08/08/2022 11:15:51,1659957351116,1,08/08/2022 12:15:51,94118,2,task-s8ki,NA,23522776,6893818,NA,complete,NA,62f0f0368195d378dc4ba1fb,mobile,Apple iPhone,iOS 15.6,Mobile Safari 15.6,428x926,832x299,NA,ITT Ratings,2,against,6,NA,NA,NA,NA,ACCEPT,NA,NA,NA,NA,NA,batch6pro,batch6pro,4,1,1,Screen 1,continueButton,response_rating_scale_likert_active,5055,NA,NA,Agree,1,0,1,0,NA,NA,NA,NA,1,statements,it has not been tested enough so i don't know its safe,1,17/06/2021 12:51,17/06/2021 12:57,IP Address,For (I feel positively about the vaccines),A few times a year,Most months,30,Female,NA,"Undergraduate degree (BSc, BA)",choice,51,1,For,Against
4,1659957355930,08/08/2022 11:15:55,1659957355899,1,08/08/2022 12:15:55,94118,2,task-s8ki,NA,23522776,6893818,NA,complete,NA,62f0f0368195d378dc4ba1fb,mobile,Apple iPhone,iOS 15.6,Mobile Safari 15.6,428x926,832x299,NA,ITT Ratings,2,against,6,NA,NA,NA,NA,ACCEPT,NA,NA,NA,NA,NA,batch6pro,batch6pro,43,2,1,Screen 1,continueButton,response_rating_scale_likert_active,4767,NA,NA,Somewhat Agree,1,0,1,0,NA,NA,NA,NA,1,statements,The vaccines are produced following strict guidelines,1,17/06/2021 12:44,17/06/2021 12:58,IP Address,For (I feel positively about the vaccines),A few times a year,Most months,49,Female,NA,"Undergraduate degree (BSc, BA)",control,57,1,For,For
5,1659957358955,08/08/2022 11:15:58,1659957358932,1,08/08/2022 12:15:58,94118,2,task-s8ki,NA,23522776,6893818,NA,complete,NA,62f0f0368195d378dc4ba1fb,mobile,Apple iPhone,iOS 15.6,Mobile Safari 15.6,428x926,832x299,NA,ITT Ratings,2,against,6,NA,NA,NA,NA,ACCEPT,NA,NA,NA,NA,NA,batch6pro,batch6pro,20,3,1,Screen 1,continueButton,response_rating_scale_likert_active,3012.0000000000036,NA,NA,Neither Agree nor Disagree,1,0,1,0,NA,NA,NA,NA,1,statements,There's no evidence of infertility.,1,17/06/2021 12:42,17/06/2021 12:58,IP Address,For (I feel positively about the vaccines),Most weeks,Most months,25,Female,NA,Vocational Training / Apprenticeship,choice,53,2,For,For
6,1659957362368,08/08/2022 11:16:02,1659957362335,1,08/08/2022 12:16:02,94118,2,task-s8ki,NA,23522776,6893818,NA,complete,NA,62f0f0368195d378dc4ba1fb,mobile,Apple iPhone,iOS 15.6,Mobile Safari 15.6,428x926,832x299,NA,ITT Ratings,2,against,6,NA,NA,NA,NA,ACCEPT,NA,NA,NA,NA,NA,batch6pro,batch6pro,3,4,1,Screen 1,continueButton,response_rating_scale_likert_active,3382,NA,NA,Somewhat Disagree,1,0,1,0,NA,NA,NA,NA,1,statements,We would like to check you are reading each argument carefully. Please select 'Somewhat Disagree' for this answer,1,NA,NA,NA,NA,NA,NA,NA,NA,NA,NA,NA,NA,check2,NA,NA
7,1659957365545,08/08/2022 11:16:05,1659957365515,1,08/08/2022 12:16:05,94118,2,task-s8ki,NA,23522776,6893818,NA,complete,NA,62f0f0368195d378dc4ba1fb,mobile,Apple iPhone,iOS 15.6,Mobile Safari 15.6,428x926,832x299,NA,ITT Ratings,2,against,6,NA,NA,NA,NA,ACCEPT,NA,NA,NA,NA,NA,batch6pro,batch6pro,14,5,1,Screen 1,continueButton,response_rating_scale_likert_active,3153,NA,NA,Disagree,1,0,1,0,NA,NA,NA,NA,1,statements,"It helps protect me and others around me, having a reducing effect on transmission rates",1,17/06/2021 12:51,17/06/2021 12:58,IP Address,For (I feel positively about the vaccines),Most weeks,Most days,33,Male,NA,"Undergraduate degree (BSc, BA)",choice,52,2,For,For
8,1659957367531,08/08/2022 11:16:07,1659957367500,1,08/08/2022 12:16:07,94118,2,task-s8ki,NA,23522776,6893818,NA,complete,NA,62f0f0368195d378dc4ba1fb,mobile,Apple iPhone,iOS 15.6,Mobile Safari 15.6,428x926,832x299,NA,ITT Ratings,2,against,6,NA,NA,NA,NA,ACCEPT,NA,NA,NA,NA,NA,batch6pro,batch6pro,25,6,1,Screen 1,continueButton,response_rating_scale_likert_active,1966,NA,NA,Strongly Disagree,1,0,1,0,NA,NA,NA,NA,1,statements,Vaccination keeps hospitalisation down,1,17/06/2021 12:49,17/06/2021 12:58,IP Address,For (I feel positively about the vaccines),Rarely,Most weeks,56,Male,NA,"GCSEs,Vocational Training / Apprenticeship",choice,54,1,For,For
9,1659957372572,08/08/2022 11:16:12,1659957372529,1,08/08/2022 12:16:12,94118,2,task-s8ki,NA,23522776,6893818,NA,complete,NA,62f0f0368195d378dc4ba1fb,mobile,Apple iPhone,iOS 15.6,Mobile Safari 15.6,428x926,832x299,NA,ITT Ratings,2,against,6,NA,NA,NA,NA,ACCEPT,NA,NA,NA,NA,NA,batch6pro,batch6pro,47,7,1,Screen 1,continueButton,response_rating_scale_likert_active,5013,NA,NA,Agree,1,0,1,0,NA,NA,NA,NA,1,statements,Not enough research has gone into the vaccines.,1,17/06/2021 12:49,17/06/2021 12:59,IP Address,For (I feel positively about the vaccines),Most months,A few times a year,45,Male,NA,Vocational Training / Apprenticeship,control,58,2,For,Against
10,1659957377954,08/08/2022 11:16:17,1659957377926,1,08/08/2022 12:16:17,94118,2,task-s8ki,NA,23522776,6893818,NA,complete,NA,62f0f0368195d378dc4ba1fb,mobile,Apple iPhone,iOS 15.6,Mobile Safari 15.6,428x926,832x299,NA,ITT Ratings,2,against,6,NA,NA,NA,NA,ACCEPT,NA,NA,NA,NA,NA,batch6pro,batch6pro,37,8,1,Screen 1,continueButton,response_rating_scale_likert_active,5384,NA,NA,Disagree,1,0,1,0,NA,NA,NA,NA,1,statements,"To protect myself, family and friends from getting Covid",1,17/06/2021 12:47,17/06/2021 12:58,IP Address,For (I feel positively about the vaccines),Never,A few times a year,35,Female,NA,"Postgraduate degree (MSc, MA, MPhil)",choice,56,1,For,For
11,1659957380040,08/08/2022 11:16:20,1659957380008,1,08/08/2022 12:16:20,94118,2,task-s8ki,NA,23522776,6893818,NA,complete,NA,62f0f0368195d378dc4ba1fb,mobile,Apple iPhone,iOS 15.6,Mobile Safari 15.6,428x926,832x299,NA,ITT Ratings,2,against,6,NA,NA,NA,NA,ACCEPT,NA,NA,NA,NA,NA,batch6pro,batch6pro,49,9,1,Screen 1,continueButton,response_rating_scale_likert_active,2060,NA,NA,Strongly Disagree,1,0,1,0,NA,NA,NA,NA,1,statements,Prevents me from getting the virus.,1,17/06/2021 12:49,17/06/2021 12:59,IP Address,For (I feel positively about the vaccines),Most months,A few times a year,45,Male,NA,Vocational Training / Apprenticeship,control,58,1,For,For
12,1659957386035,08/08/2022 11:16:26,1659957386009,1,08/08/2022 12:16:26,94118,2,task-s8ki,NA,23522776,6893818,NA,complete,NA,62f0f0368195d378dc4ba1fb,mobile,Apple iPhone,iOS 15.6,Mobile Safari 15.6,428x926,832x299,NA,ITT Ratings,2,against,6,NA,NA,NA,NA,ACCEPT,NA,NA,NA,NA,NA,batch6pro,batch6pro,46,10,1,Screen 1,continueButton,response_rating_scale_likert_active,5977,NA,NA,Agree,1,0,1,0,NA,NA,NA,NA,1,statements,I don't believe in the vaccines.,1,17/06/2021 12:49,17/06/2021 12:59,IP Address,For (I feel positively about the vaccines),Most months,A few times a year,45,Male,NA,Vocational Training / Apprenticeship,control,58,1,For,Against
13,1659957388725,08/08/2022 11:16:28,1659957388692,1,08/08/2022 12:16:28,94118,2,task-s8ki,NA,23522776,6893818,NA,complete,NA,62f0f0368195d378dc4ba1fb,mobile,Apple iPhone,iOS 15.6,Mobile Safari 15.6,428x926,832x299,NA,ITT Ratings,2,against,6,NA,NA,NA,NA,ACCEPT,NA,NA,NA,NA,NA,batch6pro,batch6pro,44,11,1,Screen 1,continueButton,response_rating_scale_likert_active,2667,NA,NA,Strongly Disagree,1,0,1,0,NA,NA,NA,NA,1,statements,They are effective at protecting against other variants,1,17/06/2021 12:44,17/06/2021 12:58,IP Address,For (I feel positively about the vaccines),A few times a year,Most months,49,Female,NA,"Undergraduate degree (BSc, BA)",control,57,2,For,For
14,1659957392995,08/08/2022 11:16:32,1659957392975,1,08/08/2022 12:16:32,94118,2,task-s8ki,NA,23522776,6893818,NA,complete,NA,62f0f0368195d378dc4ba1fb,mobile,Apple iPhone,iOS 15.6,Mobile Safari 15.6,428x926,832x299,NA,ITT Ratings,2,against,6,NA,NA,NA,NA,ACCEPT,NA,NA,NA,NA,NA,batch6pro,batch6pro,35,12,1,Screen 1,continueButton,response_rating_scale_likert_active,4265,NA,NA,Neither Agree nor Disagree,1,0,1,0,NA,NA,NA,NA,1,statements,Everyone at risk has now had a vaccine,1,17/06/2021 12:47,17/06/2021 12:58,IP Address,For (I feel positively about the vaccines),Never,A few times a year,35,Female,NA,"Postgraduate degree (MSc, MA, MPhil)",choice,56,2,For,Against
15,1659957397301,08/08/2022 11:16:37,1659957397275,1,08/08/2022 12:16:37,94118,2,task-s8ki,NA,23522776,6893818,NA,complete,NA,62f0f0368195d378dc4ba1fb,mobile,Apple iPhone,iOS 15.6,Mobile Safari 15.6,428x926,832x299,NA,ITT Ratings,2,against,6,NA,NA,NA,NA,ACCEPT,NA,NA,NA,NA,NA,batch6pro,batch6pro,42,13,1,Screen 1,continueButton,response_rating_scale_likert_active,4282,NA,NA,Agree,1,0,1,0,NA,NA,NA,NA,1,statements,They only tackle one variant which means they wont be effective for other variants,1,17/06/2021 12:44,17/06/2021 12:58,IP Address,For (I feel positively about the vaccines),A few times a year,Most months,49,Female,NA,"Undergraduate degree (BSc, BA)",control,57,3,For,Against
16,1659957399586,08/08/2022 11:16:39,1659957399559,1,08/08/2022 12:16:39,94118,2,task-s8ki,NA,23522776,6893818,NA,complete,NA,62f0f0368195d378dc4ba1fb,mobile,Apple iPhone,iOS 15.6,Mobile Safari 15.6,428x926,832x299,NA,ITT Ratings,2,against,6,NA,NA,NA,NA,ACCEPT,NA,NA,NA,NA,NA,batch6pro,batch6pro,53,14,1,Screen 1,continueButton,response_rating_scale_likert_active,2271.0000000000073,NA,NA,Agree,1,0,1,0,NA,NA,NA,NA,1,statements,I don't believe there was enough research done on vacines,1,17/06/2021 12:55,17/06/2021 12:59,IP Address,For (I feel positively about the vaccines),Most weeks,Most months,41,Female,NA,"Postgraduate degree (MSc, MA, MPhil)",control,59,2,For,Against
17,1659957401957,08/08/2022 11:16:41,1659957401927,1,08/08/2022 12:16:41,94118,2,task-s8ki,NA,23522776,6893818,NA,complete,NA,62f0f0368195d378dc4ba1fb,mobile,Apple iPhone,iOS 15.6,Mobile Safari 15.6,428x926,832x345,NA,ITT Ratings,2,against,6,NA,NA,NA,NA,ACCEPT,NA,NA,NA,NA,NA,batch6pro,batch6pro,23,15,1,Screen 1,continueButton,response_rating_scale_likert_active,2355.0000000000146,NA,NA,Neither Agree nor Disagree,1,0,1,0,NA,NA,NA,NA,1,statements,Don't trust government,1,17/06/2021 12:49,17/06/2021 12:58,IP Address,For (I feel positively about the vaccines),Rarely,Most weeks,56,Male,NA,"GCSEs,Vocational Training / Apprenticeship",choice,54,2,For,Against
18,1659957405817,08/08/2022 11:16:45,1659957405759,1,08/08/2022 12:16:45,94118,2,task-s8ki,NA,23522776,6893818,NA,complete,NA,62f0f0368195d378dc4ba1fb,mobile,Apple iPhone,iOS 15.6,Mobile Safari 15.6,428x926,832x345,NA,ITT Ratings,2,against,6,NA,NA,NA,NA,ACCEPT,NA,NA,NA,NA,NA,batch6pro,batch6pro,24,16,1,Screen 1,continueButton,response_rating_scale_likert_active,3811,NA,NA,Strongly Agree,1,0,1,0,NA,NA,NA,NA,1,statements,Long term side effects not known,1,17/06/2021 12:49,17/06/2021 12:58,IP Address,For (I feel positively about the vaccines),Rarely,Most weeks,56,Male,NA,"GCSEs,Vocational Training / Apprenticeship",choice,54,3,For,Against
19,1659957409047,08/08/2022 11:16:49,1659957409022,1,08/08/2022 12:16:49,94118,2,task-s8ki,NA,23522776,6893818,NA,complete,NA,62f0f0368195d378dc4ba1fb,mobile,Apple iPhone,iOS 15.6,Mobile Safari 15.6,428x926,832x345,NA,ITT Ratings,2,against,6,NA,NA,NA,NA,ACCEPT,NA,NA,NA,NA,NA,batch6pro,batch6pro,11,17,1,Screen 1,continueButton,response_rating_scale_likert_active,3245,NA,NA,Strongly Agree,1,0,1,0,NA,NA,NA,NA,1,statements,"It is the government controlling us, we deserve a choice.",1,17/06/2021 12:51,17/06/2021 12:58,IP Address,For (I feel positively about the vaccines),Most weeks,Most days,33,Male,NA,"Undergraduate degree (BSc, BA)",choice,52,2,For,Against
20,1659957412270,08/08/2022 11:16:52,1659957412223,1,08/08/2022 12:16:52,94118,2,task-s8ki,NA,23522776,6893818,NA,complete,NA,62f0f0368195d378dc4ba1fb,mobile,Apple iPhone,iOS 15.6,Mobile Safari 15.6,428x926,832x345,NA,ITT Ratings,2,against,6,NA,NA,NA,NA,ACCEPT,NA,NA,NA,NA,NA,batch6pro,batch6pro,45,18,1,Screen 1,continueButton,response_rating_scale_likert_active,3186,NA,NA,Strongly Disagree,1,0,1,0,NA,NA,NA,NA,1,statements,The more people that are vaccinated the more successful we will be of bringing covid under control and get our lives back to normal,1,17/06/2021 12:44,17/06/2021 12:58,IP Address,For (I feel positively about the vaccines),A few times a year,Most months,49,Female,NA,"Undergraduate degree (BSc, BA)",control,57,3,For,For
