Event.Index,UTC.Timestamp,UTC.Date,Local.Timestamp,Local.Timezone,Local.Date,Experiment.ID,Experiment.Version,Tree.Node.Key,Repeat.Key,Schedule.ID,Participant.Private.ID,Participant.Starting.Group,Participant.Status,Participant.Completion.Code,Participant.External.Session.ID,Participant.Device.Type,Participant.Device,Participant.OS,Participant.Browser,Participant.Monitor.Size,Participant.Viewport.Size,Checkpoint,Task.Name,Task.Version,branch.69an,randomiser.8vg2,quota.bqtt,quota.rycs,quota.wtfi,quota.usve,quota.zgic,quota.f3yz,quota.r9vy,quota.tfqq,quota.3dga,quota.dtj6,Spreadsheet,Spreadsheet.Name,Spreadsheet.Row,Trial.Number,Screen.Number,Screen.Name,Zone.Name,Zone.Type,Reaction.Time,Reaction.Onset,Response.Type,Response,Attempt,Correct,Incorrect,Dishonest,X.Coordinate,Y.Coordinate,Timed.Out,randomise_blocks,randomise_trials,display,Arguments,ShowProgressBar,StartDate,EndDate,Status,prolif_check,discuss_1,read_1,age,gender,gender_4_TEXT,edu,condition,ID,arg_ID,Position,Arg_Position
1,1659954823233,08/08/2022 10:33:43,1659954823026,1,08/08/2022 11:33:43,94118,2,task-ig1e,NA,23522100,6893608,NA,complete,NA,62f0e66c107d57a541a85835,mobile,Apple iPhone,iOS 15.6,Mobile Safari 15.6,375x812,724x292,NA,ITT Ratings,2,against,3,NA,ACCEPT,NA,NA,NA,NA,NA,NA,NA,NA,batch3pro,NA,NA,BEGIN TASK,NA,NA,NA,NA,NA,NA,NA,NA,NA,0,1,0,NA,NA,NA,NA,NA,NA,NA,NA,NA,NA,NA,NA,NA,NA,NA,NA,NA,NA,NA,NA,NA,NA,NA
2,1659954827724,08/08/2022 10:33:47,1659954827550,1,08/08/2022 11:33:47,94118,2,task-ig1e,NA,23522100,6893608,NA,complete,NA,62f0e66c107d57a541a85835,mobile,Apple iPhone,iOS 15.6,Mobile Safari 15.6,375x812,724x292,NA,ITT Ratings,2,against,3,NA,ACCEPT,NA,NA,NA,NA,NA,NA,NA,NA,batch3pro,batch3pro,1,1,1,Screen 1,advancementZone,continue_button,4486.000000000002,NA,NA,NA,NA,0,1,0,NA,NA,NA,NA,NA,instructions,NA,NA,NA,NA,NA,NA,NA,NA,NA,NA,NA,NA,NA,NA,NA,NA,NA
3,1659954832906,08/08/2022 10:33:52,1659954832712,1,08/08/2022 11:33:52,94118,2,task-ig1e,NA,23522100,6893608,NA,complete,NA,62f0e66c107d57a541a85835,mobile,Apple iPhone,iOS 15.6,Mobile Safari 15.6,375x812,724x292,NA,ITT Ratings,2,against,3,NA,ACCEPT,NA,NA,NA,NA,NA,NA,NA,NA,batch3pro,batch3pro,57,1,1,Screen 1,continueButton,response_rating_scale_likert_active,5137,NA,NA,Somewhat Agree,1,0,1,0,NA,NA,NA,NA,1,statements,I want to follow the government advice,1,17/06/2021 12:41,17/06/2021 12:51,IP Address,For (I feel positively about the vaccines),Rarely,Once or twice a year,32,Male,NA,"Undergraduate degree (BSc, BA)",control,29,3,For,For
4,1659954840321,08/08/2022 10:34:00,1659954840115,1,08/08/2022 11:34:00,94118,2,task-ig1e,NA,23522100,6893608,NA,complete,NA,62f0e66c107d57a541a85835,mobile,Apple iPhone,iOS 15.6,Mobile Safari 15.6,375x812,724x292,NA,ITT Ratings,2,against,3,NA,ACCEPT,NA,NA,NA,NA,NA,NA,NA,NA,batch3pro,batch3pro,7,2,1,Screen 1,continueButton,response_rating_scale_likert_active,7382,NA,NA,Agree,1,0,1,0,NA,NA,NA,NA,1,statements,I want to get back to some form of normality,1,17/06/2021 12:39,17/06/2021 12:46,IP Address,For (I feel positively about the vaccines),Most months,Rarely,34,Female,NA,"Undergraduate degree (BSc, BA)",control,21,1,For,For
5,1659954844235,08/08/2022 10:34:04,1659954844044,1,08/08/2022 11:34:04,94118,2,task-ig1e,NA,23522100,6893608,NA,complete,NA,62f0e66c107d57a541a85835,mobile,Apple iPhone,iOS 15.6,Mobile Safari 15.6,375x812,724x292,NA,ITT Ratings,2,against,3,NA,ACCEPT,NA,NA,NA,NA,NA,NA,NA,NA,batch3pro,batch3pro,46,3,1,Screen 1,continueButton,response_rating_scale_likert_active,3904,NA,NA,Somewhat Agree,1,0,1,0,NA,NA,NA,NA,1,statements,The vaccine has been developed too quickly and has not been properly tested over a long period of time.,1,17/06/2021 12:28,17/06/2021 12:51,IP Address,For (I feel positively about the vaccines),Rarely,Most weeks,41,Male,NA,Doctorate (PhD),control,28,1,For,Against
6,1659954849299,08/08/2022 10:34:09,1659954849096,1,08/08/2022 11:34:09,94118,2,task-ig1e,NA,23522100,6893608,NA,complete,NA,62f0e66c107d57a541a85835,mobile,Apple iPhone,iOS 15.6,Mobile Safari 15.6,375x812,724x292,NA,ITT Ratings,2,against,3,NA,ACCEPT,NA,NA,NA,NA,NA,NA,NA,NA,batch3pro,batch3pro,28,4,1,Screen 1,continueButton,response_rating_scale_likert_active,5028,NA,NA,Neither Agree nor Disagree,1,0,1,0,NA,NA,NA,NA,1,statements,It can cause long term damage like blood clots,1,17/06/2021 12:27,17/06/2021 12:49,IP Address,For (I feel positively about the vaccines),Rarely,Most weeks,22,Male,NA,"GCSEs,Vocational Training / Apprenticeship",choice,25,1,For,Against
7,1659954852467,08/08/2022 10:34:12,1659954852279,1,08/08/2022 11:34:12,94118,2,task-ig1e,NA,23522100,6893608,NA,complete,NA,62f0e66c107d57a541a85835,mobile,Apple iPhone,iOS 15.6,Mobile Safari 15.6,375x812,724x292,NA,ITT Ratings,2,against,3,NA,ACCEPT,NA,NA,NA,NA,NA,NA,NA,NA,batch3pro,batch3pro,38,5,1,Screen 1,continueButton,response_rating_scale_likert_active,3153,NA,NA,Strongly Disagree,1,0,1,0,NA,NA,NA,NA,1,statements,It should be a requirement and safeguards public,1,17/06/2021 12:44,17/06/2021 12:49,IP Address,For (I feel positively about the vaccines),A few times a year,Most weeks,29,Male,NA,"Undergraduate degree (BSc, BA)",control,26,2,For,For
8,1659954856685,08/08/2022 10:34:16,1659954856493,1,08/08/2022 11:34:16,94118,2,task-ig1e,NA,23522100,6893608,NA,complete,NA,62f0e66c107d57a541a85835,mobile,Apple iPhone,iOS 15.6,Mobile Safari 15.6,375x812,724x292,NA,ITT Ratings,2,against,3,NA,ACCEPT,NA,NA,NA,NA,NA,NA,NA,NA,batch3pro,batch3pro,56,6,1,Screen 1,continueButton,response_rating_scale_likert_active,4189,NA,NA,Somewhat Agree,1,0,1,0,NA,NA,NA,NA,1,statements,"I want to protect others from COVID-19, especially those who can't receive a vaccine",1,17/06/2021 12:41,17/06/2021 12:51,IP Address,For (I feel positively about the vaccines),Rarely,Once or twice a year,32,Male,NA,"Undergraduate degree (BSc, BA)",control,29,2,For,For
9,1659954873688,08/08/2022 10:34:33,1659954873506,1,08/08/2022 11:34:33,94118,2,task-ig1e,NA,23522100,6893608,NA,complete,NA,62f0e66c107d57a541a85835,mobile,Apple iPhone,iOS 15.6,Mobile Safari 15.6,375x812,724x292,NA,ITT Ratings,2,against,3,NA,ACCEPT,NA,NA,NA,NA,NA,NA,NA,NA,batch3pro,batch3pro,22,7,1,Screen 1,continueButton,response_rating_scale_likert_active,16980,NA,NA,Somewhat Agree,1,0,1,0,NA,NA,NA,NA,1,statements,I do not think the vaccines are safe.,1,17/06/2021 12:39,17/06/2021 12:47,IP Address,For (I feel positively about the vaccines),Rarely,A few times a year,22,Male,NA,"Undergraduate degree (BSc, BA)",choice,24,1,For,Against
10,1659954874832,08/08/2022 10:34:34,1659954874649,1,08/08/2022 11:34:34,94118,2,task-ig1e,NA,23522100,6893608,NA,complete,NA,62f0e66c107d57a541a85835,mobile,Apple iPhone,iOS 15.6,Mobile Safari 15.6,375x812,724x292,NA,ITT Ratings,2,against,3,NA,ACCEPT,NA,NA,NA,NA,NA,NA,NA,NA,batch3pro,batch3pro,42,8,1,Screen 1,continueButton,response_rating_scale_likert_active,1124,NA,NA,Somewhat Agree,1,0,1,0,NA,NA,NA,NA,1,statements,The vaccine has been rushed.,1,17/06/2021 12:43,17/06/2021 12:51,IP Address,For (I feel positively about the vaccines),Rarely,Rarely,32,Female,NA,"Postgraduate degree (MSc, MA, MPhil)",choice,27,3,For,Against
11,1659954876988,08/08/2022 10:34:36,1659954876798,1,08/08/2022 11:34:36,94118,2,task-ig1e,NA,23522100,6893608,NA,complete,NA,62f0e66c107d57a541a85835,mobile,Apple iPhone,iOS 15.6,Mobile Safari 15.6,375x812,724x292,NA,ITT Ratings,2,against,3,NA,ACCEPT,NA,NA,NA,NA,NA,NA,NA,NA,batch3pro,batch3pro,20,9,1,Screen 1,continueButton,response_rating_scale_likert_active,2126,NA,NA,Somewhat Agree,1,0,1,0,NA,NA,NA,NA,1,statements,I feel it is my duty to ensure I am vaccinated as part of halting ongoing transmission.,1,17/06/2021 12:31,17/06/2021 12:47,IP Address,For (I feel positively about the vaccines),Rarely,Most weeks,36,Male,NA,"Undergraduate degree (BSc, BA)",control,23,2,For,For
12,1659954878995,08/08/2022 10:34:38,1659954878812,1,08/08/2022 11:34:38,94118,2,task-ig1e,NA,23522100,6893608,NA,complete,NA,62f0e66c107d57a541a85835,mobile,Apple iPhone,iOS 15.6,Mobile Safari 15.6,375x812,724x292,NA,ITT Ratings,2,against,3,NA,ACCEPT,NA,NA,NA,NA,NA,NA,NA,NA,batch3pro,batch3pro,32,10,1,Screen 1,continueButton,response_rating_scale_likert_active,1992,NA,NA,Somewhat Agree,1,0,1,0,NA,NA,NA,NA,1,statements,To try to help go back to a normal way of life,1,17/06/2021 12:27,17/06/2021 12:49,IP Address,For (I feel positively about the vaccines),Rarely,Most weeks,22,Male,NA,"GCSEs,Vocational Training / Apprenticeship",choice,25,2,For,For
13,1659954883266,08/08/2022 10:34:43,1659954883078,1,08/08/2022 11:34:43,94118,2,task-ig1e,NA,23522100,6893608,NA,complete,NA,62f0e66c107d57a541a85835,mobile,Apple iPhone,iOS 15.6,Mobile Safari 15.6,375x812,724x292,NA,ITT Ratings,2,against,3,NA,ACCEPT,NA,NA,NA,NA,NA,NA,NA,NA,batch3pro,batch3pro,29,11,1,Screen 1,continueButton,response_rating_scale_likert_active,4245,NA,NA,Strongly Disagree,1,0,1,0,NA,NA,NA,NA,1,statements,They are unsafe because I watch the news,1,17/06/2021 12:27,17/06/2021 12:49,IP Address,For (I feel positively about the vaccines),Rarely,Most weeks,22,Male,NA,"GCSEs,Vocational Training / Apprenticeship",choice,25,2,For,Against
14,1659954886270,08/08/2022 10:34:46,1659954886094,1,08/08/2022 11:34:46,94118,2,task-ig1e,NA,23522100,6893608,NA,complete,NA,62f0e66c107d57a541a85835,mobile,Apple iPhone,iOS 15.6,Mobile Safari 15.6,375x812,724x292,NA,ITT Ratings,2,against,3,NA,ACCEPT,NA,NA,NA,NA,NA,NA,NA,NA,batch3pro,batch3pro,16,12,1,Screen 1,continueButton,response_rating_scale_likert_active,2986,NA,NA,Somewhat Agree,1,0,1,0,NA,NA,NA,NA,1,statements,The vaccines haven't been tested enough for specific groups which I consider to be in.,1,17/06/2021 12:31,17/06/2021 12:47,IP Address,For (I feel positively about the vaccines),Rarely,Most weeks,36,Male,NA,"Undergraduate degree (BSc, BA)",control,23,1,For,Against
15,1659954889965,08/08/2022 10:34:49,1659954889782,1,08/08/2022 11:34:49,94118,2,task-ig1e,NA,23522100,6893608,NA,complete,NA,62f0e66c107d57a541a85835,mobile,Apple iPhone,iOS 15.6,Mobile Safari 15.6,375x812,724x292,NA,ITT Ratings,2,against,3,NA,ACCEPT,NA,NA,NA,NA,NA,NA,NA,NA,batch3pro,batch3pro,5,13,1,Screen 1,continueButton,response_rating_scale_likert_active,3669,NA,NA,Somewhat Agree,1,0,1,0,NA,NA,NA,NA,1,statements,I am concerned about side effects and other health risks that might develop from having the vaccine,1,17/06/2021 12:39,17/06/2021 12:46,IP Address,For (I feel positively about the vaccines),Most months,Rarely,34,Female,NA,"Undergraduate degree (BSc, BA)",control,21,2,For,Against
16,1659954893819,08/08/2022 10:34:53,1659954893639,1,08/08/2022 11:34:53,94118,2,task-ig1e,NA,23522100,6893608,NA,complete,NA,62f0e66c107d57a541a85835,mobile,Apple iPhone,iOS 15.6,Mobile Safari 15.6,375x812,724x292,NA,ITT Ratings,2,against,3,NA,ACCEPT,NA,NA,NA,NA,NA,NA,NA,NA,batch3pro,batch3pro,40,14,1,Screen 1,continueButton,response_rating_scale_likert_active,3834.0000000000146,NA,NA,Somewhat Disagree,1,0,1,0,NA,NA,NA,NA,1,statements,I don't believe in the vaccine.,1,17/06/2021 12:43,17/06/2021 12:51,IP Address,For (I feel positively about the vaccines),Rarely,Rarely,32,Female,NA,"Postgraduate degree (MSc, MA, MPhil)",choice,27,1,For,Against
17,1659954895147,08/08/2022 10:34:55,1659954894975,1,08/08/2022 11:34:54,94118,2,task-ig1e,NA,23522100,6893608,NA,complete,NA,62f0e66c107d57a541a85835,mobile,Apple iPhone,iOS 15.6,Mobile Safari 15.6,375x812,724x292,NA,ITT Ratings,2,against,3,NA,ACCEPT,NA,NA,NA,NA,NA,NA,NA,NA,batch3pro,batch3pro,11,15,1,Screen 1,continueButton,response_rating_scale_likert_active,1317.9999999999854,NA,NA,Somewhat Agree,1,0,1,0,NA,NA,NA,NA,1,statements,Developed in a short timeframe,1,17/06/2021 12:40,17/06/2021 12:47,IP Address,For (I feel positively about the vaccines),Rarely,A few times a year,20,Female,NA,A levels,control,22,2,For,Against
18,1659954897922,08/08/2022 10:34:57,1659954897738,1,08/08/2022 11:34:57,94118,2,task-ig1e,NA,23522100,6893608,NA,complete,NA,62f0e66c107d57a541a85835,mobile,Apple iPhone,iOS 15.6,Mobile Safari 15.6,375x812,724x292,NA,ITT Ratings,2,against,3,NA,ACCEPT,NA,NA,NA,NA,NA,NA,NA,NA,batch3pro,batch3pro,2,16,1,Screen 1,continueButton,response_rating_scale_likert_active,2741,NA,NA,Somewhat Agree,1,0,1,0,NA,NA,NA,NA,1,statements,We would like to check you are reading each argument carefully. Please select 'Somewhat Agree' for this answer,1,NA,NA,NA,NA,NA,NA,NA,NA,NA,NA,NA,NA,check1,NA,NA
19,1659954901037,08/08/2022 10:35:01,1659954900860,1,08/08/2022 11:35:00,94118,2,task-ig1e,NA,23522100,6893608,NA,complete,NA,62f0e66c107d57a541a85835,mobile,Apple iPhone,iOS 15.6,Mobile Safari 15.6,375x812,724x292,NA,ITT Ratings,2,against,3,NA,ACCEPT,NA,NA,NA,NA,NA,NA,NA,NA,batch3pro,batch3pro,54,17,1,Screen 1,continueButton,response_rating_scale_likert_active,3102,NA,NA,Strongly Disagree,1,0,1,0,NA,NA,NA,NA,1,statements,I'm a moron and think Bill Gates wants to put a microchip in me,1,17/06/2021 12:41,17/06/2021 12:51,IP Address,For (I feel positively about the vaccines),Rarely,Once or twice a year,32,Male,NA,"Undergraduate degree (BSc, BA)",control,29,3,For,Against
20,1659954902846,08/08/2022 10:35:02,1659954902664,1,08/08/2022 11:35:02,94118,2,task-ig1e,NA,23522100,6893608,NA,complete,NA,62f0e66c107d57a541a85835,mobile,Apple iPhone,iOS 15.6,Mobile Safari 15.6,375x812,724x292,NA,ITT Ratings,2,against,3,NA,ACCEPT,NA,NA,NA,NA,NA,NA,NA,NA,batch3pro,batch3pro,31,18,1,Screen 1,continueButton,response_rating_scale_likert_active,1782,NA,NA,Somewhat Agree,1,0,1,0,NA,NA,NA,NA,1,statements,"To keep myself, friends and families safe",1,17/06/2021 12:27,17/06/2021 12:49,IP Address,For (I feel positively about the vaccines),Rarely,Most weeks,22,Male,NA,"GCSEs,Vocational Training / Apprenticeship",choice,25,1,For,For
21,1659954906474,08/08/2022 10:35:06,1659954906300,1,08/08/2022 11:35:06,94118,2,task-ig1e,NA,23522100,6893608,NA,complete,NA,62f0e66c107d57a541a85835,mobile,Apple iPhone,iOS 15.6,Mobile Safari 15.6,375x812,724x292,NA,ITT Ratings,2,against,3,NA,ACCEPT,NA,NA,NA,NA,NA,NA,NA,NA,batch3pro,batch3pro,37,19,1,Screen 1,continueButton,response_rating_scale_likert_active,3614.0000000000146,NA,NA,Somewhat Agree,1,0,1,0,NA,NA,NA,NA,1,statements,Better than dying of the virus,1,17/06/2021 12:44,17/06/2021 12:49,IP Address,For (I feel positively about the vaccines),A few times a year,Most weeks,29,Male,NA,"Undergraduate degree (BSc, BA)",control,26,1,For,For
22,1659954908147,08/08/2022 10:35:08,1659954907974,1,08/08/2022 11:35:07,94118,2,task-ig1e,NA,23522100,6893608,NA,complete,NA,62f0e66c107d57a541a85835,mobile,Apple iPhone,iOS 15.6,Mobile Safari 15.6,375x812,724x292,NA,ITT Ratings,2,against,3,NA,ACCEPT,NA,NA,NA,NA,NA,NA,NA,NA,batch3pro,batch3pro,6,20,1,Screen 1,continueButton,response_rating_scale_likert_active,1658,NA,NA,Somewhat Agree,1,0,1,0,NA,NA,NA,NA,1,statements,I don't believe the vaccine will work,1,17/06/2021 12:39,17/06/2021 12:46,IP Address,For (I feel positively about the vaccines),Most months,Rarely,34,Female,NA,"Undergraduate degree (BSc, BA)",control,21,3,For,Against
23,1659954913498,08/08/2022 10:35:13,1659954913317,1,08/08/2022 11:35:13,94118,2,task-ig1e,NA,23522100,6893608,NA,complete,NA,62f0e66c107d57a541a85835,mobile,Apple iPhone,iOS 15.6,Mobile Safari 15.6,375x812,724x292,NA,ITT Ratings,2,against,3,NA,ACCEPT,NA,NA,NA,NA,NA,NA,NA,NA,batch3pro,batch3pro,62,21,1,Screen 1,continueButton,response_rating_scale_likert_active,5322,NA,NA,Strongly Disagree,1,0,1,0,NA,NA,NA,NA,1,statements,The scientific evidence proves the vaccine is successful.,1,17/06/2021 12:32,17/06/2021 12:52,IP Address,For (I feel positively about the vaccines),Never,Most weeks,21,Female,NA,A levels,control,30,2,For,For
24,1659954915130,08/08/2022 10:35:15,1659954914950,1,08/08/2022 11:35:14,94118,2,task-ig1e,NA,23522100,6893608,NA,complete,NA,62f0e66c107d57a541a85835,mobile,Apple iPhone,iOS 15.6,Mobile Safari 15.6,375x812,724x292,NA,ITT Ratings,2,against,3,NA,ACCEPT,NA,NA,NA,NA,NA,NA,NA,NA,batch3pro,batch3pro,9,22,1,Screen 1,continueButton,response_rating_scale_likert_active,1616,NA,NA,Somewhat Agree,1,0,1,0,NA,NA,NA,NA,1,statements,I want to be able to see my friends and family,1,17/06/2021 12:39,17/06/2021 12:46,IP Address,For (I feel positively about the vaccines),Most months,Rarely,34,Female,NA,"Undergraduate degree (BSc, BA)",control,21,3,For,For
25,1659954916089,08/08/2022 10:35:16,1659954915902,1,08/08/2022 11:35:15,94118,2,task-ig1e,NA,23522100,6893608,NA,complete,NA,62f0e66c107d57a541a85835,mobile,Apple iPhone,iOS 15.6,Mobile Safari 15.6,375x812,724x292,NA,ITT Ratings,2,against,3,NA,ACCEPT,NA,NA,NA,NA,NA,NA,NA,NA,batch3pro,batch3pro,25,23,1,Screen 1,continueButton,response_rating_scale_likert_active,931,NA,NA,Somewhat Agree,1,0,1,0,NA,NA,NA,NA,1,statements,I want to be able to go to events or travel abroad.,1,17/06/2021 12:39,17/06/2021 12:47,IP Address,For (I feel positively about the vaccines),Rarely,A few times a year,22,Male,NA,"Undergraduate degree (BSc, BA)",choice,24,1,For,For
26,1659954918254,08/08/2022 10:35:18,1659954918077,1,08/08/2022 11:35:18,94118,2,task-ig1e,NA,23522100,6893608,NA,complete,NA,62f0e66c107d57a541a85835,mobile,Apple iPhone,iOS 15.6,Mobile Safari 15.6,375x812,724x292,NA,ITT Ratings,2,against,3,NA,ACCEPT,NA,NA,NA,NA,NA,NA,NA,NA,batch3pro,batch3pro,13,24,1,Screen 1,continueButton,response_rating_scale_likert_active,2155,NA,NA,Somewhat Agree,1,0,1,0,NA,NA,NA,NA,1,statements,Reduce the likelihood of me getting the virus,1,17/06/2021 12:40,17/06/2021 12:47,IP Address,For (I feel positively about the vaccines),Rarely,A few times a year,20,Female,NA,A levels,control,22,1,For,For
27,1659954922228,08/08/2022 10:35:22,1659954922044,1,08/08/2022 11:35:22,94118,2,task-ig1e,NA,23522100,6893608,NA,complete,NA,62f0e66c107d57a541a85835,mobile,Apple iPhone,iOS 15.6,Mobile Safari 15.6,375x812,724x292,NA,ITT Ratings,2,against,3,NA,ACCEPT,NA,NA,NA,NA,NA,NA,NA,NA,batch3pro,batch3pro,18,25,1,Screen 1,continueButton,response_rating_scale_likert_active,3947,NA,NA,Somewhat Agree,1,0,1,0,NA,NA,NA,NA,1,statements,The vaccines are not completely effective so I see no point in having one,1,17/06/2021 12:31,17/06/2021 12:47,IP Address,For (I feel positively about the vaccines),Rarely,Most weeks,36,Male,NA,"Undergraduate degree (BSc, BA)",control,23,3,For,Against
28,1659954925758,08/08/2022 10:35:25,1659954925578,1,08/08/2022 11:35:25,94118,2,task-ig1e,NA,23522100,6893608,NA,complete,NA,62f0e66c107d57a541a85835,mobile,Apple iPhone,iOS 15.6,Mobile Safari 15.6,375x812,724x292,NA,ITT Ratings,2,against,3,NA,ACCEPT,NA,NA,NA,NA,NA,NA,NA,NA,batch3pro,batch3pro,44,26,1,Screen 1,continueButton,response_rating_scale_likert_active,3513,NA,NA,Somewhat Agree,1,0,1,0,NA,NA,NA,NA,1,statements,We're lucky to be in a position to have a vaccine.,1,17/06/2021 12:43,17/06/2021 12:51,IP Address,For (I feel positively about the vaccines),Rarely,Rarely,32,Female,NA,"Postgraduate degree (MSc, MA, MPhil)",choice,27,2,For,For
29,1659954927025,08/08/2022 10:35:27,1659954926848,1,08/08/2022 11:35:26,94118,2,task-ig1e,NA,23522100,6893608,NA,complete,NA,62f0e66c107d57a541a85835,mobile,Apple iPhone,iOS 15.6,Mobile Safari 15.6,375x812,724x292,NA,ITT Ratings,2,against,3,NA,ACCEPT,NA,NA,NA,NA,NA,NA,NA,NA,batch3pro,batch3pro,52,27,1,Screen 1,continueButton,response_rating_scale_likert_active,1254,NA,NA,Somewhat Agree,1,0,1,0,NA,NA,NA,NA,1,statements,Worry about side effects,1,17/06/2021 12:41,17/06/2021 12:51,IP Address,For (I feel positively about the vaccines),Rarely,Once or twice a year,32,Male,NA,"Undergraduate degree (BSc, BA)",control,29,1,For,Against
30,1659954928198,08/08/2022 10:35:28,1659954928013,1,08/08/2022 11:35:28,94118,2,task-ig1e,NA,23522100,6893608,NA,complete,NA,62f0e66c107d57a541a85835,mobile,Apple iPhone,iOS 15.6,Mobile Safari 15.6,375x812,724x292,NA,ITT Ratings,2,against,3,NA,ACCEPT,NA,NA,NA,NA,NA,NA,NA,NA,batch3pro,batch3pro,47,28,1,Screen 1,continueButton,response_rating_scale_likert_active,1140.0000000000146,NA,NA,Somewhat Agree,1,0,1,0,NA,NA,NA,NA,1,statements,There are other ways to mitigate the impact of the disease and vaccination isn't necessary,1,17/06/2021 12:28,17/06/2021 12:51,IP Address,For (I feel positively about the vaccines),Rarely,Most weeks,41,Male,NA,Doctorate (PhD),control,28,2,For,Against
31,1659954929404,08/08/2022 10:35:29,1659954929216,1,08/08/2022 11:35:29,94118,2,task-ig1e,NA,23522100,6893608,NA,complete,NA,62f0e66c107d57a541a85835,mobile,Apple iPhone,iOS 15.6,Mobile Safari 15.6,375x812,724x292,NA,ITT Ratings,2,against,3,NA,ACCEPT,NA,NA,NA,NA,NA,NA,NA,NA,batch3pro,batch3pro,59,29,1,Screen 1,continueButton,response_rating_scale_likert_active,1184.9999999999854,NA,NA,Somewhat Agree,1,0,1,0,NA,NA,NA,NA,1,statements,I'm worried I will get long term effects from the vaccine or be effected negatively by it.,1,17/06/2021 12:32,17/06/2021 12:52,IP Address,For (I feel positively about the vaccines),Never,Most weeks,21,Female,NA,A levels,control,30,2,For,Against
32,1659954931725,08/08/2022 10:35:31,1659954931518,1,08/08/2022 11:35:31,94118,2,task-ig1e,NA,23522100,6893608,NA,complete,NA,62f0e66c107d57a541a85835,mobile,Apple iPhone,iOS 15.6,Mobile Safari 15.6,375x812,724x292,NA,ITT Ratings,2,against,3,NA,ACCEPT,NA,NA,NA,NA,NA,NA,NA,NA,batch3pro,batch3pro,34,30,1,Screen 1,continueButton,response_rating_scale_likert_active,2280,NA,NA,Somewhat Agree,1,0,1,0,NA,NA,NA,NA,1,statements,Chemicals are dangerous as not everyone understands the science,1,17/06/2021 12:44,17/06/2021 12:49,IP Address,For (I feel positively about the vaccines),A few times a year,Most weeks,29,Male,NA,"Undergraduate degree (BSc, BA)",control,26,1,For,Against
33,1659954934436,08/08/2022 10:35:34,1659954934258,1,08/08/2022 11:35:34,94118,2,task-ig1e,NA,23522100,6893608,NA,complete,NA,62f0e66c107d57a541a85835,mobile,Apple iPhone,iOS 15.6,Mobile Safari 15.6,375x812,724x292,NA,ITT Ratings,2,against,3,NA,ACCEPT,NA,NA,NA,NA,NA,NA,NA,NA,batch3pro,batch3pro,8,31,1,Screen 1,continueButton,response_rating_scale_likert_active,2715.9999999999854,NA,NA,Strongly Disagree,1,0,1,0,NA,NA,NA,NA,1,statements,I trust the experts who have developed the vaccine,1,17/06/2021 12:39,17/06/2021 12:46,IP Address,For (I feel positively about the vaccines),Most months,Rarely,34,Female,NA,"Undergraduate degree (BSc, BA)",control,21,2,For,For
34,1659954935868,08/08/2022 10:35:35,1659954935692,1,08/08/2022 11:35:35,94118,2,task-ig1e,NA,23522100,6893608,NA,complete,NA,62f0e66c107d57a541a85835,mobile,Apple iPhone,iOS 15.6,Mobile Safari 15.6,375x812,724x292,NA,ITT Ratings,2,against,3,NA,ACCEPT,NA,NA,NA,NA,NA,NA,NA,NA,batch3pro,batch3pro,49,32,1,Screen 1,continueButton,response_rating_scale_likert_active,1413,NA,NA,Somewhat Agree,1,0,1,0,NA,NA,NA,NA,1,statements,It protects me and other people as well so is our social duty to have one,1,17/06/2021 12:28,17/06/2021 12:51,IP Address,For (I feel positively about the vaccines),Rarely,Most weeks,41,Male,NA,Doctorate (PhD),control,28,1,For,For
35,1659954938930,08/08/2022 10:35:38,1659954938743,1,08/08/2022 11:35:38,94118,2,task-ig1e,NA,23522100,6893608,NA,complete,NA,62f0e66c107d57a541a85835,mobile,Apple iPhone,iOS 15.6,Mobile Safari 15.6,375x812,724x292,NA,ITT Ratings,2,against,3,NA,ACCEPT,NA,NA,NA,NA,NA,NA,NA,NA,batch3pro,batch3pro,58,33,1,Screen 1,continueButton,response_rating_scale_likert_active,3033,NA,NA,Somewhat Agree,1,0,1,0,NA,NA,NA,NA,1,statements,I fear that the vaccine isn't safe.,1,17/06/2021 12:32,17/06/2021 12:52,IP Address,For (I feel positively about the vaccines),Never,Most weeks,21,Female,NA,A levels,control,30,1,For,Against
36,1659954941846,08/08/2022 10:35:41,1659954941657,1,08/08/2022 11:35:41,94118,2,task-ig1e,NA,23522100,6893608,NA,complete,NA,62f0e66c107d57a541a85835,mobile,Apple iPhone,iOS 15.6,Mobile Safari 15.6,375x812,724x292,NA,ITT Ratings,2,against,3,NA,ACCEPT,NA,NA,NA,NA,NA,NA,NA,NA,batch3pro,batch3pro,39,34,1,Screen 1,continueButton,response_rating_scale_likert_active,2894.9999999999854,NA,NA,Somewhat Agree,1,0,1,0,NA,NA,NA,NA,1,statements,I am not completely f*cking insane,1,17/06/2021 12:44,17/06/2021 12:49,IP Address,For (I feel positively about the vaccines),A few times a year,Most weeks,29,Male,NA,"Undergraduate degree (BSc, BA)",control,26,3,For,For
37,1659954944486,08/08/2022 10:35:44,1659954944307,1,08/08/2022 11:35:44,94118,2,task-ig1e,NA,23522100,6893608,NA,complete,NA,62f0e66c107d57a541a85835,mobile,Apple iPhone,iOS 15.6,Mobile Safari 15.6,375x812,724x292,NA,ITT Ratings,2,against,3,NA,ACCEPT,NA,NA,NA,NA,NA,NA,NA,NA,batch3pro,batch3pro,27,35,1,Screen 1,continueButton,response_rating_scale_likert_active,2629,NA,NA,Strongly Disagree,1,0,1,0,NA,NA,NA,NA,1,statements,I believe the vaccines are safe and effective.,1,17/06/2021 12:39,17/06/2021 12:47,IP Address,For (I feel positively about the vaccines),Rarely,A few times a year,22,Male,NA,"Undergraduate degree (BSc, BA)",choice,24,3,For,For
38,1659954945387,08/08/2022 10:35:45,1659954945207,1,08/08/2022 11:35:45,94118,2,task-ig1e,NA,23522100,6893608,NA,complete,NA,62f0e66c107d57a541a85835,mobile,Apple iPhone,iOS 15.6,Mobile Safari 15.6,375x812,724x292,NA,ITT Ratings,2,against,3,NA,ACCEPT,NA,NA,NA,NA,NA,NA,NA,NA,batch3pro,batch3pro,50,36,1,Screen 1,continueButton,response_rating_scale_likert_active,881,NA,NA,Somewhat Agree,1,0,1,0,NA,NA,NA,NA,1,statements,It is the best and quickest way to get our society functioning again and get the economy going,1,17/06/2021 12:28,17/06/2021 12:51,IP Address,For (I feel positively about the vaccines),Rarely,Most weeks,41,Male,NA,Doctorate (PhD),control,28,2,For,For
39,1659954950821,08/08/2022 10:35:50,1659954950643,1,08/08/2022 11:35:50,94118,2,task-ig1e,NA,23522100,6893608,NA,complete,NA,62f0e66c107d57a541a85835,mobile,Apple iPhone,iOS 15.6,Mobile Safari 15.6,375x812,724x292,NA,ITT Ratings,2,against,3,NA,ACCEPT,NA,NA,NA,NA,NA,NA,NA,NA,batch3pro,batch3pro,48,37,1,Screen 1,continueButton,response_rating_scale_likert_active,5412,NA,NA,Somewhat Agree,1,0,1,0,NA,NA,NA,NA,1,statements,I think that the vaccine might cause side effects that might be worse than the disease itself and that having a vaccine is not worth the risk,1,17/06/2021 12:28,17/06/2021 12:51,IP Address,For (I feel positively about the vaccines),Rarely,Most weeks,41,Male,NA,Doctorate (PhD),control,28,3,For,Against
40,1659954952110,08/08/2022 10:35:52,1659954951932,1,08/08/2022 11:35:51,94118,2,task-ig1e,NA,23522100,6893608,NA,complete,NA,62f0e66c107d57a541a85835,mobile,Apple iPhone,iOS 15.6,Mobile Safari 15.6,375x812,724x292,NA,ITT Ratings,2,against,3,NA,ACCEPT,NA,NA,NA,NA,NA,NA,NA,NA,batch3pro,batch3pro,43,38,1,Screen 1,continueButton,response_rating_scale_likert_active,1271,NA,NA,Somewhat Agree,1,0,1,0,NA,NA,NA,NA,1,statements,It's important to protect yourself and family.,1,17/06/2021 12:43,17/06/2021 12:51,IP Address,For (I feel positively about the vaccines),Rarely,Rarely,32,Female,NA,"Postgraduate degree (MSc, MA, MPhil)",choice,27,1,For,For
41,1659954954190,08/08/2022 10:35:54,1659954953955,1,08/08/2022 11:35:53,94118,2,task-ig1e,NA,23522100,6893608,NA,complete,NA,62f0e66c107d57a541a85835,mobile,Apple iPhone,iOS 15.6,Mobile Safari 15.6,375x812,724x292,NA,ITT Ratings,2,against,3,NA,ACCEPT,NA,NA,NA,NA,NA,NA,NA,NA,batch3pro,batch3pro,60,39,1,Screen 1,continueButton,response_rating_scale_likert_active,2006,NA,NA,Somewhat Agree,1,0,1,0,NA,NA,NA,NA,1,statements,I believe we haven't had enough time to develop the vaccine.,1,17/06/2021 12:32,17/06/2021 12:52,IP Address,For (I feel positively about the vaccines),Never,Most weeks,21,Female,NA,A levels,control,30,3,For,Against
42,1659954956549,08/08/2022 10:35:56,1659954956309,1,08/08/2022 11:35:56,94118,2,task-ig1e,NA,23522100,6893608,NA,complete,NA,62f0e66c107d57a541a85835,mobile,Apple iPhone,iOS 15.6,Mobile Safari 15.6,375x812,724x292,NA,ITT Ratings,2,against,3,NA,ACCEPT,NA,NA,NA,NA,NA,NA,NA,NA,batch3pro,batch3pro,33,40,1,Screen 1,continueButton,response_rating_scale_likert_active,2333,NA,NA,Somewhat Agree,1,0,1,0,NA,NA,NA,NA,1,statements,To help stop the NHS from  being overwhelmed,1,17/06/2021 12:27,17/06/2021 12:49,IP Address,For (I feel positively about the vaccines),Rarely,Most weeks,22,Male,NA,"GCSEs,Vocational Training / Apprenticeship",choice,25,3,For,For
43,1659954957456,08/08/2022 10:35:57,1659954957285,1,08/08/2022 11:35:57,94118,2,task-ig1e,NA,23522100,6893608,NA,complete,NA,62f0e66c107d57a541a85835,mobile,Apple iPhone,iOS 15.6,Mobile Safari 15.6,375x812,724x292,NA,ITT Ratings,2,against,3,NA,ACCEPT,NA,NA,NA,NA,NA,NA,NA,NA,batch3pro,batch3pro,19,41,1,Screen 1,continueButton,response_rating_scale_likert_active,958,NA,NA,Somewhat Agree,1,0,1,0,NA,NA,NA,NA,1,statements,I believe the vaccine will provide the best protection against Covid-19 for myself and my families/friends.,1,17/06/2021 12:31,17/06/2021 12:47,IP Address,For (I feel positively about the vaccines),Rarely,Most weeks,36,Male,NA,"Undergraduate degree (BSc, BA)",control,23,1,For,For
44,1659954959596,08/08/2022 10:35:59,1659954959408,1,08/08/2022 11:35:59,94118,2,task-ig1e,NA,23522100,6893608,NA,complete,NA,62f0e66c107d57a541a85835,mobile,Apple iPhone,iOS 15.6,Mobile Safari 15.6,375x812,724x292,NA,ITT Ratings,2,against,3,NA,ACCEPT,NA,NA,NA,NA,NA,NA,NA,NA,batch3pro,batch3pro,4,42,1,Screen 1,continueButton,response_rating_scale_likert_active,2109,NA,NA,Somewhat Agree,1,0,1,0,NA,NA,NA,NA,1,statements,"The vaccine has been rushed, normally it would take years to develop a vaccine",1,17/06/2021 12:39,17/06/2021 12:46,IP Address,For (I feel positively about the vaccines),Most months,Rarely,34,Female,NA,"Undergraduate degree (BSc, BA)",control,21,1,For,Against
45,1659954961101,08/08/2022 10:36:01,1659954960926,1,08/08/2022 11:36:00,94118,2,task-ig1e,NA,23522100,6893608,NA,complete,NA,62f0e66c107d57a541a85835,mobile,Apple iPhone,iOS 15.6,Mobile Safari 15.6,375x812,724x292,NA,ITT Ratings,2,against,3,NA,ACCEPT,NA,NA,NA,NA,NA,NA,NA,NA,batch3pro,batch3pro,14,43,1,Screen 1,continueButton,response_rating_scale_likert_active,1494,NA,NA,Somewhat Agree,1,0,1,0,NA,NA,NA,NA,1,statements,Reducing the spread of the virus,1,17/06/2021 12:40,17/06/2021 12:47,IP Address,For (I feel positively about the vaccines),Rarely,A few times a year,20,Female,NA,A levels,control,22,2,For,For
46,1659954972944,08/08/2022 10:36:12,1659954972746,1,08/08/2022 11:36:12,94118,2,task-ig1e,NA,23522100,6893608,NA,complete,NA,62f0e66c107d57a541a85835,mobile,Apple iPhone,iOS 15.6,Mobile Safari 15.6,375x812,724x292,NA,ITT Ratings,2,against,3,NA,ACCEPT,NA,NA,NA,NA,NA,NA,NA,NA,batch3pro,batch3pro,26,44,1,Screen 1,continueButton,response_rating_scale_likert_active,11799,NA,NA,Somewhat Agree,1,0,1,0,NA,NA,NA,NA,1,statements,I have family members which could be vulnerable and so do not want to catch the virus.,1,17/06/2021 12:39,17/06/2021 12:47,IP Address,For (I feel positively about the vaccines),Rarely,A few times a year,22,Male,NA,"Undergraduate degree (BSc, BA)",choice,24,2,For,For
47,1659954976168,08/08/2022 10:36:16,1659954975984,1,08/08/2022 11:36:15,94118,2,task-ig1e,NA,23522100,6893608,NA,complete,NA,62f0e66c107d57a541a85835,mobile,Apple iPhone,iOS 15.6,Mobile Safari 15.6,375x812,724x292,NA,ITT Ratings,2,against,3,NA,ACCEPT,NA,NA,NA,NA,NA,NA,NA,NA,batch3pro,batch3pro,35,45,1,Screen 1,continueButton,response_rating_scale_likert_active,3217,NA,NA,Somewhat Agree,1,0,1,0,NA,NA,NA,NA,1,statements,"Not enough evidence, not enough time and research done",1,17/06/2021 12:44,17/06/2021 12:49,IP Address,For (I feel positively about the vaccines),A few times a year,Most weeks,29,Male,NA,"Undergraduate degree (BSc, BA)",control,26,2,For,Against
48,1659954977840,08/08/2022 10:36:17,1659954977654,1,08/08/2022 11:36:17,94118,2,task-ig1e,NA,23522100,6893608,NA,complete,NA,62f0e66c107d57a541a85835,mobile,Apple iPhone,iOS 15.6,Mobile Safari 15.6,375x812,724x292,NA,ITT Ratings,2,against,3,NA,ACCEPT,NA,NA,NA,NA,NA,NA,NA,NA,batch3pro,batch3pro,30,46,1,Screen 1,continueButton,response_rating_scale_likert_active,1653,NA,NA,Somewhat Agree,1,0,1,0,NA,NA,NA,NA,1,statements,"They were rushed, it usually takes year for vaccines to be developed safely",1,17/06/2021 12:27,17/06/2021 12:49,IP Address,For (I feel positively about the vaccines),Rarely,Most weeks,22,Male,NA,"GCSEs,Vocational Training / Apprenticeship",choice,25,3,For,Against
49,1659954979451,08/08/2022 10:36:19,1659954979273,1,08/08/2022 11:36:19,94118,2,task-ig1e,NA,23522100,6893608,NA,complete,NA,62f0e66c107d57a541a85835,mobile,Apple iPhone,iOS 15.6,Mobile Safari 15.6,375x812,724x292,NA,ITT Ratings,2,against,3,NA,ACCEPT,NA,NA,NA,NA,NA,NA,NA,NA,batch3pro,batch3pro,53,47,1,Screen 1,continueButton,response_rating_scale_likert_active,1599,NA,NA,Disagree,1,0,1,0,NA,NA,NA,NA,1,statements,Scared of needles/injections,1,17/06/2021 12:41,17/06/2021 12:51,IP Address,For (I feel positively about the vaccines),Rarely,Once or twice a year,32,Male,NA,"Undergraduate degree (BSc, BA)",control,29,2,For,Against
50,1659954982020,08/08/2022 10:36:22,1659954981841,1,08/08/2022 11:36:21,94118,2,task-ig1e,NA,23522100,6893608,NA,complete,NA,62f0e66c107d57a541a85835,mobile,Apple iPhone,iOS 15.6,Mobile Safari 15.6,375x812,724x292,NA,ITT Ratings,2,against,3,NA,ACCEPT,NA,NA,NA,NA,NA,NA,NA,NA,batch3pro,batch3pro,12,48,1,Screen 1,continueButton,response_rating_scale_likert_active,2552,NA,NA,Disagree,1,0,1,0,NA,NA,NA,NA,1,statements,Government controls us through vaccines,1,17/06/2021 12:40,17/06/2021 12:47,IP Address,For (I feel positively about the vaccines),Rarely,A few times a year,20,Female,NA,A levels,control,22,3,For,Against
51,1659954984788,08/08/2022 10:36:24,1659954984609,1,08/08/2022 11:36:24,94118,2,task-ig1e,NA,23522100,6893608,NA,complete,NA,62f0e66c107d57a541a85835,mobile,Apple iPhone,iOS 15.6,Mobile Safari 15.6,375x812,724x292,NA,ITT Ratings,2,against,3,NA,ACCEPT,NA,NA,NA,NA,NA,NA,NA,NA,batch3pro,batch3pro,63,49,1,Screen 1,continueButton,response_rating_scale_likert_active,2753.999999999971,NA,NA,Disagree,1,0,1,0,NA,NA,NA,NA,1,statements,The vaccine will also help prevent any long term serious effects from contracting covid.,1,17/06/2021 12:32,17/06/2021 12:52,IP Address,For (I feel positively about the vaccines),Never,Most weeks,21,Female,NA,A levels,control,30,3,For,For
52,1659954986628,08/08/2022 10:36:26,1659954986445,1,08/08/2022 11:36:26,94118,2,task-ig1e,NA,23522100,6893608,NA,complete,NA,62f0e66c107d57a541a85835,mobile,Apple iPhone,iOS 15.6,Mobile Safari 15.6,375x812,724x292,NA,ITT Ratings,2,against,3,NA,ACCEPT,NA,NA,NA,NA,NA,NA,NA,NA,batch3pro,batch3pro,45,50,1,Screen 1,continueButton,response_rating_scale_likert_active,1821.999999999971,NA,NA,Disagree,1,0,1,0,NA,NA,NA,NA,1,statements,It will stop Covid spreading and create herd immunity.,1,17/06/2021 12:43,17/06/2021 12:51,IP Address,For (I feel positively about the vaccines),Rarely,Rarely,32,Female,NA,"Postgraduate degree (MSc, MA, MPhil)",choice,27,3,For,For
53,1659954988282,08/08/2022 10:36:28,1659954988102,1,08/08/2022 11:36:28,94118,2,task-ig1e,NA,23522100,6893608,NA,complete,NA,62f0e66c107d57a541a85835,mobile,Apple iPhone,iOS 15.6,Mobile Safari 15.6,375x812,724x292,NA,ITT Ratings,2,against,3,NA,ACCEPT,NA,NA,NA,NA,NA,NA,NA,NA,batch3pro,batch3pro,61,51,1,Screen 1,continueButton,response_rating_scale_likert_active,1633.999999999971,NA,NA,Disagree,1,0,1,0,NA,NA,NA,NA,1,statements,It will protect myself and the people around me and therefore I want to be vaccinated.,1,17/06/2021 12:32,17/06/2021 12:52,IP Address,For (I feel positively about the vaccines),Never,Most weeks,21,Female,NA,A levels,control,30,1,For,For
54,1659954992184,08/08/2022 10:36:32,1659954992003,1,08/08/2022 11:36:32,94118,2,task-ig1e,NA,23522100,6893608,NA,complete,NA,62f0e66c107d57a541a85835,mobile,Apple iPhone,iOS 15.6,Mobile Safari 15.6,375x812,724x292,NA,ITT Ratings,2,against,3,NA,ACCEPT,NA,NA,NA,NA,NA,NA,NA,NA,batch3pro,batch3pro,36,52,1,Screen 1,continueButton,response_rating_scale_likert_active,3885,NA,NA,Somewhat Agree,1,0,1,0,NA,NA,NA,NA,1,statements,After effects the dangers for reaciton,1,17/06/2021 12:44,17/06/2021 12:49,IP Address,For (I feel positively about the vaccines),A few times a year,Most weeks,29,Male,NA,"Undergraduate degree (BSc, BA)",control,26,3,For,Against
55,1659954996290,08/08/2022 10:36:36,1659954996089,1,08/08/2022 11:36:36,94118,2,task-ig1e,NA,23522100,6893608,NA,complete,NA,62f0e66c107d57a541a85835,mobile,Apple iPhone,iOS 15.6,Mobile Safari 15.6,375x812,724x292,NA,ITT Ratings,2,against,3,NA,ACCEPT,NA,NA,NA,NA,NA,NA,NA,NA,batch3pro,batch3pro,17,53,1,Screen 1,continueButton,response_rating_scale_likert_active,4066,NA,NA,Somewhat Agree,1,0,1,0,NA,NA,NA,NA,1,statements,The vaccines haven't been in general circulation long enough to fully understand any longer term health implications.,1,17/06/2021 12:31,17/06/2021 12:47,IP Address,For (I feel positively about the vaccines),Rarely,Most weeks,36,Male,NA,"Undergraduate degree (BSc, BA)",control,23,2,For,Against
56,1659955003199,08/08/2022 10:36:43,1659955003006,1,08/08/2022 11:36:43,94118,2,task-ig1e,NA,23522100,6893608,NA,complete,NA,62f0e66c107d57a541a85835,mobile,Apple iPhone,iOS 15.6,Mobile Safari 15.6,375x812,724x292,NA,ITT Ratings,2,against,3,NA,ACCEPT,NA,NA,NA,NA,NA,NA,NA,NA,batch3pro,batch3pro,3,54,1,Screen 1,continueButton,response_rating_scale_likert_active,6900,NA,NA,Somewhat Disagree,1,0,1,0,NA,NA,NA,NA,1,statements,We would like to check you are reading each argument carefully. Please select 'Somewhat Disagree' for this answer,1,NA,NA,NA,NA,NA,NA,NA,NA,NA,NA,NA,NA,check2,NA,NA
57,1659955007013,08/08/2022 10:36:47,1659955006826,1,08/08/2022 11:36:46,94118,2,task-ig1e,NA,23522100,6893608,NA,complete,NA,62f0e66c107d57a541a85835,mobile,Apple iPhone,iOS 15.6,Mobile Safari 15.6,375x812,724x292,NA,ITT Ratings,2,against,3,NA,ACCEPT,NA,NA,NA,NA,NA,NA,NA,NA,batch3pro,batch3pro,15,55,1,Screen 1,continueButton,response_rating_scale_likert_active,3797.999999999971,NA,NA,Strongly Disagree,1,0,1,0,NA,NA,NA,NA,1,statements,Effective enough to stop the pandemic,1,17/06/2021 12:40,17/06/2021 12:47,IP Address,For (I feel positively about the vaccines),Rarely,A few times a year,20,Female,NA,A levels,control,22,3,For,For
58,1659955009070,08/08/2022 10:36:49,1659955008878,1,08/08/2022 11:36:48,94118,2,task-ig1e,NA,23522100,6893608,NA,complete,NA,62f0e66c107d57a541a85835,mobile,Apple iPhone,iOS 15.6,Mobile Safari 15.6,375x812,724x292,NA,ITT Ratings,2,against,3,NA,ACCEPT,NA,NA,NA,NA,NA,NA,NA,NA,batch3pro,batch3pro,51,56,1,Screen 1,continueButton,response_rating_scale_likert_active,2036,NA,NA,Strongly Disagree,1,0,1,0,NA,NA,NA,NA,1,statements,The vaccine is safe and has been tested and the side effects are very rare and unlikely to occur,1,17/06/2021 12:28,17/06/2021 12:51,IP Address,For (I feel positively about the vaccines),Rarely,Most weeks,41,Male,NA,Doctorate (PhD),control,28,3,For,For
59,1659955011459,08/08/2022 10:36:51,1659955011273,1,08/08/2022 11:36:51,94118,2,task-ig1e,NA,23522100,6893608,NA,complete,NA,62f0e66c107d57a541a85835,mobile,Apple iPhone,iOS 15.6,Mobile Safari 15.6,375x812,724x292,NA,ITT Ratings,2,against,3,NA,ACCEPT,NA,NA,NA,NA,NA,NA,NA,NA,batch3pro,batch3pro,23,57,1,Screen 1,continueButton,response_rating_scale_likert_active,2377,NA,NA,Somewhat Agree,1,0,1,0,NA,NA,NA,NA,1,statements,"I am young and so covid does not pose much risk to me, so I don't care about getting a vaccine.",1,17/06/2021 12:39,17/06/2021 12:47,IP Address,For (I feel positively about the vaccines),Rarely,A few times a year,22,Male,NA,"Undergraduate degree (BSc, BA)",choice,24,2,For,Against
60,1659955013272,08/08/2022 10:36:53,1659955013091,1,08/08/2022 11:36:53,94118,2,task-ig1e,NA,23522100,6893608,NA,complete,NA,62f0e66c107d57a541a85835,mobile,Apple iPhone,iOS 15.6,Mobile Safari 15.6,375x812,724x292,NA,ITT Ratings,2,against,3,NA,ACCEPT,NA,NA,NA,NA,NA,NA,NA,NA,batch3pro,batch3pro,41,58,1,Screen 1,continueButton,response_rating_scale_likert_active,1800.999999999971,NA,NA,Somewhat Agree,1,0,1,0,NA,NA,NA,NA,1,statements,The vaccine is not safe.,1,17/06/2021 12:43,17/06/2021 12:51,IP Address,For (I feel positively about the vaccines),Rarely,Rarely,32,Female,NA,"Postgraduate degree (MSc, MA, MPhil)",choice,27,2,For,Against
61,1659955014462,08/08/2022 10:36:54,1659955014190,1,08/08/2022 11:36:54,94118,2,task-ig1e,NA,23522100,6893608,NA,complete,NA,62f0e66c107d57a541a85835,mobile,Apple iPhone,iOS 15.6,Mobile Safari 15.6,375x812,724x292,NA,ITT Ratings,2,against,3,NA,ACCEPT,NA,NA,NA,NA,NA,NA,NA,NA,batch3pro,batch3pro,10,59,1,Screen 1,continueButton,response_rating_scale_likert_active,1082,NA,NA,Somewhat Agree,1,0,1,0,NA,NA,NA,NA,1,statements,Don't know what's in it,1,17/06/2021 12:40,17/06/2021 12:47,IP Address,For (I feel positively about the vaccines),Rarely,A few times a year,20,Female,NA,A levels,control,22,1,For,Against
62,1659955015702,08/08/2022 10:36:55,1659955015479,1,08/08/2022 11:36:55,94118,2,task-ig1e,NA,23522100,6893608,NA,complete,NA,62f0e66c107d57a541a85835,mobile,Apple iPhone,iOS 15.6,Mobile Safari 15.6,375x812,724x292,NA,ITT Ratings,2,against,3,NA,ACCEPT,NA,NA,NA,NA,NA,NA,NA,NA,batch3pro,batch3pro,24,60,1,Screen 1,continueButton,response_rating_scale_likert_active,1270.000000000029,NA,NA,Somewhat Agree,1,0,1,0,NA,NA,NA,NA,1,statements,I do not trust the companies making the vaccines.,1,17/06/2021 12:39,17/06/2021 12:47,IP Address,For (I feel positively about the vaccines),Rarely,A few times a year,22,Male,NA,"Undergraduate degree (BSc, BA)",choice,24,3,For,Against
63,1659955018498,08/08/2022 10:36:58,1659955018308,1,08/08/2022 11:36:58,94118,2,task-ig1e,NA,23522100,6893608,NA,complete,NA,62f0e66c107d57a541a85835,mobile,Apple iPhone,iOS 15.6,Mobile Safari 15.6,375x812,724x292,NA,ITT Ratings,2,against,3,NA,ACCEPT,NA,NA,NA,NA,NA,NA,NA,NA,batch3pro,batch3pro,55,61,1,Screen 1,continueButton,response_rating_scale_likert_active,2815,NA,NA,Neither Agree nor Disagree,1,0,1,0,NA,NA,NA,NA,1,statements,I want to protect myself from COVID-19,1,17/06/2021 12:41,17/06/2021 12:51,IP Address,For (I feel positively about the vaccines),Rarely,Once or twice a year,32,Male,NA,"Undergraduate degree (BSc, BA)",control,29,1,For,For
64,1659955023084,08/08/2022 10:37:03,1659955022888,1,08/08/2022 11:37:02,94118,2,task-ig1e,NA,23522100,6893608,NA,complete,NA,62f0e66c107d57a541a85835,mobile,Apple iPhone,iOS 15.6,Mobile Safari 15.6,375x812,724x292,NA,ITT Ratings,2,against,3,NA,ACCEPT,NA,NA,NA,NA,NA,NA,NA,NA,batch3pro,batch3pro,21,62,1,Screen 1,continueButton,response_rating_scale_likert_active,4560,NA,NA,Strongly Disagree,1,0,1,0,NA,NA,NA,NA,1,statements,I  feel it would be wrong not to accept a free vaccine when so many other people around the world do not have access to them.,1,17/06/2021 12:31,17/06/2021 12:47,IP Address,For (I feel positively about the vaccines),Rarely,Most weeks,36,Male,NA,"Undergraduate degree (BSc, BA)",control,23,3,For,For
65,1659955023223,08/08/2022 10:37:03,1659955022901,1,08/08/2022 11:37:02,94118,2,task-ig1e,NA,23522100,6893608,NA,complete,NA,62f0e66c107d57a541a85835,mobile,Apple iPhone,iOS 15.6,Mobile Safari 15.6,375x812,724x292,NA,ITT Ratings,2,against,3,NA,ACCEPT,NA,NA,NA,NA,NA,NA,NA,NA,batch3pro,NA,NA,END TASK,NA,NA,NA,NA,199875,NA,NA,NA,NA,0,1,0,NA,NA,NA,NA,NA,NA,NA,NA,NA,NA,NA,NA,NA,NA,NA,NA,NA,NA,NA,NA,NA,NA,NA
1,1659955380184,08/08/2022 10:43:00,1659955381436,1,08/08/2022 11:43:01,94118,2,task-ig1e,NA,23522259,6893659,NA,complete,NA,62f0e891bdeca844a36ac6ab,computer,Desktop or Laptop,Windows 10,Firefox 103.0,1366x768,1366x615,NA,ITT Ratings,2,against,3,NA,ACCEPT,NA,NA,NA,NA,NA,NA,NA,NA,batch3pro,NA,NA,BEGIN TASK,NA,NA,NA,NA,NA,NA,NA,NA,NA,0,1,0,NA,NA,NA,NA,NA,NA,NA,NA,NA,NA,NA,NA,NA,NA,NA,NA,NA,NA,NA,NA,NA,NA,NA
2,1659955383069,08/08/2022 10:43:03,1659955384368,1,08/08/2022 11:43:04,94118,2,task-ig1e,NA,23522259,6893659,NA,complete,NA,62f0e891bdeca844a36ac6ab,computer,Desktop or Laptop,Windows 10,Firefox 103.0,1366x768,1366x615,NA,ITT Ratings,2,against,3,NA,ACCEPT,NA,NA,NA,NA,NA,NA,NA,NA,batch3pro,batch3pro,1,1,1,Screen 1,advancementZone,continue_button,2905,NA,NA,NA,NA,0,1,0,NA,NA,NA,NA,NA,instructions,NA,NA,NA,NA,NA,NA,NA,NA,NA,NA,NA,NA,NA,NA,NA,NA,NA
3,1659955389266,08/08/2022 10:43:09,1659955390581,1,08/08/2022 11:43:10,94118,2,task-ig1e,NA,23522259,6893659,NA,complete,NA,62f0e891bdeca844a36ac6ab,computer,Desktop or Laptop,Windows 10,Firefox 103.0,1366x768,1366x615,NA,ITT Ratings,2,against,3,NA,ACCEPT,NA,NA,NA,NA,NA,NA,NA,NA,batch3pro,batch3pro,18,1,1,Screen 1,continueButton,response_rating_scale_likert_active,6193,NA,NA,Agree,1,0,1,0,NA,NA,NA,NA,1,statements,The vaccines are not completely effective so I see no point in having one,1,17/06/2021 12:31,17/06/2021 12:47,IP Address,For (I feel positively about the vaccines),Rarely,Most weeks,36,Male,NA,"Undergraduate degree (BSc, BA)",control,23,3,For,Against
4,1659955393129,08/08/2022 10:43:13,1659955394406,1,08/08/2022 11:43:14,94118,2,task-ig1e,NA,23522259,6893659,NA,complete,NA,62f0e891bdeca844a36ac6ab,computer,Desktop or Laptop,Windows 10,Firefox 103.0,1366x768,1366x615,NA,ITT Ratings,2,against,3,NA,ACCEPT,NA,NA,NA,NA,NA,NA,NA,NA,batch3pro,batch3pro,5,2,1,Screen 1,continueButton,response_rating_scale_likert_active,3814,NA,NA,Agree,1,0,1,0,NA,NA,NA,NA,1,statements,I am concerned about side effects and other health risks that might develop from having the vaccine,1,17/06/2021 12:39,17/06/2021 12:46,IP Address,For (I feel positively about the vaccines),Most months,Rarely,34,Female,NA,"Undergraduate degree (BSc, BA)",control,21,2,For,Against
5,1659955397088,08/08/2022 10:43:17,1659955398383,1,08/08/2022 11:43:18,94118,2,task-ig1e,NA,23522259,6893659,NA,complete,NA,62f0e891bdeca844a36ac6ab,computer,Desktop or Laptop,Windows 10,Firefox 103.0,1366x768,1366x615,NA,ITT Ratings,2,against,3,NA,ACCEPT,NA,NA,NA,NA,NA,NA,NA,NA,batch3pro,batch3pro,10,3,1,Screen 1,continueButton,response_rating_scale_likert_active,3968,NA,NA,Somewhat Agree,1,0,1,0,NA,NA,NA,NA,1,statements,Don't know what's in it,1,17/06/2021 12:40,17/06/2021 12:47,IP Address,For (I feel positively about the vaccines),Rarely,A few times a year,20,Female,NA,A levels,control,22,1,For,Against
6,1659955399143,08/08/2022 10:43:19,1659955400435,1,08/08/2022 11:43:20,94118,2,task-ig1e,NA,23522259,6893659,NA,complete,NA,62f0e891bdeca844a36ac6ab,computer,Desktop or Laptop,Windows 10,Firefox 103.0,1366x768,1366x615,NA,ITT Ratings,2,against,3,NA,ACCEPT,NA,NA,NA,NA,NA,NA,NA,NA,batch3pro,batch3pro,53,4,1,Screen 1,continueButton,response_rating_scale_likert_active,2041,NA,NA,Strongly Disagree,1,0,1,0,NA,NA,NA,NA,1,statements,Scared of needles/injections,1,17/06/2021 12:41,17/06/2021 12:51,IP Address,For (I feel positively about the vaccines),Rarely,Once or twice a year,32,Male,NA,"Undergraduate degree (BSc, BA)",control,29,2,For,Against
7,1659955404237,08/08/2022 10:43:24,1659955405538,1,08/08/2022 11:43:25,94118,2,task-ig1e,NA,23522259,6893659,NA,complete,NA,62f0e891bdeca844a36ac6ab,computer,Desktop or Laptop,Windows 10,Firefox 103.0,1366x768,1366x615,NA,ITT Ratings,2,against,3,NA,ACCEPT,NA,NA,NA,NA,NA,NA,NA,NA,batch3pro,batch3pro,62,5,1,Screen 1,continueButton,response_rating_scale_likert_active,5093,NA,NA,Neither Agree nor Disagree,1,0,1,0,NA,NA,NA,NA,1,statements,The scientific evidence proves the vaccine is successful.,1,17/06/2021 12:32,17/06/2021 12:52,IP Address,For (I feel positively about the vaccines),Never,Most weeks,21,Female,NA,A levels,control,30,2,For,For
8,1659955409101,08/08/2022 10:43:29,1659955410402,1,08/08/2022 11:43:30,94118,2,task-ig1e,NA,23522259,6893659,NA,complete,NA,62f0e891bdeca844a36ac6ab,computer,Desktop or Laptop,Windows 10,Firefox 103.0,1366x768,1366x615,NA,ITT Ratings,2,against,3,NA,ACCEPT,NA,NA,NA,NA,NA,NA,NA,NA,batch3pro,batch3pro,21,6,1,Screen 1,continueButton,response_rating_scale_likert_active,4852,NA,NA,Strongly Disagree,1,0,1,0,NA,NA,NA,NA,1,statements,I  feel it would be wrong not to accept a free vaccine when so many other people around the world do not have access to them.,1,17/06/2021 12:31,17/06/2021 12:47,IP Address,For (I feel positively about the vaccines),Rarely,Most weeks,36,Male,NA,"Undergraduate degree (BSc, BA)",control,23,3,For,For
9,1659955412836,08/08/2022 10:43:32,1659955414135,1,08/08/2022 11:43:34,94118,2,task-ig1e,NA,23522259,6893659,NA,complete,NA,62f0e891bdeca844a36ac6ab,computer,Desktop or Laptop,Windows 10,Firefox 103.0,1366x768,1366x615,NA,ITT Ratings,2,against,3,NA,ACCEPT,NA,NA,NA,NA,NA,NA,NA,NA,batch3pro,batch3pro,8,7,1,Screen 1,continueButton,response_rating_scale_likert_active,3721,NA,NA,Neither Agree nor Disagree,1,0,1,0,NA,NA,NA,NA,1,statements,I trust the experts who have developed the vaccine,1,17/06/2021 12:39,17/06/2021 12:46,IP Address,For (I feel positively about the vaccines),Most months,Rarely,34,Female,NA,"Undergraduate degree (BSc, BA)",control,21,2,For,For
10,1659955416049,08/08/2022 10:43:36,1659955417342,1,08/08/2022 11:43:37,94118,2,task-ig1e,NA,23522259,6893659,NA,complete,NA,62f0e891bdeca844a36ac6ab,computer,Desktop or Laptop,Windows 10,Firefox 103.0,1366x768,1366x615,NA,ITT Ratings,2,against,3,NA,ACCEPT,NA,NA,NA,NA,NA,NA,NA,NA,batch3pro,batch3pro,37,8,1,Screen 1,continueButton,response_rating_scale_likert_active,3196,NA,NA,Somewhat Agree,1,0,1,0,NA,NA,NA,NA,1,statements,Better than dying of the virus,1,17/06/2021 12:44,17/06/2021 12:49,IP Address,For (I feel positively about the vaccines),A few times a year,Most weeks,29,Male,NA,"Undergraduate degree (BSc, BA)",control,26,1,For,For
11,1659955421057,08/08/2022 10:43:41,1659955422354,1,08/08/2022 11:43:42,94118,2,task-ig1e,NA,23522259,6893659,NA,complete,NA,62f0e891bdeca844a36ac6ab,computer,Desktop or Laptop,Windows 10,Firefox 103.0,1366x768,1366x615,NA,ITT Ratings,2,against,3,NA,ACCEPT,NA,NA,NA,NA,NA,NA,NA,NA,batch3pro,batch3pro,36,9,1,Screen 1,continueButton,response_rating_scale_likert_active,5002,NA,NA,Agree,1,0,1,0,NA,NA,NA,NA,1,statements,After effects the dangers for reaciton,1,17/06/2021 12:44,17/06/2021 12:49,IP Address,For (I feel positively about the vaccines),A few times a year,Most weeks,29,Male,NA,"Undergraduate degree (BSc, BA)",control,26,3,For,Against
12,1659955422657,08/08/2022 10:43:42,1659955423959,1,08/08/2022 11:43:43,94118,2,task-ig1e,NA,23522259,6893659,NA,complete,NA,62f0e891bdeca844a36ac6ab,computer,Desktop or Laptop,Windows 10,Firefox 103.0,1366x768,1366x615,NA,ITT Ratings,2,against,3,NA,ACCEPT,NA,NA,NA,NA,NA,NA,NA,NA,batch3pro,batch3pro,4,10,1,Screen 1,continueButton,response_rating_scale_likert_active,1596,NA,NA,Agree,1,0,1,0,NA,NA,NA,NA,1,statements,"The vaccine has been rushed, normally it would take years to develop a vaccine",1,17/06/2021 12:39,17/06/2021 12:46,IP Address,For (I feel positively about the vaccines),Most months,Rarely,34,Female,NA,"Undergraduate degree (BSc, BA)",control,21,1,For,Against
13,1659955427617,08/08/2022 10:43:47,1659955428915,1,08/08/2022 11:43:48,94118,2,task-ig1e,NA,23522259,6893659,NA,complete,NA,62f0e891bdeca844a36ac6ab,computer,Desktop or Laptop,Windows 10,Firefox 103.0,1366x768,1366x615,NA,ITT Ratings,2,against,3,NA,ACCEPT,NA,NA,NA,NA,NA,NA,NA,NA,batch3pro,batch3pro,27,11,1,Screen 1,continueButton,response_rating_scale_likert_active,4950,NA,NA,Somewhat Disagree,1,0,1,0,NA,NA,NA,NA,1,statements,I believe the vaccines are safe and effective.,1,17/06/2021 12:39,17/06/2021 12:47,IP Address,For (I feel positively about the vaccines),Rarely,A few times a year,22,Male,NA,"Undergraduate degree (BSc, BA)",choice,24,3,For,For
14,1659955432201,08/08/2022 10:43:52,1659955433492,1,08/08/2022 11:43:53,94118,2,task-ig1e,NA,23522259,6893659,NA,complete,NA,62f0e891bdeca844a36ac6ab,computer,Desktop or Laptop,Windows 10,Firefox 103.0,1366x768,1366x615,NA,ITT Ratings,2,against,3,NA,ACCEPT,NA,NA,NA,NA,NA,NA,NA,NA,batch3pro,batch3pro,49,12,1,Screen 1,continueButton,response_rating_scale_likert_active,4555,NA,NA,Strongly Disagree,1,0,1,0,NA,NA,NA,NA,1,statements,It protects me and other people as well so is our social duty to have one,1,17/06/2021 12:28,17/06/2021 12:51,IP Address,For (I feel positively about the vaccines),Rarely,Most weeks,41,Male,NA,Doctorate (PhD),control,28,1,For,For
15,1659955434441,08/08/2022 10:43:54,1659955435754,1,08/08/2022 11:43:55,94118,2,task-ig1e,NA,23522259,6893659,NA,complete,NA,62f0e891bdeca844a36ac6ab,computer,Desktop or Laptop,Windows 10,Firefox 103.0,1366x768,1366x615,NA,ITT Ratings,2,against,3,NA,ACCEPT,NA,NA,NA,NA,NA,NA,NA,NA,batch3pro,batch3pro,33,13,1,Screen 1,continueButton,response_rating_scale_likert_active,2242,NA,NA,Strongly Disagree,1,0,1,0,NA,NA,NA,NA,1,statements,To help stop the NHS from  being overwhelmed,1,17/06/2021 12:27,17/06/2021 12:49,IP Address,For (I feel positively about the vaccines),Rarely,Most weeks,22,Male,NA,"GCSEs,Vocational Training / Apprenticeship",choice,25,3,For,For
16,1659955437286,08/08/2022 10:43:57,1659955438594,1,08/08/2022 11:43:58,94118,2,task-ig1e,NA,23522259,6893659,NA,complete,NA,62f0e891bdeca844a36ac6ab,computer,Desktop or Laptop,Windows 10,Firefox 103.0,1366x768,1366x615,NA,ITT Ratings,2,against,3,NA,ACCEPT,NA,NA,NA,NA,NA,NA,NA,NA,batch3pro,batch3pro,24,14,1,Screen 1,continueButton,response_rating_scale_likert_active,2830,NA,NA,Neither Agree nor Disagree,1,0,1,0,NA,NA,NA,NA,1,statements,I do not trust the companies making the vaccines.,1,17/06/2021 12:39,17/06/2021 12:47,IP Address,For (I feel positively about the vaccines),Rarely,A few times a year,22,Male,NA,"Undergraduate degree (BSc, BA)",choice,24,3,For,Against
17,1659955440485,08/08/2022 10:44:00,1659955441793,1,08/08/2022 11:44:01,94118,2,task-ig1e,NA,23522259,6893659,NA,complete,NA,62f0e891bdeca844a36ac6ab,computer,Desktop or Laptop,Windows 10,Firefox 103.0,1366x768,1366x615,NA,ITT Ratings,2,against,3,NA,ACCEPT,NA,NA,NA,NA,NA,NA,NA,NA,batch3pro,batch3pro,15,15,1,Screen 1,continueButton,response_rating_scale_likert_active,3190,NA,NA,Somewhat Disagree,1,0,1,0,NA,NA,NA,NA,1,statements,Effective enough to stop the pandemic,1,17/06/2021 12:40,17/06/2021 12:47,IP Address,For (I feel positively about the vaccines),Rarely,A few times a year,20,Female,NA,A levels,control,22,3,For,For
18,1659955442213,08/08/2022 10:44:02,1659955443511,1,08/08/2022 11:44:03,94118,2,task-ig1e,NA,23522259,6893659,NA,complete,NA,62f0e891bdeca844a36ac6ab,computer,Desktop or Laptop,Windows 10,Firefox 103.0,1366x768,1366x615,NA,ITT Ratings,2,against,3,NA,ACCEPT,NA,NA,NA,NA,NA,NA,NA,NA,batch3pro,batch3pro,31,16,1,Screen 1,continueButton,response_rating_scale_likert_active,1708,NA,NA,Somewhat Disagree,1,0,1,0,NA,NA,NA,NA,1,statements,"To keep myself, friends and families safe",1,17/06/2021 12:27,17/06/2021 12:49,IP Address,For (I feel positively about the vaccines),Rarely,Most weeks,22,Male,NA,"GCSEs,Vocational Training / Apprenticeship",choice,25,1,For,For
19,1659955446068,08/08/2022 10:44:06,1659955447358,1,08/08/2022 11:44:07,94118,2,task-ig1e,NA,23522259,6893659,NA,complete,NA,62f0e891bdeca844a36ac6ab,computer,Desktop or Laptop,Windows 10,Firefox 103.0,1366x768,1366x615,NA,ITT Ratings,2,against,3,NA,ACCEPT,NA,NA,NA,NA,NA,NA,NA,NA,batch3pro,batch3pro,60,17,1,Screen 1,continueButton,response_rating_scale_likert_active,3836,NA,NA,Agree,1,0,1,0,NA,NA,NA,NA,1,statements,I believe we haven't had enough time to develop the vaccine.,1,17/06/2021 12:32,17/06/2021 12:52,IP Address,For (I feel positively about the vaccines),Never,Most weeks,21,Female,NA,A levels,control,30,3,For,Against
20,1659955448870,08/08/2022 10:44:08,1659955450171,1,08/08/2022 11:44:10,94118,2,task-ig1e,NA,23522259,6893659,NA,complete,NA,62f0e891bdeca844a36ac6ab,computer,Desktop or Laptop,Windows 10,Firefox 103.0,1366x768,1366x615,NA,ITT Ratings,2,against,3,NA,ACCEPT,NA,NA,NA,NA,NA,NA,NA,NA,batch3pro,batch3pro,20,18,1,Screen 1,continueButton,response_rating_scale_likert_active,2804,NA,NA,Strongly Disagree,1,0,1,0,NA,NA,NA,NA,1,statements,I feel it is my duty to ensure I am vaccinated as part of halting ongoing transmission.,1,17/06/2021 12:31,17/06/2021 12:47,IP Address,For (I feel positively about the vaccines),Rarely,Most weeks,36,Male,NA,"Undergraduate degree (BSc, BA)",control,23,2,For,For
21,1659955451280,08/08/2022 10:44:11,1659955452535,1,08/08/2022 11:44:12,94118,2,task-ig1e,NA,23522259,6893659,NA,complete,NA,62f0e891bdeca844a36ac6ab,computer,Desktop or Laptop,Windows 10,Firefox 103.0,1366x768,1366x615,NA,ITT Ratings,2,against,3,NA,ACCEPT,NA,NA,NA,NA,NA,NA,NA,NA,batch3pro,batch3pro,52,19,1,Screen 1,continueButton,response_rating_scale_likert_active,2353,NA,NA,Agree,1,0,1,0,NA,NA,NA,NA,1,statements,Worry about side effects,1,17/06/2021 12:41,17/06/2021 12:51,IP Address,For (I feel positively about the vaccines),Rarely,Once or twice a year,32,Male,NA,"Undergraduate degree (BSc, BA)",control,29,1,For,Against
22,1659955453773,08/08/2022 10:44:13,1659955455068,1,08/08/2022 11:44:15,94118,2,task-ig1e,NA,23522259,6893659,NA,complete,NA,62f0e891bdeca844a36ac6ab,computer,Desktop or Laptop,Windows 10,Firefox 103.0,1366x768,1366x615,NA,ITT Ratings,2,against,3,NA,ACCEPT,NA,NA,NA,NA,NA,NA,NA,NA,batch3pro,batch3pro,13,20,1,Screen 1,continueButton,response_rating_scale_likert_active,2488,NA,NA,Somewhat Agree,1,0,1,0,NA,NA,NA,NA,1,statements,Reduce the likelihood of me getting the virus,1,17/06/2021 12:40,17/06/2021 12:47,IP Address,For (I feel positively about the vaccines),Rarely,A few times a year,20,Female,NA,A levels,control,22,1,For,For
23,1659955461334,08/08/2022 10:44:21,1659955462648,1,08/08/2022 11:44:22,94118,2,task-ig1e,NA,23522259,6893659,NA,complete,NA,62f0e891bdeca844a36ac6ab,computer,Desktop or Laptop,Windows 10,Firefox 103.0,1366x768,1366x615,NA,ITT Ratings,2,against,3,NA,ACCEPT,NA,NA,NA,NA,NA,NA,NA,NA,batch3pro,batch3pro,26,21,1,Screen 1,continueButton,response_rating_scale_likert_active,7571,NA,NA,Disagree,1,0,1,0,NA,NA,NA,NA,1,statements,I have family members which could be vulnerable and so do not want to catch the virus.,1,17/06/2021 12:39,17/06/2021 12:47,IP Address,For (I feel positively about the vaccines),Rarely,A few times a year,22,Male,NA,"Undergraduate degree (BSc, BA)",choice,24,2,For,For
24,1659955463782,08/08/2022 10:44:23,1659955465085,1,08/08/2022 11:44:25,94118,2,task-ig1e,NA,23522259,6893659,NA,complete,NA,62f0e891bdeca844a36ac6ab,computer,Desktop or Laptop,Windows 10,Firefox 103.0,1366x768,1366x615,NA,ITT Ratings,2,against,3,NA,ACCEPT,NA,NA,NA,NA,NA,NA,NA,NA,batch3pro,batch3pro,22,22,1,Screen 1,continueButton,response_rating_scale_likert_active,2429,NA,NA,Neither Agree nor Disagree,1,0,1,0,NA,NA,NA,NA,1,statements,I do not think the vaccines are safe.,1,17/06/2021 12:39,17/06/2021 12:47,IP Address,For (I feel positively about the vaccines),Rarely,A few times a year,22,Male,NA,"Undergraduate degree (BSc, BA)",choice,24,1,For,Against
25,1659955466337,08/08/2022 10:44:26,1659955467644,1,08/08/2022 11:44:27,94118,2,task-ig1e,NA,23522259,6893659,NA,complete,NA,62f0e891bdeca844a36ac6ab,computer,Desktop or Laptop,Windows 10,Firefox 103.0,1366x768,1366x615,NA,ITT Ratings,2,against,3,NA,ACCEPT,NA,NA,NA,NA,NA,NA,NA,NA,batch3pro,batch3pro,16,23,1,Screen 1,continueButton,response_rating_scale_likert_active,2550,NA,NA,Agree,1,0,1,0,NA,NA,NA,NA,1,statements,The vaccines haven't been tested enough for specific groups which I consider to be in.,1,17/06/2021 12:31,17/06/2021 12:47,IP Address,For (I feel positively about the vaccines),Rarely,Most weeks,36,Male,NA,"Undergraduate degree (BSc, BA)",control,23,1,For,Against
26,1659955468376,08/08/2022 10:44:28,1659955469680,1,08/08/2022 11:44:29,94118,2,task-ig1e,NA,23522259,6893659,NA,complete,NA,62f0e891bdeca844a36ac6ab,computer,Desktop or Laptop,Windows 10,Firefox 103.0,1366x768,1366x615,NA,ITT Ratings,2,against,3,NA,ACCEPT,NA,NA,NA,NA,NA,NA,NA,NA,batch3pro,batch3pro,41,24,1,Screen 1,continueButton,response_rating_scale_likert_active,2027,NA,NA,Neither Agree nor Disagree,1,0,1,0,NA,NA,NA,NA,1,statements,The vaccine is not safe.,1,17/06/2021 12:43,17/06/2021 12:51,IP Address,For (I feel positively about the vaccines),Rarely,Rarely,32,Female,NA,"Postgraduate degree (MSc, MA, MPhil)",choice,27,2,For,Against
27,1659955471235,08/08/2022 10:44:31,1659955472548,1,08/08/2022 11:44:32,94118,2,task-ig1e,NA,23522259,6893659,NA,complete,NA,62f0e891bdeca844a36ac6ab,computer,Desktop or Laptop,Windows 10,Firefox 103.0,1366x768,1366x615,NA,ITT Ratings,2,against,3,NA,ACCEPT,NA,NA,NA,NA,NA,NA,NA,NA,batch3pro,batch3pro,11,25,1,Screen 1,continueButton,response_rating_scale_likert_active,2860,NA,NA,Agree,1,0,1,0,NA,NA,NA,NA,1,statements,Developed in a short timeframe,1,17/06/2021 12:40,17/06/2021 12:47,IP Address,For (I feel positively about the vaccines),Rarely,A few times a year,20,Female,NA,A levels,control,22,2,For,Against
28,1659955476773,08/08/2022 10:44:36,1659955478081,1,08/08/2022 11:44:38,94118,2,task-ig1e,NA,23522259,6893659,NA,complete,NA,62f0e891bdeca844a36ac6ab,computer,Desktop or Laptop,Windows 10,Firefox 103.0,1366x768,1366x615,NA,ITT Ratings,2,against,3,NA,ACCEPT,NA,NA,NA,NA,NA,NA,NA,NA,batch3pro,batch3pro,61,26,1,Screen 1,continueButton,response_rating_scale_likert_active,5523,NA,NA,Strongly Disagree,1,0,1,0,NA,NA,NA,NA,1,statements,It will protect myself and the people around me and therefore I want to be vaccinated.,1,17/06/2021 12:32,17/06/2021 12:52,IP Address,For (I feel positively about the vaccines),Never,Most weeks,21,Female,NA,A levels,control,30,1,For,For
29,1659955480589,08/08/2022 10:44:40,1659955481893,1,08/08/2022 11:44:41,94118,2,task-ig1e,NA,23522259,6893659,NA,complete,NA,62f0e891bdeca844a36ac6ab,computer,Desktop or Laptop,Windows 10,Firefox 103.0,1366x768,1366x615,NA,ITT Ratings,2,against,3,NA,ACCEPT,NA,NA,NA,NA,NA,NA,NA,NA,batch3pro,batch3pro,3,27,1,Screen 1,continueButton,response_rating_scale_likert_active,3804,NA,NA,Somewhat Disagree,1,0,1,0,NA,NA,NA,NA,1,statements,We would like to check you are reading each argument carefully. Please select 'Somewhat Disagree' for this answer,1,NA,NA,NA,NA,NA,NA,NA,NA,NA,NA,NA,NA,check2,NA,NA
30,1659955482838,08/08/2022 10:44:42,1659955484144,1,08/08/2022 11:44:44,94118,2,task-ig1e,NA,23522259,6893659,NA,complete,NA,62f0e891bdeca844a36ac6ab,computer,Desktop or Laptop,Windows 10,Firefox 103.0,1366x768,1366x615,NA,ITT Ratings,2,against,3,NA,ACCEPT,NA,NA,NA,NA,NA,NA,NA,NA,batch3pro,batch3pro,42,28,1,Screen 1,continueButton,response_rating_scale_likert_active,2241,NA,NA,Somewhat Agree,1,0,1,0,NA,NA,NA,NA,1,statements,The vaccine has been rushed.,1,17/06/2021 12:43,17/06/2021 12:51,IP Address,For (I feel positively about the vaccines),Rarely,Rarely,32,Female,NA,"Postgraduate degree (MSc, MA, MPhil)",choice,27,3,For,Against
31,1659955490041,08/08/2022 10:44:50,1659955491349,1,08/08/2022 11:44:51,94118,2,task-ig1e,NA,23522259,6893659,NA,complete,NA,62f0e891bdeca844a36ac6ab,computer,Desktop or Laptop,Windows 10,Firefox 103.0,1366x768,1366x615,NA,ITT Ratings,2,against,3,NA,ACCEPT,NA,NA,NA,NA,NA,NA,NA,NA,batch3pro,batch3pro,30,29,1,Screen 1,continueButton,response_rating_scale_likert_active,7197,NA,NA,Agree,1,0,1,0,NA,NA,NA,NA,1,statements,"They were rushed, it usually takes year for vaccines to be developed safely",1,17/06/2021 12:27,17/06/2021 12:49,IP Address,For (I feel positively about the vaccines),Rarely,Most weeks,22,Male,NA,"GCSEs,Vocational Training / Apprenticeship",choice,25,3,For,Against
32,1659955492952,08/08/2022 10:44:52,1659955494229,1,08/08/2022 11:44:54,94118,2,task-ig1e,NA,23522259,6893659,NA,complete,NA,62f0e891bdeca844a36ac6ab,computer,Desktop or Laptop,Windows 10,Firefox 103.0,1366x768,1366x615,NA,ITT Ratings,2,against,3,NA,ACCEPT,NA,NA,NA,NA,NA,NA,NA,NA,batch3pro,batch3pro,23,30,1,Screen 1,continueButton,response_rating_scale_likert_active,2861,NA,NA,Neither Agree nor Disagree,1,0,1,0,NA,NA,NA,NA,1,statements,"I am young and so covid does not pose much risk to me, so I don't care about getting a vaccine.",1,17/06/2021 12:39,17/06/2021 12:47,IP Address,For (I feel positively about the vaccines),Rarely,A few times a year,22,Male,NA,"Undergraduate degree (BSc, BA)",choice,24,2,For,Against
33,1659955495766,08/08/2022 10:44:55,1659955497075,1,08/08/2022 11:44:57,94118,2,task-ig1e,NA,23522259,6893659,NA,complete,NA,62f0e891bdeca844a36ac6ab,computer,Desktop or Laptop,Windows 10,Firefox 103.0,1366x768,1366x615,NA,ITT Ratings,2,against,3,NA,ACCEPT,NA,NA,NA,NA,NA,NA,NA,NA,batch3pro,batch3pro,45,31,1,Screen 1,continueButton,response_rating_scale_likert_active,2835,NA,NA,Strongly Disagree,1,0,1,0,NA,NA,NA,NA,1,statements,It will stop Covid spreading and create herd immunity.,1,17/06/2021 12:43,17/06/2021 12:51,IP Address,For (I feel positively about the vaccines),Rarely,Rarely,32,Female,NA,"Postgraduate degree (MSc, MA, MPhil)",choice,27,3,For,For
34,1659955497628,08/08/2022 10:44:57,1659955498934,1,08/08/2022 11:44:58,94118,2,task-ig1e,NA,23522259,6893659,NA,complete,NA,62f0e891bdeca844a36ac6ab,computer,Desktop or Laptop,Windows 10,Firefox 103.0,1366x768,1366x615,NA,ITT Ratings,2,against,3,NA,ACCEPT,NA,NA,NA,NA,NA,NA,NA,NA,batch3pro,batch3pro,14,32,1,Screen 1,continueButton,response_rating_scale_likert_active,1848,NA,NA,Strongly Disagree,1,0,1,0,NA,NA,NA,NA,1,statements,Reducing the spread of the virus,1,17/06/2021 12:40,17/06/2021 12:47,IP Address,For (I feel positively about the vaccines),Rarely,A few times a year,20,Female,NA,A levels,control,22,2,For,For
35,1659955500828,08/08/2022 10:45:00,1659955502143,1,08/08/2022 11:45:02,94118,2,task-ig1e,NA,23522259,6893659,NA,complete,NA,62f0e891bdeca844a36ac6ab,computer,Desktop or Laptop,Windows 10,Firefox 103.0,1366x768,1366x615,NA,ITT Ratings,2,against,3,NA,ACCEPT,NA,NA,NA,NA,NA,NA,NA,NA,batch3pro,batch3pro,47,33,1,Screen 1,continueButton,response_rating_scale_likert_active,3201,NA,NA,Neither Agree nor Disagree,1,0,1,0,NA,NA,NA,NA,1,statements,There are other ways to mitigate the impact of the disease and vaccination isn't necessary,1,17/06/2021 12:28,17/06/2021 12:51,IP Address,For (I feel positively about the vaccines),Rarely,Most weeks,41,Male,NA,Doctorate (PhD),control,28,2,For,Against
36,1659955506024,08/08/2022 10:45:06,1659955507337,1,08/08/2022 11:45:07,94118,2,task-ig1e,NA,23522259,6893659,NA,complete,NA,62f0e891bdeca844a36ac6ab,computer,Desktop or Laptop,Windows 10,Firefox 103.0,1366x768,1366x615,NA,ITT Ratings,2,against,3,NA,ACCEPT,NA,NA,NA,NA,NA,NA,NA,NA,batch3pro,batch3pro,59,34,1,Screen 1,continueButton,response_rating_scale_likert_active,5186,NA,NA,Agree,1,0,1,0,NA,NA,NA,NA,1,statements,I'm worried I will get long term effects from the vaccine or be effected negatively by it.,1,17/06/2021 12:32,17/06/2021 12:52,IP Address,For (I feel positively about the vaccines),Never,Most weeks,21,Female,NA,A levels,control,30,2,For,Against
37,1659955508894,08/08/2022 10:45:08,1659955510197,1,08/08/2022 11:45:10,94118,2,task-ig1e,NA,23522259,6893659,NA,complete,NA,62f0e891bdeca844a36ac6ab,computer,Desktop or Laptop,Windows 10,Firefox 103.0,1366x768,1366x615,NA,ITT Ratings,2,against,3,NA,ACCEPT,NA,NA,NA,NA,NA,NA,NA,NA,batch3pro,batch3pro,35,35,1,Screen 1,continueButton,response_rating_scale_likert_active,2849,NA,NA,Agree,1,0,1,0,NA,NA,NA,NA,1,statements,"Not enough evidence, not enough time and research done",1,17/06/2021 12:44,17/06/2021 12:49,IP Address,For (I feel positively about the vaccines),A few times a year,Most weeks,29,Male,NA,"Undergraduate degree (BSc, BA)",control,26,2,For,Against
38,1659955511554,08/08/2022 10:45:11,1659955512859,1,08/08/2022 11:45:12,94118,2,task-ig1e,NA,23522259,6893659,NA,complete,NA,62f0e891bdeca844a36ac6ab,computer,Desktop or Laptop,Windows 10,Firefox 103.0,1366x768,1366x615,NA,ITT Ratings,2,against,3,NA,ACCEPT,NA,NA,NA,NA,NA,NA,NA,NA,batch3pro,batch3pro,55,36,1,Screen 1,continueButton,response_rating_scale_likert_active,2651,NA,NA,Somewhat Agree,1,0,1,0,NA,NA,NA,NA,1,statements,I want to protect myself from COVID-19,1,17/06/2021 12:41,17/06/2021 12:51,IP Address,For (I feel positively about the vaccines),Rarely,Once or twice a year,32,Male,NA,"Undergraduate degree (BSc, BA)",control,29,1,For,For
39,1659955517458,08/08/2022 10:45:17,1659955518762,1,08/08/2022 11:45:18,94118,2,task-ig1e,NA,23522259,6893659,NA,complete,NA,62f0e891bdeca844a36ac6ab,computer,Desktop or Laptop,Windows 10,Firefox 103.0,1366x768,1366x615,NA,ITT Ratings,2,against,3,NA,ACCEPT,NA,NA,NA,NA,NA,NA,NA,NA,batch3pro,batch3pro,63,37,1,Screen 1,continueButton,response_rating_scale_likert_active,5893,NA,NA,Strongly Disagree,1,0,1,0,NA,NA,NA,NA,1,statements,The vaccine will also help prevent any long term serious effects from contracting covid.,1,17/06/2021 12:32,17/06/2021 12:52,IP Address,For (I feel positively about the vaccines),Never,Most weeks,21,Female,NA,A levels,control,30,3,For,For
40,1659955520445,08/08/2022 10:45:20,1659955521751,1,08/08/2022 11:45:21,94118,2,task-ig1e,NA,23522259,6893659,NA,complete,NA,62f0e891bdeca844a36ac6ab,computer,Desktop or Laptop,Windows 10,Firefox 103.0,1366x768,1366x615,NA,ITT Ratings,2,against,3,NA,ACCEPT,NA,NA,NA,NA,NA,NA,NA,NA,batch3pro,batch3pro,29,38,1,Screen 1,continueButton,response_rating_scale_likert_active,2977,NA,NA,Disagree,1,0,1,0,NA,NA,NA,NA,1,statements,They are unsafe because I watch the news,1,17/06/2021 12:27,17/06/2021 12:49,IP Address,For (I feel positively about the vaccines),Rarely,Most weeks,22,Male,NA,"GCSEs,Vocational Training / Apprenticeship",choice,25,2,For,Against
41,1659955523268,08/08/2022 10:45:23,1659955524582,1,08/08/2022 11:45:24,94118,2,task-ig1e,NA,23522259,6893659,NA,complete,NA,62f0e891bdeca844a36ac6ab,computer,Desktop or Laptop,Windows 10,Firefox 103.0,1366x768,1366x615,NA,ITT Ratings,2,against,3,NA,ACCEPT,NA,NA,NA,NA,NA,NA,NA,NA,batch3pro,batch3pro,12,39,1,Screen 1,continueButton,response_rating_scale_likert_active,2823,NA,NA,Disagree,1,0,1,0,NA,NA,NA,NA,1,statements,Government controls us through vaccines,1,17/06/2021 12:40,17/06/2021 12:47,IP Address,For (I feel positively about the vaccines),Rarely,A few times a year,20,Female,NA,A levels,control,22,3,For,Against
42,1659955527569,08/08/2022 10:45:27,1659955528884,1,08/08/2022 11:45:28,94118,2,task-ig1e,NA,23522259,6893659,NA,complete,NA,62f0e891bdeca844a36ac6ab,computer,Desktop or Laptop,Windows 10,Firefox 103.0,1366x768,1366x615,NA,ITT Ratings,2,against,3,NA,ACCEPT,NA,NA,NA,NA,NA,NA,NA,NA,batch3pro,batch3pro,38,40,1,Screen 1,continueButton,response_rating_scale_likert_active,4292,NA,NA,Strongly Disagree,1,0,1,0,NA,NA,NA,NA,1,statements,It should be a requirement and safeguards public,1,17/06/2021 12:44,17/06/2021 12:49,IP Address,For (I feel positively about the vaccines),A few times a year,Most weeks,29,Male,NA,"Undergraduate degree (BSc, BA)",control,26,2,For,For
43,1659955530568,08/08/2022 10:45:30,1659955531879,1,08/08/2022 11:45:31,94118,2,task-ig1e,NA,23522259,6893659,NA,complete,NA,62f0e891bdeca844a36ac6ab,computer,Desktop or Laptop,Windows 10,Firefox 103.0,1366x768,1366x615,NA,ITT Ratings,2,against,3,NA,ACCEPT,NA,NA,NA,NA,NA,NA,NA,NA,batch3pro,batch3pro,6,41,1,Screen 1,continueButton,response_rating_scale_likert_active,2985,NA,NA,Neither Agree nor Disagree,1,0,1,0,NA,NA,NA,NA,1,statements,I don't believe the vaccine will work,1,17/06/2021 12:39,17/06/2021 12:46,IP Address,For (I feel positively about the vaccines),Most months,Rarely,34,Female,NA,"Undergraduate degree (BSc, BA)",control,21,3,For,Against
44,1659955533346,08/08/2022 10:45:33,1659955534661,1,08/08/2022 11:45:34,94118,2,task-ig1e,NA,23522259,6893659,NA,complete,NA,62f0e891bdeca844a36ac6ab,computer,Desktop or Laptop,Windows 10,Firefox 103.0,1366x768,1366x615,NA,ITT Ratings,2,against,3,NA,ACCEPT,NA,NA,NA,NA,NA,NA,NA,NA,batch3pro,batch3pro,57,42,1,Screen 1,continueButton,response_rating_scale_likert_active,2774,NA,NA,Neither Agree nor Disagree,1,0,1,0,NA,NA,NA,NA,1,statements,I want to follow the government advice,1,17/06/2021 12:41,17/06/2021 12:51,IP Address,For (I feel positively about the vaccines),Rarely,Once or twice a year,32,Male,NA,"Undergraduate degree (BSc, BA)",control,29,3,For,For
45,1659955536447,08/08/2022 10:45:36,1659955537754,1,08/08/2022 11:45:37,94118,2,task-ig1e,NA,23522259,6893659,NA,complete,NA,62f0e891bdeca844a36ac6ab,computer,Desktop or Laptop,Windows 10,Firefox 103.0,1366x768,1366x615,NA,ITT Ratings,2,against,3,NA,ACCEPT,NA,NA,NA,NA,NA,NA,NA,NA,batch3pro,batch3pro,9,43,1,Screen 1,continueButton,response_rating_scale_likert_active,3085,NA,NA,Agree,1,0,1,0,NA,NA,NA,NA,1,statements,I want to be able to see my friends and family,1,17/06/2021 12:39,17/06/2021 12:46,IP Address,For (I feel positively about the vaccines),Most months,Rarely,34,Female,NA,"Undergraduate degree (BSc, BA)",control,21,3,For,For
46,1659955542968,08/08/2022 10:45:42,1659955544264,1,08/08/2022 11:45:44,94118,2,task-ig1e,NA,23522259,6893659,NA,complete,NA,62f0e891bdeca844a36ac6ab,computer,Desktop or Laptop,Windows 10,Firefox 103.0,1366x768,1366x615,NA,ITT Ratings,2,against,3,NA,ACCEPT,NA,NA,NA,NA,NA,NA,NA,NA,batch3pro,batch3pro,51,44,1,Screen 1,continueButton,response_rating_scale_likert_active,6501,NA,NA,Neither Agree nor Disagree,1,0,1,0,NA,NA,NA,NA,1,statements,The vaccine is safe and has been tested and the side effects are very rare and unlikely to occur,1,17/06/2021 12:28,17/06/2021 12:51,IP Address,For (I feel positively about the vaccines),Rarely,Most weeks,41,Male,NA,Doctorate (PhD),control,28,3,For,For
47,1659955546564,08/08/2022 10:45:46,1659955547881,1,08/08/2022 11:45:47,94118,2,task-ig1e,NA,23522259,6893659,NA,complete,NA,62f0e891bdeca844a36ac6ab,computer,Desktop or Laptop,Windows 10,Firefox 103.0,1366x768,1366x615,NA,ITT Ratings,2,against,3,NA,ACCEPT,NA,NA,NA,NA,NA,NA,NA,NA,batch3pro,batch3pro,2,45,1,Screen 1,continueButton,response_rating_scale_likert_active,3607,NA,NA,Somewhat Agree,1,0,1,0,NA,NA,NA,NA,1,statements,We would like to check you are reading each argument carefully. Please select 'Somewhat Agree' for this answer,1,NA,NA,NA,NA,NA,NA,NA,NA,NA,NA,NA,NA,check1,NA,NA
48,1659955551096,08/08/2022 10:45:51,1659955552393,1,08/08/2022 11:45:52,94118,2,task-ig1e,NA,23522259,6893659,NA,complete,NA,62f0e891bdeca844a36ac6ab,computer,Desktop or Laptop,Windows 10,Firefox 103.0,1366x768,1366x615,NA,ITT Ratings,2,against,3,NA,ACCEPT,NA,NA,NA,NA,NA,NA,NA,NA,batch3pro,batch3pro,43,46,1,Screen 1,continueButton,response_rating_scale_likert_active,4503,NA,NA,Somewhat Agree,1,0,1,0,NA,NA,NA,NA,1,statements,It's important to protect yourself and family.,1,17/06/2021 12:43,17/06/2021 12:51,IP Address,For (I feel positively about the vaccines),Rarely,Rarely,32,Female,NA,"Postgraduate degree (MSc, MA, MPhil)",choice,27,1,For,For
49,1659955557289,08/08/2022 10:45:57,1659955558593,1,08/08/2022 11:45:58,94118,2,task-ig1e,NA,23522259,6893659,NA,complete,NA,62f0e891bdeca844a36ac6ab,computer,Desktop or Laptop,Windows 10,Firefox 103.0,1366x768,1366x615,NA,ITT Ratings,2,against,3,NA,ACCEPT,NA,NA,NA,NA,NA,NA,NA,NA,batch3pro,batch3pro,54,47,1,Screen 1,continueButton,response_rating_scale_likert_active,6190,NA,NA,Strongly Disagree,1,0,1,0,NA,NA,NA,NA,1,statements,I'm a moron and think Bill Gates wants to put a microchip in me,1,17/06/2021 12:41,17/06/2021 12:51,IP Address,For (I feel positively about the vaccines),Rarely,Once or twice a year,32,Male,NA,"Undergraduate degree (BSc, BA)",control,29,3,For,Against
50,1659955615252,08/08/2022 10:46:55,1659955616551,1,08/08/2022 11:46:56,94118,2,task-ig1e,NA,23522259,6893659,NA,complete,NA,62f0e891bdeca844a36ac6ab,computer,Desktop or Laptop,Windows 10,Firefox 103.0,1366x768,1366x615,NA,ITT Ratings,2,against,3,NA,ACCEPT,NA,NA,NA,NA,NA,NA,NA,NA,batch3pro,batch3pro,56,48,1,Screen 1,continueButton,response_rating_scale_likert_active,57936,NA,NA,Strongly Disagree,1,0,1,0,NA,NA,NA,NA,1,statements,"I want to protect others from COVID-19, especially those who can't receive a vaccine",1,17/06/2021 12:41,17/06/2021 12:51,IP Address,For (I feel positively about the vaccines),Rarely,Once or twice a year,32,Male,NA,"Undergraduate degree (BSc, BA)",control,29,2,For,For
51,1659955624451,08/08/2022 10:47:04,1659955625758,1,08/08/2022 11:47:05,94118,2,task-ig1e,NA,23522259,6893659,NA,complete,NA,62f0e891bdeca844a36ac6ab,computer,Desktop or Laptop,Windows 10,Firefox 103.0,1366x768,1366x615,NA,ITT Ratings,2,against,3,NA,ACCEPT,NA,NA,NA,NA,NA,NA,NA,NA,batch3pro,batch3pro,46,49,1,Screen 1,continueButton,response_rating_scale_likert_active,9194,NA,NA,Agree,1,0,1,0,NA,NA,NA,NA,1,statements,The vaccine has been developed too quickly and has not been properly tested over a long period of time.,1,17/06/2021 12:28,17/06/2021 12:51,IP Address,For (I feel positively about the vaccines),Rarely,Most weeks,41,Male,NA,Doctorate (PhD),control,28,1,For,Against
52,1659955628538,08/08/2022 10:47:08,1659955629840,1,08/08/2022 11:47:09,94118,2,task-ig1e,NA,23522259,6893659,NA,complete,NA,62f0e891bdeca844a36ac6ab,computer,Desktop or Laptop,Windows 10,Firefox 103.0,1366x768,1366x615,NA,ITT Ratings,2,against,3,NA,ACCEPT,NA,NA,NA,NA,NA,NA,NA,NA,batch3pro,batch3pro,50,50,1,Screen 1,continueButton,response_rating_scale_likert_active,4061,NA,NA,Disagree,1,0,1,0,NA,NA,NA,NA,1,statements,It is the best and quickest way to get our society functioning again and get the economy going,1,17/06/2021 12:28,17/06/2021 12:51,IP Address,For (I feel positively about the vaccines),Rarely,Most weeks,41,Male,NA,Doctorate (PhD),control,28,2,For,For
53,1659955630684,08/08/2022 10:47:10,1659955631985,1,08/08/2022 11:47:11,94118,2,task-ig1e,NA,23522259,6893659,NA,complete,NA,62f0e891bdeca844a36ac6ab,computer,Desktop or Laptop,Windows 10,Firefox 103.0,1366x768,1366x615,NA,ITT Ratings,2,against,3,NA,ACCEPT,NA,NA,NA,NA,NA,NA,NA,NA,batch3pro,batch3pro,7,51,1,Screen 1,continueButton,response_rating_scale_likert_active,2132,NA,NA,Agree,1,0,1,0,NA,NA,NA,NA,1,statements,I want to get back to some form of normality,1,17/06/2021 12:39,17/06/2021 12:46,IP Address,For (I feel positively about the vaccines),Most months,Rarely,34,Female,NA,"Undergraduate degree (BSc, BA)",control,21,1,For,For
54,1659955634949,08/08/2022 10:47:14,1659955636255,1,08/08/2022 11:47:16,94118,2,task-ig1e,NA,23522259,6893659,NA,complete,NA,62f0e891bdeca844a36ac6ab,computer,Desktop or Laptop,Windows 10,Firefox 103.0,1366x768,1366x615,NA,ITT Ratings,2,against,3,NA,ACCEPT,NA,NA,NA,NA,NA,NA,NA,NA,batch3pro,batch3pro,34,52,1,Screen 1,continueButton,response_rating_scale_likert_active,4257,NA,NA,Neither Agree nor Disagree,1,0,1,0,NA,NA,NA,NA,1,statements,Chemicals are dangerous as not everyone understands the science,1,17/06/2021 12:44,17/06/2021 12:49,IP Address,For (I feel positively about the vaccines),A few times a year,Most weeks,29,Male,NA,"Undergraduate degree (BSc, BA)",control,26,1,For,Against
55,1659955637141,08/08/2022 10:47:17,1659955638434,1,08/08/2022 11:47:18,94118,2,task-ig1e,NA,23522259,6893659,NA,complete,NA,62f0e891bdeca844a36ac6ab,computer,Desktop or Laptop,Windows 10,Firefox 103.0,1366x768,1366x615,NA,ITT Ratings,2,against,3,NA,ACCEPT,NA,NA,NA,NA,NA,NA,NA,NA,batch3pro,batch3pro,40,53,1,Screen 1,continueButton,response_rating_scale_likert_active,2157,NA,NA,Neither Agree nor Disagree,1,0,1,0,NA,NA,NA,NA,1,statements,I don't believe in the vaccine.,1,17/06/2021 12:43,17/06/2021 12:51,IP Address,For (I feel positively about the vaccines),Rarely,Rarely,32,Female,NA,"Postgraduate degree (MSc, MA, MPhil)",choice,27,1,For,Against
56,1659955639901,08/08/2022 10:47:19,1659955641214,1,08/08/2022 11:47:21,94118,2,task-ig1e,NA,23522259,6893659,NA,complete,NA,62f0e891bdeca844a36ac6ab,computer,Desktop or Laptop,Windows 10,Firefox 103.0,1366x768,1366x615,NA,ITT Ratings,2,against,3,NA,ACCEPT,NA,NA,NA,NA,NA,NA,NA,NA,batch3pro,batch3pro,32,54,1,Screen 1,continueButton,response_rating_scale_likert_active,2771,NA,NA,Somewhat Agree,1,0,1,0,NA,NA,NA,NA,1,statements,To try to help go back to a normal way of life,1,17/06/2021 12:27,17/06/2021 12:49,IP Address,For (I feel positively about the vaccines),Rarely,Most weeks,22,Male,NA,"GCSEs,Vocational Training / Apprenticeship",choice,25,2,For,For
57,1659955645802,08/08/2022 10:47:25,1659955647109,1,08/08/2022 11:47:27,94118,2,task-ig1e,NA,23522259,6893659,NA,complete,NA,62f0e891bdeca844a36ac6ab,computer,Desktop or Laptop,Windows 10,Firefox 103.0,1366x768,1366x615,NA,ITT Ratings,2,against,3,NA,ACCEPT,NA,NA,NA,NA,NA,NA,NA,NA,batch3pro,batch3pro,39,55,1,Screen 1,continueButton,response_rating_scale_likert_active,5884,NA,NA,Neither Agree nor Disagree,1,0,1,0,NA,NA,NA,NA,1,statements,I am not completely f*cking insane,1,17/06/2021 12:44,17/06/2021 12:49,IP Address,For (I feel positively about the vaccines),A few times a year,Most weeks,29,Male,NA,"Undergraduate degree (BSc, BA)",control,26,3,For,For
58,1659955652136,08/08/2022 10:47:32,1659955653443,1,08/08/2022 11:47:33,94118,2,task-ig1e,NA,23522259,6893659,NA,complete,NA,62f0e891bdeca844a36ac6ab,computer,Desktop or Laptop,Windows 10,Firefox 103.0,1366x768,1366x615,NA,ITT Ratings,2,against,3,NA,ACCEPT,NA,NA,NA,NA,NA,NA,NA,NA,batch3pro,batch3pro,48,56,1,Screen 1,continueButton,response_rating_scale_likert_active,6316,NA,NA,Agree,1,0,1,0,NA,NA,NA,NA,1,statements,I think that the vaccine might cause side effects that might be worse than the disease itself and that having a vaccine is not worth the risk,1,17/06/2021 12:28,17/06/2021 12:51,IP Address,For (I feel positively about the vaccines),Rarely,Most weeks,41,Male,NA,Doctorate (PhD),control,28,3,For,Against
59,1659955654244,08/08/2022 10:47:34,1659955655549,1,08/08/2022 11:47:35,94118,2,task-ig1e,NA,23522259,6893659,NA,complete,NA,62f0e891bdeca844a36ac6ab,computer,Desktop or Laptop,Windows 10,Firefox 103.0,1366x768,1366x615,NA,ITT Ratings,2,against,3,NA,ACCEPT,NA,NA,NA,NA,NA,NA,NA,NA,batch3pro,batch3pro,44,57,1,Screen 1,continueButton,response_rating_scale_likert_active,2091,NA,NA,Somewhat Agree,1,0,1,0,NA,NA,NA,NA,1,statements,We're lucky to be in a position to have a vaccine.,1,17/06/2021 12:43,17/06/2021 12:51,IP Address,For (I feel positively about the vaccines),Rarely,Rarely,32,Female,NA,"Postgraduate degree (MSc, MA, MPhil)",choice,27,2,For,For
60,1659955657111,08/08/2022 10:47:37,1659955658416,1,08/08/2022 11:47:38,94118,2,task-ig1e,NA,23522259,6893659,NA,complete,NA,62f0e891bdeca844a36ac6ab,computer,Desktop or Laptop,Windows 10,Firefox 103.0,1366x768,1366x615,NA,ITT Ratings,2,against,3,NA,ACCEPT,NA,NA,NA,NA,NA,NA,NA,NA,batch3pro,batch3pro,28,58,1,Screen 1,continueButton,response_rating_scale_likert_active,2855,NA,NA,Agree,1,0,1,0,NA,NA,NA,NA,1,statements,It can cause long term damage like blood clots,1,17/06/2021 12:27,17/06/2021 12:49,IP Address,For (I feel positively about the vaccines),Rarely,Most weeks,22,Male,NA,"GCSEs,Vocational Training / Apprenticeship",choice,25,1,For,Against
61,1659955660087,08/08/2022 10:47:40,1659955661386,1,08/08/2022 11:47:41,94118,2,task-ig1e,NA,23522259,6893659,NA,complete,NA,62f0e891bdeca844a36ac6ab,computer,Desktop or Laptop,Windows 10,Firefox 103.0,1366x768,1366x615,NA,ITT Ratings,2,against,3,NA,ACCEPT,NA,NA,NA,NA,NA,NA,NA,NA,batch3pro,batch3pro,25,59,1,Screen 1,continueButton,response_rating_scale_likert_active,2960,NA,NA,Somewhat Agree,1,0,1,0,NA,NA,NA,NA,1,statements,I want to be able to go to events or travel abroad.,1,17/06/2021 12:39,17/06/2021 12:47,IP Address,For (I feel positively about the vaccines),Rarely,A few times a year,22,Male,NA,"Undergraduate degree (BSc, BA)",choice,24,1,For,For
62,1659955662593,08/08/2022 10:47:42,1659955663903,1,08/08/2022 11:47:43,94118,2,task-ig1e,NA,23522259,6893659,NA,complete,NA,62f0e891bdeca844a36ac6ab,computer,Desktop or Laptop,Windows 10,Firefox 103.0,1366x768,1366x615,NA,ITT Ratings,2,against,3,NA,ACCEPT,NA,NA,NA,NA,NA,NA,NA,NA,batch3pro,batch3pro,17,60,1,Screen 1,continueButton,response_rating_scale_likert_active,2508,NA,NA,Agree,1,0,1,0,NA,NA,NA,NA,1,statements,The vaccines haven't been in general circulation long enough to fully understand any longer term health implications.,1,17/06/2021 12:31,17/06/2021 12:47,IP Address,For (I feel positively about the vaccines),Rarely,Most weeks,36,Male,NA,"Undergraduate degree (BSc, BA)",control,23,2,For,Against
63,1659955664328,08/08/2022 10:47:44,1659955665624,1,08/08/2022 11:47:45,94118,2,task-ig1e,NA,23522259,6893659,NA,complete,NA,62f0e891bdeca844a36ac6ab,computer,Desktop or Laptop,Windows 10,Firefox 103.0,1366x768,1366x615,NA,ITT Ratings,2,against,3,NA,ACCEPT,NA,NA,NA,NA,NA,NA,NA,NA,batch3pro,batch3pro,58,61,1,Screen 1,continueButton,response_rating_scale_likert_active,1713,NA,NA,Agree,1,0,1,0,NA,NA,NA,NA,1,statements,I fear that the vaccine isn't safe.,1,17/06/2021 12:32,17/06/2021 12:52,IP Address,For (I feel positively about the vaccines),Never,Most weeks,21,Female,NA,A levels,control,30,1,For,Against
64,1659955670708,08/08/2022 10:47:50,1659955672020,1,08/08/2022 11:47:52,94118,2,task-ig1e,NA,23522259,6893659,NA,complete,NA,62f0e891bdeca844a36ac6ab,computer,Desktop or Laptop,Windows 10,Firefox 103.0,1366x768,1366x615,NA,ITT Ratings,2,against,3,NA,ACCEPT,NA,NA,NA,NA,NA,NA,NA,NA,batch3pro,batch3pro,19,62,1,Screen 1,continueButton,response_rating_scale_likert_active,6387,NA,NA,Neither Agree nor Disagree,1,0,1,0,NA,NA,NA,NA,1,statements,I believe the vaccine will provide the best protection against Covid-19 for myself and my families/friends.,1,17/06/2021 12:31,17/06/2021 12:47,IP Address,For (I feel positively about the vaccines),Rarely,Most weeks,36,Male,NA,"Undergraduate degree (BSc, BA)",control,23,1,For,For
65,1659955670779,08/08/2022 10:47:50,1659955672031,1,08/08/2022 11:47:52,94118,2,task-ig1e,NA,23522259,6893659,NA,complete,NA,62f0e891bdeca844a36ac6ab,computer,Desktop or Laptop,Windows 10,Firefox 103.0,1366x768,1366x615,NA,ITT Ratings,2,against,3,NA,ACCEPT,NA,NA,NA,NA,NA,NA,NA,NA,batch3pro,NA,NA,END TASK,NA,NA,NA,NA,290595,NA,NA,NA,NA,0,1,0,NA,NA,NA,NA,NA,NA,NA,NA,NA,NA,NA,NA,NA,NA,NA,NA,NA,NA,NA,NA,NA,NA,NA
1,1659955841959,08/08/2022 10:50:41,1659955832510,1,08/08/2022 11:50:32,94118,2,task-ig1e,NA,23522374,6893693,NA,complete,NA,62f0ea2fba64154086a3f720,computer,Desktop or Laptop,Windows 10,Chrome 103.0.0.0,1366x768,1366x625,NA,ITT Ratings,2,against,3,NA,ACCEPT,NA,NA,NA,NA,NA,NA,NA,NA,batch3pro,NA,NA,BEGIN TASK,NA,NA,NA,NA,NA,NA,NA,NA,NA,0,1,0,NA,NA,NA,NA,NA,NA,NA,NA,NA,NA,NA,NA,NA,NA,NA,NA,NA,NA,NA,NA,NA,NA,NA
2,1659955854430,08/08/2022 10:50:54,1659955845034,1,08/08/2022 11:50:45,94118,2,task-ig1e,NA,23522374,6893693,NA,complete,NA,62f0ea2fba64154086a3f720,computer,Desktop or Laptop,Windows 10,Chrome 103.0.0.0,1366x768,1366x625,NA,ITT Ratings,2,against,3,NA,ACCEPT,NA,NA,NA,NA,NA,NA,NA,NA,batch3pro,batch3pro,1,1,1,Screen 1,advancementZone,continue_button,12430.300000190737,NA,NA,NA,NA,0,1,0,NA,NA,NA,NA,NA,instructions,NA,NA,NA,NA,NA,NA,NA,NA,NA,NA,NA,NA,NA,NA,NA,NA,NA
3,1659955859237,08/08/2022 10:50:59,1659955849856,1,08/08/2022 11:50:49,94118,2,task-ig1e,NA,23522374,6893693,NA,complete,NA,62f0ea2fba64154086a3f720,computer,Desktop or Laptop,Windows 10,Chrome 103.0.0.0,1366x768,1366x625,NA,ITT Ratings,2,against,3,NA,ACCEPT,NA,NA,NA,NA,NA,NA,NA,NA,batch3pro,batch3pro,19,1,1,Screen 1,continueButton,response_rating_scale_likert_active,4788,NA,NA,Disagree,1,0,1,0,NA,NA,NA,NA,1,statements,I believe the vaccine will provide the best protection against Covid-19 for myself and my families/friends.,1,17/06/2021 12:31,17/06/2021 12:47,IP Address,For (I feel positively about the vaccines),Rarely,Most weeks,36,Male,NA,"Undergraduate degree (BSc, BA)",control,23,1,For,For
4,1659955863734,08/08/2022 10:51:03,1659955854342,1,08/08/2022 11:50:54,94118,2,task-ig1e,NA,23522374,6893693,NA,complete,NA,62f0ea2fba64154086a3f720,computer,Desktop or Laptop,Windows 10,Chrome 103.0.0.0,1366x768,1366x625,NA,ITT Ratings,2,against,3,NA,ACCEPT,NA,NA,NA,NA,NA,NA,NA,NA,batch3pro,batch3pro,42,2,1,Screen 1,continueButton,response_rating_scale_likert_active,4455.099999904633,NA,NA,Strongly Agree,1,0,1,0,NA,NA,NA,NA,1,statements,The vaccine has been rushed.,1,17/06/2021 12:43,17/06/2021 12:51,IP Address,For (I feel positively about the vaccines),Rarely,Rarely,32,Female,NA,"Postgraduate degree (MSc, MA, MPhil)",choice,27,3,For,Against
5,1659955869506,08/08/2022 10:51:09,1659955860102,1,08/08/2022 11:51:00,94118,2,task-ig1e,NA,23522374,6893693,NA,complete,NA,62f0ea2fba64154086a3f720,computer,Desktop or Laptop,Windows 10,Chrome 103.0.0.0,1366x768,1366x625,NA,ITT Ratings,2,against,3,NA,ACCEPT,NA,NA,NA,NA,NA,NA,NA,NA,batch3pro,batch3pro,29,3,1,Screen 1,continueButton,response_rating_scale_likert_active,5721.599999904633,NA,NA,Somewhat Disagree,1,0,1,0,NA,NA,NA,NA,1,statements,They are unsafe because I watch the news,1,17/06/2021 12:27,17/06/2021 12:49,IP Address,For (I feel positively about the vaccines),Rarely,Most weeks,22,Male,NA,"GCSEs,Vocational Training / Apprenticeship",choice,25,2,For,Against
6,1659955873621,08/08/2022 10:51:13,1659955864238,1,08/08/2022 11:51:04,94118,2,task-ig1e,NA,23522374,6893693,NA,complete,NA,62f0ea2fba64154086a3f720,computer,Desktop or Laptop,Windows 10,Chrome 103.0.0.0,1366x768,1366x625,NA,ITT Ratings,2,against,3,NA,ACCEPT,NA,NA,NA,NA,NA,NA,NA,NA,batch3pro,batch3pro,57,4,1,Screen 1,continueButton,response_rating_scale_likert_active,4106.599999904633,NA,NA,Disagree,1,0,1,0,NA,NA,NA,NA,1,statements,I want to follow the government advice,1,17/06/2021 12:41,17/06/2021 12:51,IP Address,For (I feel positively about the vaccines),Rarely,Once or twice a year,32,Male,NA,"Undergraduate degree (BSc, BA)",control,29,3,For,For
7,1659955878179,08/08/2022 10:51:18,1659955868797,1,08/08/2022 11:51:08,94118,2,task-ig1e,NA,23522374,6893693,NA,complete,NA,62f0ea2fba64154086a3f720,computer,Desktop or Laptop,Windows 10,Chrome 103.0.0.0,1366x768,1366x625,NA,ITT Ratings,2,against,3,NA,ACCEPT,NA,NA,NA,NA,NA,NA,NA,NA,batch3pro,batch3pro,23,5,1,Screen 1,continueButton,response_rating_scale_likert_active,4537.800000190735,NA,NA,Disagree,1,0,1,0,NA,NA,NA,NA,1,statements,"I am young and so covid does not pose much risk to me, so I don't care about getting a vaccine.",1,17/06/2021 12:39,17/06/2021 12:47,IP Address,For (I feel positively about the vaccines),Rarely,A few times a year,22,Male,NA,"Undergraduate degree (BSc, BA)",choice,24,2,For,Against
8,1659955883236,08/08/2022 10:51:23,1659955873855,1,08/08/2022 11:51:13,94118,2,task-ig1e,NA,23522374,6893693,NA,complete,NA,62f0ea2fba64154086a3f720,computer,Desktop or Laptop,Windows 10,Chrome 103.0.0.0,1366x768,1366x625,NA,ITT Ratings,2,against,3,NA,ACCEPT,NA,NA,NA,NA,NA,NA,NA,NA,batch3pro,batch3pro,34,6,1,Screen 1,continueButton,response_rating_scale_likert_active,5030.300000190735,NA,NA,Somewhat Agree,1,0,1,0,NA,NA,NA,NA,1,statements,Chemicals are dangerous as not everyone understands the science,1,17/06/2021 12:44,17/06/2021 12:49,IP Address,For (I feel positively about the vaccines),A few times a year,Most weeks,29,Male,NA,"Undergraduate degree (BSc, BA)",control,26,1,For,Against
9,1659955888656,08/08/2022 10:51:28,1659955879277,1,08/08/2022 11:51:19,94118,2,task-ig1e,NA,23522374,6893693,NA,complete,NA,62f0ea2fba64154086a3f720,computer,Desktop or Laptop,Windows 10,Chrome 103.0.0.0,1366x768,1366x625,NA,ITT Ratings,2,against,3,NA,ACCEPT,NA,NA,NA,NA,NA,NA,NA,NA,batch3pro,batch3pro,39,7,1,Screen 1,continueButton,response_rating_scale_likert_active,5394.599999904633,NA,NA,Somewhat Disagree,1,0,1,0,NA,NA,NA,NA,1,statements,I am not completely f*cking insane,1,17/06/2021 12:44,17/06/2021 12:49,IP Address,For (I feel positively about the vaccines),A few times a year,Most weeks,29,Male,NA,"Undergraduate degree (BSc, BA)",control,26,3,For,For
10,1659955893147,08/08/2022 10:51:33,1659955883765,1,08/08/2022 11:51:23,94118,2,task-ig1e,NA,23522374,6893693,NA,complete,NA,62f0ea2fba64154086a3f720,computer,Desktop or Laptop,Windows 10,Chrome 103.0.0.0,1366x768,1366x625,NA,ITT Ratings,2,against,3,NA,ACCEPT,NA,NA,NA,NA,NA,NA,NA,NA,batch3pro,batch3pro,47,8,1,Screen 1,continueButton,response_rating_scale_likert_active,4466.799999952316,NA,NA,Somewhat Disagree,1,0,1,0,NA,NA,NA,NA,1,statements,There are other ways to mitigate the impact of the disease and vaccination isn't necessary,1,17/06/2021 12:28,17/06/2021 12:51,IP Address,For (I feel positively about the vaccines),Rarely,Most weeks,41,Male,NA,Doctorate (PhD),control,28,2,For,Against
11,1659955897064,08/08/2022 10:51:37,1659955887686,1,08/08/2022 11:51:27,94118,2,task-ig1e,NA,23522374,6893693,NA,complete,NA,62f0ea2fba64154086a3f720,computer,Desktop or Laptop,Windows 10,Chrome 103.0.0.0,1366x768,1366x625,NA,ITT Ratings,2,against,3,NA,ACCEPT,NA,NA,NA,NA,NA,NA,NA,NA,batch3pro,batch3pro,12,9,1,Screen 1,continueButton,response_rating_scale_likert_active,3894.599999904633,NA,NA,Neither Agree nor Disagree,1,0,1,0,NA,NA,NA,NA,1,statements,Government controls us through vaccines,1,17/06/2021 12:40,17/06/2021 12:47,IP Address,For (I feel positively about the vaccines),Rarely,A few times a year,20,Female,NA,A levels,control,22,3,For,Against
12,1659955900552,08/08/2022 10:51:40,1659955891166,1,08/08/2022 11:51:31,94118,2,task-ig1e,NA,23522374,6893693,NA,complete,NA,62f0ea2fba64154086a3f720,computer,Desktop or Laptop,Windows 10,Chrome 103.0.0.0,1366x768,1366x625,NA,ITT Ratings,2,against,3,NA,ACCEPT,NA,NA,NA,NA,NA,NA,NA,NA,batch3pro,batch3pro,40,10,1,Screen 1,continueButton,response_rating_scale_likert_active,3457.899999856949,NA,NA,Neither Agree nor Disagree,1,0,1,0,NA,NA,NA,NA,1,statements,I don't believe in the vaccine.,1,17/06/2021 12:43,17/06/2021 12:51,IP Address,For (I feel positively about the vaccines),Rarely,Rarely,32,Female,NA,"Postgraduate degree (MSc, MA, MPhil)",choice,27,1,For,Against
13,1659955905314,08/08/2022 10:51:45,1659955895925,1,08/08/2022 11:51:35,94118,2,task-ig1e,NA,23522374,6893693,NA,complete,NA,62f0ea2fba64154086a3f720,computer,Desktop or Laptop,Windows 10,Chrome 103.0.0.0,1366x768,1366x625,NA,ITT Ratings,2,against,3,NA,ACCEPT,NA,NA,NA,NA,NA,NA,NA,NA,batch3pro,batch3pro,53,11,1,Screen 1,continueButton,response_rating_scale_likert_active,4719,NA,NA,Strongly Disagree,1,0,1,0,NA,NA,NA,NA,1,statements,Scared of needles/injections,1,17/06/2021 12:41,17/06/2021 12:51,IP Address,For (I feel positively about the vaccines),Rarely,Once or twice a year,32,Male,NA,"Undergraduate degree (BSc, BA)",control,29,2,For,Against
14,1659955910942,08/08/2022 10:51:50,1659955901566,1,08/08/2022 11:51:41,94118,2,task-ig1e,NA,23522374,6893693,NA,complete,NA,62f0ea2fba64154086a3f720,computer,Desktop or Laptop,Windows 10,Chrome 103.0.0.0,1366x768,1366x625,NA,ITT Ratings,2,against,3,NA,ACCEPT,NA,NA,NA,NA,NA,NA,NA,NA,batch3pro,batch3pro,38,12,1,Screen 1,continueButton,response_rating_scale_likert_active,5615.599999904633,NA,NA,Somewhat Disagree,1,0,1,0,NA,NA,NA,NA,1,statements,It should be a requirement and safeguards public,1,17/06/2021 12:44,17/06/2021 12:49,IP Address,For (I feel positively about the vaccines),A few times a year,Most weeks,29,Male,NA,"Undergraduate degree (BSc, BA)",control,26,2,For,For
15,1659956034308,08/08/2022 10:53:54,1659956024886,1,08/08/2022 11:53:44,94118,2,task-ig1e,NA,23522374,6893693,NA,complete,NA,62f0ea2fba64154086a3f720,computer,Desktop or Laptop,Windows 10,Chrome 103.0.0.0,1366x768,1366x625,NA,ITT Ratings,2,against,3,NA,ACCEPT,NA,NA,NA,NA,NA,NA,NA,NA,batch3pro,batch3pro,16,13,1,Screen 1,continueButton,response_rating_scale_likert_active,123298.29999995232,NA,NA,Disagree,1,0,1,0,NA,NA,NA,NA,1,statements,The vaccines haven't been tested enough for specific groups which I consider to be in.,1,17/06/2021 12:31,17/06/2021 12:47,IP Address,For (I feel positively about the vaccines),Rarely,Most weeks,36,Male,NA,"Undergraduate degree (BSc, BA)",control,23,1,For,Against
16,1659956092912,08/08/2022 10:54:52,1659956083509,1,08/08/2022 11:54:43,94118,2,task-ig1e,NA,23522374,6893693,NA,complete,NA,62f0ea2fba64154086a3f720,computer,Desktop or Laptop,Windows 10,Chrome 103.0.0.0,1366x768,1366x625,NA,ITT Ratings,2,against,3,NA,ACCEPT,NA,NA,NA,NA,NA,NA,NA,NA,batch3pro,batch3pro,30,14,1,Screen 1,continueButton,response_rating_scale_likert_active,58598.20000004768,NA,NA,Neither Agree nor Disagree,1,0,1,0,NA,NA,NA,NA,1,statements,"They were rushed, it usually takes year for vaccines to be developed safely",1,17/06/2021 12:27,17/06/2021 12:49,IP Address,For (I feel positively about the vaccines),Rarely,Most weeks,22,Male,NA,"GCSEs,Vocational Training / Apprenticeship",choice,25,3,For,Against
17,1659956112995,08/08/2022 10:55:12,1659956103605,1,08/08/2022 11:55:03,94118,2,task-ig1e,NA,23522374,6893693,NA,complete,NA,62f0ea2fba64154086a3f720,computer,Desktop or Laptop,Windows 10,Chrome 103.0.0.0,1366x768,1366x625,NA,ITT Ratings,2,against,3,NA,ACCEPT,NA,NA,NA,NA,NA,NA,NA,NA,batch3pro,batch3pro,50,15,1,Screen 1,continueButton,response_rating_scale_likert_active,20071.5,NA,NA,Somewhat Agree,1,0,1,0,NA,NA,NA,NA,1,statements,It is the best and quickest way to get our society functioning again and get the economy going,1,17/06/2021 12:28,17/06/2021 12:51,IP Address,For (I feel positively about the vaccines),Rarely,Most weeks,41,Male,NA,Doctorate (PhD),control,28,2,For,For
18,1659956116684,08/08/2022 10:55:16,1659956107301,1,08/08/2022 11:55:07,94118,2,task-ig1e,NA,23522374,6893693,NA,complete,NA,62f0ea2fba64154086a3f720,computer,Desktop or Laptop,Windows 10,Chrome 103.0.0.0,1366x768,1366x625,NA,ITT Ratings,2,against,3,NA,ACCEPT,NA,NA,NA,NA,NA,NA,NA,NA,batch3pro,batch3pro,24,16,1,Screen 1,continueButton,response_rating_scale_likert_active,3679.900000095367,NA,NA,Strongly Agree,1,0,1,0,NA,NA,NA,NA,1,statements,I do not trust the companies making the vaccines.,1,17/06/2021 12:39,17/06/2021 12:47,IP Address,For (I feel positively about the vaccines),Rarely,A few times a year,22,Male,NA,"Undergraduate degree (BSc, BA)",choice,24,3,For,Against
19,1659956126974,08/08/2022 10:55:26,1659956117590,1,08/08/2022 11:55:17,94118,2,task-ig1e,NA,23522374,6893693,NA,complete,NA,62f0ea2fba64154086a3f720,computer,Desktop or Laptop,Windows 10,Chrome 103.0.0.0,1366x768,1366x625,NA,ITT Ratings,2,against,3,NA,ACCEPT,NA,NA,NA,NA,NA,NA,NA,NA,batch3pro,batch3pro,28,17,1,Screen 1,continueButton,response_rating_scale_likert_active,10268.300000190737,NA,NA,Neither Agree nor Disagree,1,0,1,0,NA,NA,NA,NA,1,statements,It can cause long term damage like blood clots,1,17/06/2021 12:27,17/06/2021 12:49,IP Address,For (I feel positively about the vaccines),Rarely,Most weeks,22,Male,NA,"GCSEs,Vocational Training / Apprenticeship",choice,25,1,For,Against
20,1659956148158,08/08/2022 10:55:48,1659956138775,1,08/08/2022 11:55:38,94118,2,task-ig1e,NA,23522374,6893693,NA,complete,NA,62f0ea2fba64154086a3f720,computer,Desktop or Laptop,Windows 10,Chrome 103.0.0.0,1366x768,1366x625,NA,ITT Ratings,2,against,3,NA,ACCEPT,NA,NA,NA,NA,NA,NA,NA,NA,batch3pro,batch3pro,18,18,1,Screen 1,continueButton,response_rating_scale_likert_active,21163.099999904633,NA,NA,Somewhat Disagree,1,0,1,0,NA,NA,NA,NA,1,statements,The vaccines are not completely effective so I see no point in having one,1,17/06/2021 12:31,17/06/2021 12:47,IP Address,For (I feel positively about the vaccines),Rarely,Most weeks,36,Male,NA,"Undergraduate degree (BSc, BA)",control,23,3,For,Against
21,1659956216923,08/08/2022 10:56:56,1659956207486,1,08/08/2022 11:56:47,94118,2,task-ig1e,NA,23522374,6893693,NA,complete,NA,62f0ea2fba64154086a3f720,computer,Desktop or Laptop,Windows 10,Chrome 103.0.0.0,1366x768,1366x625,NA,ITT Ratings,2,against,3,NA,ACCEPT,NA,NA,NA,NA,NA,NA,NA,NA,batch3pro,batch3pro,35,19,1,Screen 1,continueButton,response_rating_scale_likert_active,68690.5,NA,NA,Somewhat Agree,1,0,1,0,NA,NA,NA,NA,1,statements,"Not enough evidence, not enough time and research done",1,17/06/2021 12:44,17/06/2021 12:49,IP Address,For (I feel positively about the vaccines),A few times a year,Most weeks,29,Male,NA,"Undergraduate degree (BSc, BA)",control,26,2,For,Against
22,1659956219860,08/08/2022 10:56:59,1659956210469,1,08/08/2022 11:56:50,94118,2,task-ig1e,NA,23522374,6893693,NA,complete,NA,62f0ea2fba64154086a3f720,computer,Desktop or Laptop,Windows 10,Chrome 103.0.0.0,1366x768,1366x625,NA,ITT Ratings,2,against,3,NA,ACCEPT,NA,NA,NA,NA,NA,NA,NA,NA,batch3pro,batch3pro,2,20,1,Screen 1,continueButton,response_rating_scale_likert_active,2958.699999809265,NA,NA,Somewhat Agree,1,0,1,0,NA,NA,NA,NA,1,statements,We would like to check you are reading each argument carefully. Please select 'Somewhat Agree' for this answer,1,NA,NA,NA,NA,NA,NA,NA,NA,NA,NA,NA,NA,check1,NA,NA
