Event.Index,UTC.Timestamp,UTC.Date,Local.Timestamp,Local.Timezone,Local.Date,Experiment.ID,Experiment.Version,Tree.Node.Key,Repeat.Key,Schedule.ID,Participant.Private.ID,Participant.Starting.Group,Participant.Status,Participant.Completion.Code,Participant.External.Session.ID,Participant.Device.Type,Participant.Device,Participant.OS,Participant.Browser,Participant.Monitor.Size,Participant.Viewport.Size,Checkpoint,Task.Name,Task.Version,branch.69an,randomiser.8vg2,quota.bqtt,quota.rycs,quota.wtfi,quota.usve,quota.zgic,quota.f3yz,quota.r9vy,quota.tfqq,quota.3dga,quota.dtj6,Spreadsheet,Spreadsheet.Name,Spreadsheet.Row,Trial.Number,Screen.Number,Screen.Name,Zone.Name,Zone.Type,Reaction.Time,Reaction.Onset,Response.Type,Response,Attempt,Correct,Incorrect,Dishonest,X.Coordinate,Y.Coordinate,Timed.Out,randomise_blocks,randomise_trials,display,Arguments,ShowProgressBar,StartDate,EndDate,Status,prolif_check,discuss_1,read_1,age,gender,gender_4_TEXT,edu,condition,ID,arg_ID,Position,Arg_Position
1,1659950000000,08/08/2022 10:09,1659950000000,1,08/08/2022 11:09,94118,2,task-j4ag,NA,23521324,6893376,NA,complete,NA,62f0e0ab2d2fc7b623e8cfc3,computer,Desktop or Laptop,Windows 10,Chrome 103.0.0.0,1280x720,1280x577,NA,ITT Ratings,2,against,5,NA,NA,NA,ACCEPT,NA,NA,NA,NA,NA,NA,batch5pro,NA,NA,BEGIN TASK,NA,NA,NA,NA,NA,NA,NA,NA,NA,0,1,0,NA,NA,NA,NA,NA,NA,NA,NA,NA,NA,NA,NA,NA,NA,NA,NA,NA,NA,NA,NA,NA,NA,NA
2,1659950000000,08/08/2022 10:09,1659950000000,1,08/08/2022 11:09,94118,2,task-j4ag,NA,23521324,6893376,NA,complete,NA,62f0e0ab2d2fc7b623e8cfc3,computer,Desktop or Laptop,Windows 10,Chrome 103.0.0.0,1280x720,1280x577,NA,ITT Ratings,2,against,5,NA,NA,NA,ACCEPT,NA,NA,NA,NA,NA,NA,batch5pro,batch5pro,1,1,1,Screen 1,advancementZone,continue_button,5124.7,NA,NA,NA,NA,0,1,0,NA,NA,NA,NA,NA,instructions,NA,NA,NA,NA,NA,NA,NA,NA,NA,NA,NA,NA,NA,NA,NA,NA,NA
3,1659950000000,08/08/2022 10:09,1659950000000,1,08/08/2022 11:09,94118,2,task-j4ag,NA,23521324,6893376,NA,complete,NA,62f0e0ab2d2fc7b623e8cfc3,computer,Desktop or Laptop,Windows 10,Chrome 103.0.0.0,1280x720,1280x577,NA,ITT Ratings,2,against,5,NA,NA,NA,ACCEPT,NA,NA,NA,NA,NA,NA,batch5pro,batch5pro,4,1,1,Screen 1,continueButton,response_rating_scale_likert_active,16483.3,NA,NA,Somewhat Disagree,1,0,1,0,NA,NA,NA,NA,1,statements,A defunct or manipulated research paper is usually brought out on facebook to put into question the vaccines ability to stop transmitting.,1,17/06/2021 12:39,17/06/2021 12:54,IP Address,For (I feel positively about the vaccines),Rarely,Most months,38,Male,NA,"Undergraduate degree (BSc, BA)",choice,41,1,For,Against
4,1659950000000,08/08/2022 10:09,1659950000000,1,08/08/2022 11:09,94118,2,task-j4ag,NA,23521324,6893376,NA,complete,NA,62f0e0ab2d2fc7b623e8cfc3,computer,Desktop or Laptop,Windows 10,Chrome 103.0.0.0,1280x720,1280x577,NA,ITT Ratings,2,against,5,NA,NA,NA,ACCEPT,NA,NA,NA,NA,NA,NA,batch5pro,batch5pro,30,2,1,Screen 1,continueButton,response_rating_scale_likert_active,5909.6,NA,NA,Strongly Agree,1,0,1,0,NA,NA,NA,NA,1,statements,I believe the benefits of the vaccine do not outweigh the risks and believe that covid would be a mild disease for me.,1,17/06/2021 12:44,17/06/2021 12:56,IP Address,For (I feel positively about the vaccines),Rarely,Rarely,40,Female,NA,"Undergraduate degree (BSc, BA)",choice,45,3,For,Against
5,1659950000000,08/08/2022 10:09,1659950000000,1,08/08/2022 11:09,94118,2,task-j4ag,NA,23521324,6893376,NA,complete,NA,62f0e0ab2d2fc7b623e8cfc3,computer,Desktop or Laptop,Windows 10,Chrome 103.0.0.0,1280x720,1280x577,NA,ITT Ratings,2,against,5,NA,NA,NA,ACCEPT,NA,NA,NA,NA,NA,NA,batch5pro,batch5pro,51,3,1,Screen 1,continueButton,response_rating_scale_likert_active,2797,NA,NA,Agree,1,0,1,0,NA,NA,NA,NA,1,statements,I have been told it's the right thing by my doctor,1,17/06/2021 12:48,17/06/2021 12:57,IP Address,For (I feel positively about the vaccines),Rarely,Most months,25,Female,NA,A levels,choice,48,3,For,For
6,1659950000000,08/08/2022 10:09,1659950000000,1,08/08/2022 11:09,94118,2,task-j4ag,NA,23521324,6893376,NA,complete,NA,62f0e0ab2d2fc7b623e8cfc3,computer,Desktop or Laptop,Windows 10,Chrome 103.0.0.0,1280x720,1280x577,NA,ITT Ratings,2,against,5,NA,NA,NA,ACCEPT,NA,NA,NA,NA,NA,NA,batch5pro,batch5pro,5,4,1,Screen 1,continueButton,response_rating_scale_likert_active,4926.2,NA,NA,Neither Agree nor Disagree,1,0,1,0,NA,NA,NA,NA,1,statements,The Government are having to insure the vaccines,1,17/06/2021 12:39,17/06/2021 12:54,IP Address,For (I feel positively about the vaccines),Rarely,Most months,38,Male,NA,"Undergraduate degree (BSc, BA)",choice,41,2,For,Against
7,1659950000000,08/08/2022 10:09,1659950000000,1,08/08/2022 11:09,94118,2,task-j4ag,NA,23521324,6893376,NA,complete,NA,62f0e0ab2d2fc7b623e8cfc3,computer,Desktop or Laptop,Windows 10,Chrome 103.0.0.0,1280x720,1280x577,NA,ITT Ratings,2,against,5,NA,NA,NA,ACCEPT,NA,NA,NA,NA,NA,NA,batch5pro,batch5pro,56,5,1,Screen 1,continueButton,response_rating_scale_likert_active,3366.6,NA,NA,Disagree,1,0,1,0,NA,NA,NA,NA,1,statements,It's for the better good.,1,17/06/2021 12:49,17/06/2021 12:57,IP Address,For (I feel positively about the vaccines),Rarely,A few times a year,38,Male,NA,GCSEs,control,49,2,For,For
8,1659950000000,08/08/2022 10:09,1659950000000,1,08/08/2022 11:09,94118,2,task-j4ag,NA,23521324,6893376,NA,complete,NA,62f0e0ab2d2fc7b623e8cfc3,computer,Desktop or Laptop,Windows 10,Chrome 103.0.0.0,1280x720,1280x577,NA,ITT Ratings,2,against,5,NA,NA,NA,ACCEPT,NA,NA,NA,NA,NA,NA,batch5pro,batch5pro,37,6,1,Screen 1,continueButton,response_rating_scale_likert_active,1498.8,NA,NA,Strongly Disagree,1,0,1,0,NA,NA,NA,NA,1,statements,to protect myself and family,1,17/06/2021 12:46,17/06/2021 12:56,IP Address,For (I feel positively about the vaccines),A few times a year,A few times a year,53,Female,NA,Vocational Training / Apprenticeship,control,46,1,For,For
9,1659950000000,08/08/2022 10:09,1659950000000,1,08/08/2022 11:09,94118,2,task-j4ag,NA,23521324,6893376,NA,complete,NA,62f0e0ab2d2fc7b623e8cfc3,computer,Desktop or Laptop,Windows 10,Chrome 103.0.0.0,1280x720,1280x577,NA,ITT Ratings,2,against,5,NA,NA,NA,ACCEPT,NA,NA,NA,NA,NA,NA,batch5pro,batch5pro,55,7,1,Screen 1,continueButton,response_rating_scale_likert_active,3303.8,NA,NA,Disagree,1,0,1,0,NA,NA,NA,NA,1,statements,It's safe and I want to ensure people around me are safe,1,17/06/2021 12:49,17/06/2021 12:57,IP Address,For (I feel positively about the vaccines),Rarely,A few times a year,38,Male,NA,GCSEs,control,49,1,For,For
10,1659950000000,08/08/2022 10:10,1659950000000,1,08/08/2022 11:10,94118,2,task-j4ag,NA,23521324,6893376,NA,complete,NA,62f0e0ab2d2fc7b623e8cfc3,computer,Desktop or Laptop,Windows 10,Chrome 103.0.0.0,1280x720,1280x577,NA,ITT Ratings,2,against,5,NA,NA,NA,ACCEPT,NA,NA,NA,NA,NA,NA,batch5pro,batch5pro,8,8,1,Screen 1,continueButton,response_rating_scale_likert_active,5084.3,NA,NA,Neither Agree nor Disagree,1,0,1,0,NA,NA,NA,NA,1,statements,I don't want friends or family to get sick.,1,17/06/2021 12:39,17/06/2021 12:54,IP Address,For (I feel positively about the vaccines),Rarely,Most months,38,Male,NA,"Undergraduate degree (BSc, BA)",choice,41,2,For,For
11,1659950000000,08/08/2022 10:10,1659950000000,1,08/08/2022 11:10,94118,2,task-j4ag,NA,23521324,6893376,NA,complete,NA,62f0e0ab2d2fc7b623e8cfc3,computer,Desktop or Laptop,Windows 10,Chrome 103.0.0.0,1280x720,1280x577,NA,ITT Ratings,2,against,5,NA,NA,NA,ACCEPT,NA,NA,NA,NA,NA,NA,batch5pro,batch5pro,17,9,1,Screen 1,continueButton,response_rating_scale_likert_active,4403.2,NA,NA,Neither Agree nor Disagree,1,0,1,0,NA,NA,NA,NA,1,statements,I am against vaccinations,1,17/06/2021 12:45,17/06/2021 12:55,IP Address,For (I feel positively about the vaccines),Never,Rarely,27,Female,NA,A levels,control,43,2,For,Against
12,1659950000000,08/08/2022 10:10,1659950000000,1,08/08/2022 11:10,94118,2,task-j4ag,NA,23521324,6893376,NA,complete,NA,62f0e0ab2d2fc7b623e8cfc3,computer,Desktop or Laptop,Windows 10,Chrome 103.0.0.0,1280x720,1280x577,NA,ITT Ratings,2,against,5,NA,NA,NA,ACCEPT,NA,NA,NA,NA,NA,NA,batch5pro,batch5pro,22,10,1,Screen 1,continueButton,response_rating_scale_likert_active,3685.4,NA,NA,Neither Agree nor Disagree,1,0,1,0,NA,NA,NA,NA,1,statements,"The vaccines were rushed into distribution, and as a result of that, they may be dangerous or ineffective.",1,17/06/2021 12:41,17/06/2021 12:56,IP Address,For (I feel positively about the vaccines),Most weeks,Most weeks,23,Male,NA,"Undergraduate degree (BSc, BA)",control,44,1,For,Against
13,1659950000000,08/08/2022 10:10,1659950000000,1,08/08/2022 11:10,94118,2,task-j4ag,NA,23521324,6893376,NA,complete,NA,62f0e0ab2d2fc7b623e8cfc3,computer,Desktop or Laptop,Windows 10,Chrome 103.0.0.0,1280x720,1280x577,NA,ITT Ratings,2,against,5,NA,NA,NA,ACCEPT,NA,NA,NA,NA,NA,NA,batch5pro,batch5pro,50,11,1,Screen 1,continueButton,response_rating_scale_likert_active,2333.3,NA,NA,Disagree,1,0,1,0,NA,NA,NA,NA,1,statements,I want to help keep other people safe from covid,1,17/06/2021 12:48,17/06/2021 12:57,IP Address,For (I feel positively about the vaccines),Rarely,Most months,25,Female,NA,A levels,choice,48,2,For,For
14,1659950000000,08/08/2022 10:10,1659950000000,1,08/08/2022 11:10,94118,2,task-j4ag,NA,23521324,6893376,NA,complete,NA,62f0e0ab2d2fc7b623e8cfc3,computer,Desktop or Laptop,Windows 10,Chrome 103.0.0.0,1280x720,1280x577,NA,ITT Ratings,2,against,5,NA,NA,NA,ACCEPT,NA,NA,NA,NA,NA,NA,batch5pro,batch5pro,41,12,1,Screen 1,continueButton,response_rating_scale_likert_active,2743,NA,NA,Neither Agree nor Disagree,1,0,1,0,NA,NA,NA,NA,1,statements,I am under the impression that vaccinations and autism are linked,1,17/06/2021 12:45,17/06/2021 12:57,IP Address,For (I feel positively about the vaccines),Never,Most months,22,Female,NA,"Postgraduate degree (MSc, MA, MPhil)",control,47,2,For,Against
15,1659950000000,08/08/2022 10:10,1659950000000,1,08/08/2022 11:10,94118,2,task-j4ag,NA,23521324,6893376,NA,complete,NA,62f0e0ab2d2fc7b623e8cfc3,computer,Desktop or Laptop,Windows 10,Chrome 103.0.0.0,1280x720,1280x577,NA,ITT Ratings,2,against,5,NA,NA,NA,ACCEPT,NA,NA,NA,NA,NA,NA,batch5pro,batch5pro,11,13,1,Screen 1,continueButton,response_rating_scale_likert_active,1772.8,NA,NA,Strongly Agree,1,0,1,0,NA,NA,NA,NA,1,statements,We are unsure of any possible side effects,1,17/06/2021 12:31,17/06/2021 12:55,IP Address,For (I feel positively about the vaccines),Most days,Most weeks,23,Female,NA,"Undergraduate degree (BSc, BA)",choice,42,2,For,Against
16,1659950000000,08/08/2022 10:10,1659950000000,1,08/08/2022 11:10,94118,2,task-j4ag,NA,23521324,6893376,NA,complete,NA,62f0e0ab2d2fc7b623e8cfc3,computer,Desktop or Laptop,Windows 10,Chrome 103.0.0.0,1280x720,1280x577,NA,ITT Ratings,2,against,5,NA,NA,NA,ACCEPT,NA,NA,NA,NA,NA,NA,batch5pro,batch5pro,61,14,1,Screen 1,continueButton,response_rating_scale_likert_active,3209.8,NA,NA,Somewhat Disagree,1,0,1,0,NA,NA,NA,NA,1,statements,That the vaccine is safe,1,17/06/2021 12:52,17/06/2021 12:57,IP Address,For (I feel positively about the vaccines),Most months,Most months,29,Female,NA,"Undergraduate degree (BSc, BA)",control,50,1,For,For
17,1659950000000,08/08/2022 10:10,1659950000000,1,08/08/2022 11:10,94118,2,task-j4ag,NA,23521324,6893376,NA,complete,NA,62f0e0ab2d2fc7b623e8cfc3,computer,Desktop or Laptop,Windows 10,Chrome 103.0.0.0,1280x720,1280x577,NA,ITT Ratings,2,against,5,NA,NA,NA,ACCEPT,NA,NA,NA,NA,NA,NA,batch5pro,batch5pro,12,15,1,Screen 1,continueButton,response_rating_scale_likert_active,2022.9,NA,NA,Neither Agree nor Disagree,1,0,1,0,NA,NA,NA,NA,1,statements,I could become more ill,1,17/06/2021 12:31,17/06/2021 12:55,IP Address,For (I feel positively about the vaccines),Most days,Most weeks,23,Female,NA,"Undergraduate degree (BSc, BA)",choice,42,3,For,Against
18,1659950000000,08/08/2022 10:10,1659950000000,1,08/08/2022 11:10,94118,2,task-j4ag,NA,23521324,6893376,NA,complete,NA,62f0e0ab2d2fc7b623e8cfc3,computer,Desktop or Laptop,Windows 10,Chrome 103.0.0.0,1280x720,1280x577,NA,ITT Ratings,2,against,5,NA,NA,NA,ACCEPT,NA,NA,NA,NA,NA,NA,batch5pro,batch5pro,9,16,1,Screen 1,continueButton,response_rating_scale_likert_active,3487.9,NA,NA,Strongly Disagree,1,0,1,0,NA,NA,NA,NA,1,statements,I want to be able to be able to participate in group activities.,1,17/06/2021 12:39,17/06/2021 12:54,IP Address,For (I feel positively about the vaccines),Rarely,Most months,38,Male,NA,"Undergraduate degree (BSc, BA)",choice,41,3,For,For
19,1659950000000,08/08/2022 10:10,1659950000000,1,08/08/2022 11:10,94118,2,task-j4ag,NA,23521324,6893376,NA,complete,NA,62f0e0ab2d2fc7b623e8cfc3,computer,Desktop or Laptop,Windows 10,Chrome 103.0.0.0,1280x720,1280x577,NA,ITT Ratings,2,against,5,NA,NA,NA,ACCEPT,NA,NA,NA,NA,NA,NA,batch5pro,batch5pro,2,17,1,Screen 1,continueButton,response_rating_scale_likert_active,3035.9,NA,NA,Somewhat Agree,1,0,1,0,NA,NA,NA,NA,1,statements,We would like to check you are reading each argument carefully. Please select 'Somewhat Agree' for this answer,1,NA,NA,NA,NA,NA,NA,NA,NA,NA,NA,NA,NA,check1,NA,NA
20,1659950000000,08/08/2022 10:10,1659950000000,1,08/08/2022 11:10,94118,2,task-j4ag,NA,23521324,6893376,NA,complete,NA,62f0e0ab2d2fc7b623e8cfc3,computer,Desktop or Laptop,Windows 10,Chrome 103.0.0.0,1280x720,1280x577,NA,ITT Ratings,2,against,5,NA,NA,NA,ACCEPT,NA,NA,NA,NA,NA,NA,batch5pro,batch5pro,31,18,1,Screen 1,continueButton,response_rating_scale_likert_active,3882.8,NA,NA,Neither Agree nor Disagree,1,0,1,0,NA,NA,NA,NA,1,statements,It is a way of protecting from the serious health implications of catching covid.,1,17/06/2021 12:44,17/06/2021 12:56,IP Address,For (I feel positively about the vaccines),Rarely,Rarely,40,Female,NA,"Undergraduate degree (BSc, BA)",choice,45,1,For,For
21,1659950000000,08/08/2022 10:10,1659950000000,1,08/08/2022 11:10,94118,2,task-j4ag,NA,23521324,6893376,NA,complete,NA,62f0e0ab2d2fc7b623e8cfc3,computer,Desktop or Laptop,Windows 10,Chrome 103.0.0.0,1280x720,1280x577,NA,ITT Ratings,2,against,5,NA,NA,NA,ACCEPT,NA,NA,NA,NA,NA,NA,batch5pro,batch5pro,57,19,1,Screen 1,continueButton,response_rating_scale_likert_active,2135.2,NA,NA,Disagree,1,0,1,0,NA,NA,NA,NA,1,statements,To assist in getting through this pandemic,1,17/06/2021 12:49,17/06/2021 12:57,IP Address,For (I feel positively about the vaccines),Rarely,A few times a year,38,Male,NA,GCSEs,control,49,3,For,For
22,1659950000000,08/08/2022 10:10,1659950000000,1,08/08/2022 11:10,94118,2,task-j4ag,NA,23521324,6893376,NA,complete,NA,62f0e0ab2d2fc7b623e8cfc3,computer,Desktop or Laptop,Windows 10,Chrome 103.0.0.0,1280x720,1280x577,NA,ITT Ratings,2,against,5,NA,NA,NA,ACCEPT,NA,NA,NA,NA,NA,NA,batch5pro,batch5pro,58,20,1,Screen 1,continueButton,response_rating_scale_likert_active,3171.7,NA,NA,Somewhat Agree,1,0,1,0,NA,NA,NA,NA,1,statements,That the vaccine isn't safe,1,17/06/2021 12:52,17/06/2021 12:57,IP Address,For (I feel positively about the vaccines),Most months,Most months,29,Female,NA,"Undergraduate degree (BSc, BA)",control,50,1,For,Against
23,1659950000000,08/08/2022 10:10,1659950000000,1,08/08/2022 11:10,94118,2,task-j4ag,NA,23521324,6893376,NA,complete,NA,62f0e0ab2d2fc7b623e8cfc3,computer,Desktop or Laptop,Windows 10,Chrome 103.0.0.0,1280x720,1280x577,NA,ITT Ratings,2,against,5,NA,NA,NA,ACCEPT,NA,NA,NA,NA,NA,NA,batch5pro,batch5pro,24,21,1,Screen 1,continueButton,response_rating_scale_likert_active,1961,NA,NA,Somewhat Agree,1,0,1,0,NA,NA,NA,NA,1,statements,The vaccine may contain something that we have not been told about.,1,17/06/2021 12:41,17/06/2021 12:56,IP Address,For (I feel positively about the vaccines),Most weeks,Most weeks,23,Male,NA,"Undergraduate degree (BSc, BA)",control,44,3,For,Against
24,1659950000000,08/08/2022 10:10,1659950000000,1,08/08/2022 11:10,94118,2,task-j4ag,NA,23521324,6893376,NA,complete,NA,62f0e0ab2d2fc7b623e8cfc3,computer,Desktop or Laptop,Windows 10,Chrome 103.0.0.0,1280x720,1280x577,NA,ITT Ratings,2,against,5,NA,NA,NA,ACCEPT,NA,NA,NA,NA,NA,NA,batch5pro,batch5pro,18,22,1,Screen 1,continueButton,response_rating_scale_likert_active,1700.2,NA,NA,Somewhat Agree,1,0,1,0,NA,NA,NA,NA,1,statements,I do not believe the vaccination is safe,1,17/06/2021 12:45,17/06/2021 12:55,IP Address,For (I feel positively about the vaccines),Never,Rarely,27,Female,NA,A levels,control,43,3,For,Against
25,1659950000000,08/08/2022 10:10,1659950000000,1,08/08/2022 11:10,94118,2,task-j4ag,NA,23521324,6893376,NA,complete,NA,62f0e0ab2d2fc7b623e8cfc3,computer,Desktop or Laptop,Windows 10,Chrome 103.0.0.0,1280x720,1280x577,NA,ITT Ratings,2,against,5,NA,NA,NA,ACCEPT,NA,NA,NA,NA,NA,NA,batch5pro,batch5pro,53,23,1,Screen 1,continueButton,response_rating_scale_likert_active,1947.6,NA,NA,Neither Agree nor Disagree,1,0,1,0,NA,NA,NA,NA,1,statements,Don't know what's in them and who created them,1,17/06/2021 12:49,17/06/2021 12:57,IP Address,For (I feel positively about the vaccines),Rarely,A few times a year,38,Male,NA,GCSEs,control,49,2,For,Against
26,1659950000000,08/08/2022 10:10,1659950000000,1,08/08/2022 11:10,94118,2,task-j4ag,NA,23521324,6893376,NA,complete,NA,62f0e0ab2d2fc7b623e8cfc3,computer,Desktop or Laptop,Windows 10,Chrome 103.0.0.0,1280x720,1280x577,NA,ITT Ratings,2,against,5,NA,NA,NA,ACCEPT,NA,NA,NA,NA,NA,NA,batch5pro,batch5pro,38,24,1,Screen 1,continueButton,response_rating_scale_likert_active,3273.4,NA,NA,Somewhat Disagree,1,0,1,0,NA,NA,NA,NA,1,statements,the evidence and information relating to the vaccine is positive,1,17/06/2021 12:46,17/06/2021 12:56,IP Address,For (I feel positively about the vaccines),A few times a year,A few times a year,53,Female,NA,Vocational Training / Apprenticeship,control,46,2,For,For
27,1659950000000,08/08/2022 10:10,1659950000000,1,08/08/2022 11:10,94118,2,task-j4ag,NA,23521324,6893376,NA,complete,NA,62f0e0ab2d2fc7b623e8cfc3,computer,Desktop or Laptop,Windows 10,Chrome 103.0.0.0,1280x720,1280x577,NA,ITT Ratings,2,against,5,NA,NA,NA,ACCEPT,NA,NA,NA,NA,NA,NA,batch5pro,batch5pro,45,25,1,Screen 1,continueButton,response_rating_scale_likert_active,1866.9,NA,NA,Disagree,1,0,1,0,NA,NA,NA,NA,1,statements,"It will help protect the general population, and stop the spread of COVID-19",1,17/06/2021 12:45,17/06/2021 12:57,IP Address,For (I feel positively about the vaccines),Never,Most months,22,Female,NA,"Postgraduate degree (MSc, MA, MPhil)",control,47,3,For,For
28,1659950000000,08/08/2022 10:10,1659950000000,1,08/08/2022 11:10,94118,2,task-j4ag,NA,23521324,6893376,NA,complete,NA,62f0e0ab2d2fc7b623e8cfc3,computer,Desktop or Laptop,Windows 10,Chrome 103.0.0.0,1280x720,1280x577,NA,ITT Ratings,2,against,5,NA,NA,NA,ACCEPT,NA,NA,NA,NA,NA,NA,batch5pro,batch5pro,7,26,1,Screen 1,continueButton,response_rating_scale_likert_active,3425.4,NA,NA,Neither Agree nor Disagree,1,0,1,0,NA,NA,NA,NA,1,statements,They don't want to get sick,1,17/06/2021 12:39,17/06/2021 12:54,IP Address,For (I feel positively about the vaccines),Rarely,Most months,38,Male,NA,"Undergraduate degree (BSc, BA)",choice,41,1,For,For
29,1659950000000,08/08/2022 10:10,1659950000000,1,08/08/2022 11:10,94118,2,task-j4ag,NA,23521324,6893376,NA,complete,NA,62f0e0ab2d2fc7b623e8cfc3,computer,Desktop or Laptop,Windows 10,Chrome 103.0.0.0,1280x720,1280x577,NA,ITT Ratings,2,against,5,NA,NA,NA,ACCEPT,NA,NA,NA,NA,NA,NA,batch5pro,batch5pro,23,27,1,Screen 1,continueButton,response_rating_scale_likert_active,3305,NA,NA,Strongly Agree,1,0,1,0,NA,NA,NA,NA,1,statements,The side-effects of taking the vaccine are not worth the hassle of receiving a vaccine.,1,17/06/2021 12:41,17/06/2021 12:56,IP Address,For (I feel positively about the vaccines),Most weeks,Most weeks,23,Male,NA,"Undergraduate degree (BSc, BA)",control,44,2,For,Against
30,1659950000000,08/08/2022 10:10,1659950000000,1,08/08/2022 11:10,94118,2,task-j4ag,NA,23521324,6893376,NA,complete,NA,62f0e0ab2d2fc7b623e8cfc3,computer,Desktop or Laptop,Windows 10,Chrome 103.0.0.0,1280x720,1280x577,NA,ITT Ratings,2,against,5,NA,NA,NA,ACCEPT,NA,NA,NA,NA,NA,NA,batch5pro,batch5pro,27,28,1,Screen 1,continueButton,response_rating_scale_likert_active,1764,NA,NA,Strongly Disagree,1,0,1,0,NA,NA,NA,NA,1,statements,So that I can travel to different countries without hassle.,1,17/06/2021 12:41,17/06/2021 12:56,IP Address,For (I feel positively about the vaccines),Most weeks,Most weeks,23,Male,NA,"Undergraduate degree (BSc, BA)",control,44,3,For,For
31,1659950000000,08/08/2022 10:10,1659950000000,1,08/08/2022 11:10,94118,2,task-j4ag,NA,23521324,6893376,NA,complete,NA,62f0e0ab2d2fc7b623e8cfc3,computer,Desktop or Laptop,Windows 10,Chrome 103.0.0.0,1280x720,1280x577,NA,ITT Ratings,2,against,5,NA,NA,NA,ACCEPT,NA,NA,NA,NA,NA,NA,batch5pro,batch5pro,33,29,1,Screen 1,continueButton,response_rating_scale_likert_active,1874.9,NA,NA,Disagree,1,0,1,0,NA,NA,NA,NA,1,statements,I believe it is safe.,1,17/06/2021 12:44,17/06/2021 12:56,IP Address,For (I feel positively about the vaccines),Rarely,Rarely,40,Female,NA,"Undergraduate degree (BSc, BA)",choice,45,3,For,For
32,1659950000000,08/08/2022 10:10,1659950000000,1,08/08/2022 11:10,94118,2,task-j4ag,NA,23521324,6893376,NA,complete,NA,62f0e0ab2d2fc7b623e8cfc3,computer,Desktop or Laptop,Windows 10,Chrome 103.0.0.0,1280x720,1280x577,NA,ITT Ratings,2,against,5,NA,NA,NA,ACCEPT,NA,NA,NA,NA,NA,NA,batch5pro,batch5pro,25,30,1,Screen 1,continueButton,response_rating_scale_likert_active,2436.6,NA,NA,Disagree,1,0,1,0,NA,NA,NA,NA,1,statements,"So that, if I do contract Covid-19 at any point, the symptoms will be minor and manageable.",1,17/06/2021 12:41,17/06/2021 12:56,IP Address,For (I feel positively about the vaccines),Most weeks,Most weeks,23,Male,NA,"Undergraduate degree (BSc, BA)",control,44,1,For,For
33,1659950000000,08/08/2022 10:11,1659950000000,1,08/08/2022 11:11,94118,2,task-j4ag,NA,23521324,6893376,NA,complete,NA,62f0e0ab2d2fc7b623e8cfc3,computer,Desktop or Laptop,Windows 10,Chrome 103.0.0.0,1280x720,1280x577,NA,ITT Ratings,2,against,5,NA,NA,NA,ACCEPT,NA,NA,NA,NA,NA,NA,batch5pro,batch5pro,63,31,1,Screen 1,continueButton,response_rating_scale_likert_active,1344.3,NA,NA,Strongly Disagree,1,0,1,0,NA,NA,NA,NA,1,statements,You can go on holiday,1,17/06/2021 12:52,17/06/2021 12:57,IP Address,For (I feel positively about the vaccines),Most months,Most months,29,Female,NA,"Undergraduate degree (BSc, BA)",control,50,3,For,For
34,1659950000000,08/08/2022 10:11,1659950000000,1,08/08/2022 11:11,94118,2,task-j4ag,NA,23521324,6893376,NA,complete,NA,62f0e0ab2d2fc7b623e8cfc3,computer,Desktop or Laptop,Windows 10,Chrome 103.0.0.0,1280x720,1280x577,NA,ITT Ratings,2,against,5,NA,NA,NA,ACCEPT,NA,NA,NA,NA,NA,NA,batch5pro,batch5pro,43,32,1,Screen 1,continueButton,response_rating_scale_likert_active,4562.1,NA,NA,Somewhat Disagree,1,0,1,0,NA,NA,NA,NA,1,statements,The vaccine is safe and 95% effective,1,17/06/2021 12:45,17/06/2021 12:57,IP Address,For (I feel positively about the vaccines),Never,Most months,22,Female,NA,"Postgraduate degree (MSc, MA, MPhil)",control,47,1,For,For
35,1659950000000,08/08/2022 10:11,1659950000000,1,08/08/2022 11:11,94118,2,task-j4ag,NA,23521324,6893376,NA,complete,NA,62f0e0ab2d2fc7b623e8cfc3,computer,Desktop or Laptop,Windows 10,Chrome 103.0.0.0,1280x720,1280x577,NA,ITT Ratings,2,against,5,NA,NA,NA,ACCEPT,NA,NA,NA,NA,NA,NA,batch5pro,batch5pro,54,33,1,Screen 1,continueButton,response_rating_scale_likert_active,2150.9,NA,NA,Strongly Agree,1,0,1,0,NA,NA,NA,NA,1,statements,I would rather risk it and rely on immune system.,1,17/06/2021 12:49,17/06/2021 12:57,IP Address,For (I feel positively about the vaccines),Rarely,A few times a year,38,Male,NA,GCSEs,control,49,3,For,Against
36,1659950000000,08/08/2022 10:11,1659950000000,1,08/08/2022 11:11,94118,2,task-j4ag,NA,23521324,6893376,NA,complete,NA,62f0e0ab2d2fc7b623e8cfc3,computer,Desktop or Laptop,Windows 10,Chrome 103.0.0.0,1280x720,1280x577,NA,ITT Ratings,2,against,5,NA,NA,NA,ACCEPT,NA,NA,NA,NA,NA,NA,batch5pro,batch5pro,52,34,1,Screen 1,continueButton,response_rating_scale_likert_active,3418,NA,NA,Agree,1,0,1,0,NA,NA,NA,NA,1,statements,Unsafe and could cause side effects,1,17/06/2021 12:49,17/06/2021 12:57,IP Address,For (I feel positively about the vaccines),Rarely,A few times a year,38,Male,NA,GCSEs,control,49,1,For,Against
37,1659950000000,08/08/2022 10:11,1659950000000,1,08/08/2022 11:11,94118,2,task-j4ag,NA,23521324,6893376,NA,complete,NA,62f0e0ab2d2fc7b623e8cfc3,computer,Desktop or Laptop,Windows 10,Chrome 103.0.0.0,1280x720,1280x577,NA,ITT Ratings,2,against,5,NA,NA,NA,ACCEPT,NA,NA,NA,NA,NA,NA,batch5pro,batch5pro,16,35,1,Screen 1,continueButton,response_rating_scale_likert_active,1337.9,NA,NA,Agree,1,0,1,0,NA,NA,NA,NA,1,statements,I do not believe in the benefit of the vaccine,1,17/06/2021 12:45,17/06/2021 12:55,IP Address,For (I feel positively about the vaccines),Never,Rarely,27,Female,NA,A levels,control,43,1,For,Against
38,1659950000000,08/08/2022 10:11,1659950000000,1,08/08/2022 11:11,94118,2,task-j4ag,NA,23521324,6893376,NA,complete,NA,62f0e0ab2d2fc7b623e8cfc3,computer,Desktop or Laptop,Windows 10,Chrome 103.0.0.0,1280x720,1280x577,NA,ITT Ratings,2,against,5,NA,NA,NA,ACCEPT,NA,NA,NA,NA,NA,NA,batch5pro,batch5pro,47,36,1,Screen 1,continueButton,response_rating_scale_likert_active,2984.3,NA,NA,Disagree,1,0,1,0,NA,NA,NA,NA,1,statements,I don't think covid is real.,1,17/06/2021 12:48,17/06/2021 12:57,IP Address,For (I feel positively about the vaccines),Rarely,Most months,25,Female,NA,A levels,choice,48,2,For,Against
39,1659950000000,08/08/2022 10:11,1659950000000,1,08/08/2022 11:11,94118,2,task-j4ag,NA,23521324,6893376,NA,complete,NA,62f0e0ab2d2fc7b623e8cfc3,computer,Desktop or Laptop,Windows 10,Chrome 103.0.0.0,1280x720,1280x577,NA,ITT Ratings,2,against,5,NA,NA,NA,ACCEPT,NA,NA,NA,NA,NA,NA,batch5pro,batch5pro,13,37,1,Screen 1,continueButton,response_rating_scale_likert_active,1905.6,NA,NA,Strongly Disagree,1,0,1,0,NA,NA,NA,NA,1,statements,It could protect others around me as well as myself,1,17/06/2021 12:31,17/06/2021 12:55,IP Address,For (I feel positively about the vaccines),Most days,Most weeks,23,Female,NA,"Undergraduate degree (BSc, BA)",choice,42,1,For,For
40,1659950000000,08/08/2022 10:11,1659950000000,1,08/08/2022 11:11,94118,2,task-j4ag,NA,23521324,6893376,NA,complete,NA,62f0e0ab2d2fc7b623e8cfc3,computer,Desktop or Laptop,Windows 10,Chrome 103.0.0.0,1280x720,1280x577,NA,ITT Ratings,2,against,5,NA,NA,NA,ACCEPT,NA,NA,NA,NA,NA,NA,batch5pro,batch5pro,40,38,1,Screen 1,continueButton,response_rating_scale_likert_active,2334.8,NA,NA,Neither Agree nor Disagree,1,0,1,0,NA,NA,NA,NA,1,statements,I do not trust the people who have made the vaccine,1,17/06/2021 12:45,17/06/2021 12:57,IP Address,For (I feel positively about the vaccines),Never,Most months,22,Female,NA,"Postgraduate degree (MSc, MA, MPhil)",control,47,1,For,Against
41,1659950000000,08/08/2022 10:11,1659950000000,1,08/08/2022 11:11,94118,2,task-j4ag,NA,23521324,6893376,NA,complete,NA,62f0e0ab2d2fc7b623e8cfc3,computer,Desktop or Laptop,Windows 10,Chrome 103.0.0.0,1280x720,1280x577,NA,ITT Ratings,2,against,5,NA,NA,NA,ACCEPT,NA,NA,NA,NA,NA,NA,batch5pro,batch5pro,60,39,1,Screen 1,continueButton,response_rating_scale_likert_active,1697.3,NA,NA,Strongly Agree,1,0,1,0,NA,NA,NA,NA,1,statements,I've already had covid,1,17/06/2021 12:52,17/06/2021 12:57,IP Address,For (I feel positively about the vaccines),Most months,Most months,29,Female,NA,"Undergraduate degree (BSc, BA)",control,50,3,For,Against
42,1659950000000,08/08/2022 10:11,1659950000000,1,08/08/2022 11:11,94118,2,task-j4ag,NA,23521324,6893376,NA,complete,NA,62f0e0ab2d2fc7b623e8cfc3,computer,Desktop or Laptop,Windows 10,Chrome 103.0.0.0,1280x720,1280x577,NA,ITT Ratings,2,against,5,NA,NA,NA,ACCEPT,NA,NA,NA,NA,NA,NA,batch5pro,batch5pro,42,40,1,Screen 1,continueButton,response_rating_scale_likert_active,2784.5,NA,NA,Disagree,1,0,1,0,NA,NA,NA,NA,1,statements,I have a weak immune system,1,17/06/2021 12:45,17/06/2021 12:57,IP Address,For (I feel positively about the vaccines),Never,Most months,22,Female,NA,"Postgraduate degree (MSc, MA, MPhil)",control,47,3,For,Against
43,1659950000000,08/08/2022 10:11,1659950000000,1,08/08/2022 11:11,94118,2,task-j4ag,NA,23521324,6893376,NA,complete,NA,62f0e0ab2d2fc7b623e8cfc3,computer,Desktop or Laptop,Windows 10,Chrome 103.0.0.0,1280x720,1280x577,NA,ITT Ratings,2,against,5,NA,NA,NA,ACCEPT,NA,NA,NA,NA,NA,NA,batch5pro,batch5pro,36,41,1,Screen 1,continueButton,response_rating_scale_likert_active,3921.8,NA,NA,Neither Agree nor Disagree,1,0,1,0,NA,NA,NA,NA,1,statements,vaccine safety as it has not been out for long,1,17/06/2021 12:46,17/06/2021 12:56,IP Address,For (I feel positively about the vaccines),A few times a year,A few times a year,53,Female,NA,Vocational Training / Apprenticeship,control,46,3,For,Against
44,1659950000000,08/08/2022 10:11,1659950000000,1,08/08/2022 11:11,94118,2,task-j4ag,NA,23521324,6893376,NA,complete,NA,62f0e0ab2d2fc7b623e8cfc3,computer,Desktop or Laptop,Windows 10,Chrome 103.0.0.0,1280x720,1280x577,NA,ITT Ratings,2,against,5,NA,NA,NA,ACCEPT,NA,NA,NA,NA,NA,NA,batch5pro,batch5pro,3,42,1,Screen 1,continueButton,response_rating_scale_likert_active,2872,NA,NA,Somewhat Disagree,1,0,1,0,NA,NA,NA,NA,1,statements,We would like to check you are reading each argument carefully. Please select 'Somewhat Disagree' for this answer,1,NA,NA,NA,NA,NA,NA,NA,NA,NA,NA,NA,NA,check2,NA,NA
45,1659950000000,08/08/2022 10:11,1659950000000,1,08/08/2022 11:11,94118,2,task-j4ag,NA,23521324,6893376,NA,complete,NA,62f0e0ab2d2fc7b623e8cfc3,computer,Desktop or Laptop,Windows 10,Chrome 103.0.0.0,1280x720,1280x577,NA,ITT Ratings,2,against,5,NA,NA,NA,ACCEPT,NA,NA,NA,NA,NA,NA,batch5pro,batch5pro,34,43,1,Screen 1,continueButton,response_rating_scale_likert_active,1977.2,NA,NA,Disagree,1,0,1,0,NA,NA,NA,NA,1,statements,government keeping track of us,1,17/06/2021 12:46,17/06/2021 12:56,IP Address,For (I feel positively about the vaccines),A few times a year,A few times a year,53,Female,NA,Vocational Training / Apprenticeship,control,46,1,For,Against
46,1659950000000,08/08/2022 10:11,1659950000000,1,08/08/2022 11:11,94118,2,task-j4ag,NA,23521324,6893376,NA,complete,NA,62f0e0ab2d2fc7b623e8cfc3,computer,Desktop or Laptop,Windows 10,Chrome 103.0.0.0,1280x720,1280x577,NA,ITT Ratings,2,against,5,NA,NA,NA,ACCEPT,NA,NA,NA,NA,NA,NA,batch5pro,batch5pro,20,44,1,Screen 1,continueButton,response_rating_scale_likert_active,1826,NA,NA,Neither Agree nor Disagree,1,0,1,0,NA,NA,NA,NA,1,statements,I believe all vaccines help,1,17/06/2021 12:45,17/06/2021 12:55,IP Address,For (I feel positively about the vaccines),Never,Rarely,27,Female,NA,A levels,control,43,2,For,For
47,1659950000000,08/08/2022 10:11,1659950000000,1,08/08/2022 11:11,94118,2,task-j4ag,NA,23521324,6893376,NA,complete,NA,62f0e0ab2d2fc7b623e8cfc3,computer,Desktop or Laptop,Windows 10,Chrome 103.0.0.0,1280x720,1280x577,NA,ITT Ratings,2,against,5,NA,NA,NA,ACCEPT,NA,NA,NA,NA,NA,NA,batch5pro,batch5pro,35,45,1,Screen 1,continueButton,response_rating_scale_likert_active,3798,NA,NA,Neither Agree nor Disagree,1,0,1,0,NA,NA,NA,NA,1,statements,health reasons and I can not take  it,1,17/06/2021 12:46,17/06/2021 12:56,IP Address,For (I feel positively about the vaccines),A few times a year,A few times a year,53,Female,NA,Vocational Training / Apprenticeship,control,46,2,For,Against
48,1659950000000,08/08/2022 10:11,1659950000000,1,08/08/2022 11:11,94118,2,task-j4ag,NA,23521324,6893376,NA,complete,NA,62f0e0ab2d2fc7b623e8cfc3,computer,Desktop or Laptop,Windows 10,Chrome 103.0.0.0,1280x720,1280x577,NA,ITT Ratings,2,against,5,NA,NA,NA,ACCEPT,NA,NA,NA,NA,NA,NA,batch5pro,batch5pro,14,46,1,Screen 1,continueButton,response_rating_scale_likert_active,2147.8,NA,NA,Somewhat Disagree,1,0,1,0,NA,NA,NA,NA,1,statements,It would mean that the rate of infection would go down,1,17/06/2021 12:31,17/06/2021 12:55,IP Address,For (I feel positively about the vaccines),Most days,Most weeks,23,Female,NA,"Undergraduate degree (BSc, BA)",choice,42,2,For,For
49,1659950000000,08/08/2022 10:11,1659950000000,1,08/08/2022 11:11,94118,2,task-j4ag,NA,23521324,6893376,NA,complete,NA,62f0e0ab2d2fc7b623e8cfc3,computer,Desktop or Laptop,Windows 10,Chrome 103.0.0.0,1280x720,1280x577,NA,ITT Ratings,2,against,5,NA,NA,NA,ACCEPT,NA,NA,NA,NA,NA,NA,batch5pro,batch5pro,28,47,1,Screen 1,continueButton,response_rating_scale_likert_active,2453,NA,NA,Neither Agree nor Disagree,1,0,1,0,NA,NA,NA,NA,1,statements,I am allergic to one of the ingredients in the vaccine.,1,17/06/2021 12:44,17/06/2021 12:56,IP Address,For (I feel positively about the vaccines),Rarely,Rarely,40,Female,NA,"Undergraduate degree (BSc, BA)",choice,45,1,For,Against
50,1659950000000,08/08/2022 10:11,1659950000000,1,08/08/2022 11:11,94118,2,task-j4ag,NA,23521324,6893376,NA,complete,NA,62f0e0ab2d2fc7b623e8cfc3,computer,Desktop or Laptop,Windows 10,Chrome 103.0.0.0,1280x720,1280x577,NA,ITT Ratings,2,against,5,NA,NA,NA,ACCEPT,NA,NA,NA,NA,NA,NA,batch5pro,batch5pro,10,48,1,Screen 1,continueButton,response_rating_scale_likert_active,4158.8,NA,NA,Neither Agree nor Disagree,1,0,1,0,NA,NA,NA,NA,1,statements,They haven't had enough time to create the vaccine,1,17/06/2021 12:31,17/06/2021 12:55,IP Address,For (I feel positively about the vaccines),Most days,Most weeks,23,Female,NA,"Undergraduate degree (BSc, BA)",choice,42,1,For,Against
51,1659950000000,08/08/2022 10:11,1659950000000,1,08/08/2022 11:11,94118,2,task-j4ag,NA,23521324,6893376,NA,complete,NA,62f0e0ab2d2fc7b623e8cfc3,computer,Desktop or Laptop,Windows 10,Chrome 103.0.0.0,1280x720,1280x577,NA,ITT Ratings,2,against,5,NA,NA,NA,ACCEPT,NA,NA,NA,NA,NA,NA,batch5pro,batch5pro,39,49,1,Screen 1,continueButton,response_rating_scale_likert_active,1675.9,NA,NA,Strongly Disagree,1,0,1,0,NA,NA,NA,NA,1,statements,to be able to socialise and go on holiday,1,17/06/2021 12:46,17/06/2021 12:56,IP Address,For (I feel positively about the vaccines),A few times a year,A few times a year,53,Female,NA,Vocational Training / Apprenticeship,control,46,3,For,For
52,1659950000000,08/08/2022 10:11,1659950000000,1,08/08/2022 11:11,94118,2,task-j4ag,NA,23521324,6893376,NA,complete,NA,62f0e0ab2d2fc7b623e8cfc3,computer,Desktop or Laptop,Windows 10,Chrome 103.0.0.0,1280x720,1280x577,NA,ITT Ratings,2,against,5,NA,NA,NA,ACCEPT,NA,NA,NA,NA,NA,NA,batch5pro,batch5pro,21,50,1,Screen 1,continueButton,response_rating_scale_likert_active,2846.8,NA,NA,Somewhat Disagree,1,0,1,0,NA,NA,NA,NA,1,statements,I want to be protected against covid,1,17/06/2021 12:45,17/06/2021 12:55,IP Address,For (I feel positively about the vaccines),Never,Rarely,27,Female,NA,A levels,control,43,3,For,For
53,1659950000000,08/08/2022 10:11,1659950000000,1,08/08/2022 11:11,94118,2,task-j4ag,NA,23521324,6893376,NA,complete,NA,62f0e0ab2d2fc7b623e8cfc3,computer,Desktop or Laptop,Windows 10,Chrome 103.0.0.0,1280x720,1280x577,NA,ITT Ratings,2,against,5,NA,NA,NA,ACCEPT,NA,NA,NA,NA,NA,NA,batch5pro,batch5pro,19,51,1,Screen 1,continueButton,response_rating_scale_likert_active,2796.4,NA,NA,Disagree,1,0,1,0,NA,NA,NA,NA,1,statements,I believe the vaccine is beneficial and will provide protection,1,17/06/2021 12:45,17/06/2021 12:55,IP Address,For (I feel positively about the vaccines),Never,Rarely,27,Female,NA,A levels,control,43,1,For,For
54,1659950000000,08/08/2022 10:11,1659950000000,1,08/08/2022 11:11,94118,2,task-j4ag,NA,23521324,6893376,NA,complete,NA,62f0e0ab2d2fc7b623e8cfc3,computer,Desktop or Laptop,Windows 10,Chrome 103.0.0.0,1280x720,1280x577,NA,ITT Ratings,2,against,5,NA,NA,NA,ACCEPT,NA,NA,NA,NA,NA,NA,batch5pro,batch5pro,6,52,1,Screen 1,continueButton,response_rating_scale_likert_active,3890.5,NA,NA,Neither Agree nor Disagree,1,0,1,0,NA,NA,NA,NA,1,statements,I don't believe in vaccines as I believe it alters my DNA which will effect my children.,1,17/06/2021 12:39,17/06/2021 12:54,IP Address,For (I feel positively about the vaccines),Rarely,Most months,38,Male,NA,"Undergraduate degree (BSc, BA)",choice,41,3,For,Against
55,1659950000000,08/08/2022 10:12,1659950000000,1,08/08/2022 11:12,94118,2,task-j4ag,NA,23521324,6893376,NA,complete,NA,62f0e0ab2d2fc7b623e8cfc3,computer,Desktop or Laptop,Windows 10,Chrome 103.0.0.0,1280x720,1280x577,NA,ITT Ratings,2,against,5,NA,NA,NA,ACCEPT,NA,NA,NA,NA,NA,NA,batch5pro,batch5pro,59,53,1,Screen 1,continueButton,response_rating_scale_likert_active,1906.7,NA,NA,Somewhat Agree,1,0,1,0,NA,NA,NA,NA,1,statements,You don't know what you are having injected,1,17/06/2021 12:52,17/06/2021 12:57,IP Address,For (I feel positively about the vaccines),Most months,Most months,29,Female,NA,"Undergraduate degree (BSc, BA)",control,50,2,For,Against
56,1659950000000,08/08/2022 10:12,1659950000000,1,08/08/2022 11:12,94118,2,task-j4ag,NA,23521324,6893376,NA,complete,NA,62f0e0ab2d2fc7b623e8cfc3,computer,Desktop or Laptop,Windows 10,Chrome 103.0.0.0,1280x720,1280x577,NA,ITT Ratings,2,against,5,NA,NA,NA,ACCEPT,NA,NA,NA,NA,NA,NA,batch5pro,batch5pro,26,54,1,Screen 1,continueButton,response_rating_scale_likert_active,1811.5,NA,NA,Strongly Disagree,1,0,1,0,NA,NA,NA,NA,1,statements,So I can see my family and friends without fear of contracting the virus.,1,17/06/2021 12:41,17/06/2021 12:56,IP Address,For (I feel positively about the vaccines),Most weeks,Most weeks,23,Male,NA,"Undergraduate degree (BSc, BA)",control,44,2,For,For
57,1659950000000,08/08/2022 10:12,1659950000000,1,08/08/2022 11:12,94118,2,task-j4ag,NA,23521324,6893376,NA,complete,NA,62f0e0ab2d2fc7b623e8cfc3,computer,Desktop or Laptop,Windows 10,Chrome 103.0.0.0,1280x720,1280x577,NA,ITT Ratings,2,against,5,NA,NA,NA,ACCEPT,NA,NA,NA,NA,NA,NA,batch5pro,batch5pro,49,55,1,Screen 1,continueButton,response_rating_scale_likert_active,1612.5,NA,NA,Disagree,1,0,1,0,NA,NA,NA,NA,1,statements,I want to be safe against covid,1,17/06/2021 12:48,17/06/2021 12:57,IP Address,For (I feel positively about the vaccines),Rarely,Most months,25,Female,NA,A levels,choice,48,1,For,For
58,1659950000000,08/08/2022 10:12,1659950000000,1,08/08/2022 11:12,94118,2,task-j4ag,NA,23521324,6893376,NA,complete,NA,62f0e0ab2d2fc7b623e8cfc3,computer,Desktop or Laptop,Windows 10,Chrome 103.0.0.0,1280x720,1280x577,NA,ITT Ratings,2,against,5,NA,NA,NA,ACCEPT,NA,NA,NA,NA,NA,NA,batch5pro,batch5pro,62,56,1,Screen 1,continueButton,response_rating_scale_likert_active,4366.1,NA,NA,Disagree,1,0,1,0,NA,NA,NA,NA,1,statements,The vaccine is helping to het the Country back to a nee normal,1,17/06/2021 12:52,17/06/2021 12:57,IP Address,For (I feel positively about the vaccines),Most months,Most months,29,Female,NA,"Undergraduate degree (BSc, BA)",control,50,2,For,For
59,1659950000000,08/08/2022 10:12,1659950000000,1,08/08/2022 11:12,94118,2,task-j4ag,NA,23521324,6893376,NA,complete,NA,62f0e0ab2d2fc7b623e8cfc3,computer,Desktop or Laptop,Windows 10,Chrome 103.0.0.0,1280x720,1280x577,NA,ITT Ratings,2,against,5,NA,NA,NA,ACCEPT,NA,NA,NA,NA,NA,NA,batch5pro,batch5pro,44,57,1,Screen 1,continueButton,response_rating_scale_likert_active,1092.7,NA,NA,Disagree,1,0,1,0,NA,NA,NA,NA,1,statements,It will help protect myself,1,17/06/2021 12:45,17/06/2021 12:57,IP Address,For (I feel positively about the vaccines),Never,Most months,22,Female,NA,"Postgraduate degree (MSc, MA, MPhil)",control,47,2,For,For
60,1659950000000,08/08/2022 10:12,1659950000000,1,08/08/2022 11:12,94118,2,task-j4ag,NA,23521324,6893376,NA,complete,NA,62f0e0ab2d2fc7b623e8cfc3,computer,Desktop or Laptop,Windows 10,Chrome 103.0.0.0,1280x720,1280x577,NA,ITT Ratings,2,against,5,NA,NA,NA,ACCEPT,NA,NA,NA,NA,NA,NA,batch5pro,batch5pro,32,58,1,Screen 1,continueButton,response_rating_scale_likert_active,4254.8,NA,NA,Disagree,1,0,1,0,NA,NA,NA,NA,1,statements,It protects me and others around me by reducing the likelihood of me spreading the disease to others.,1,17/06/2021 12:44,17/06/2021 12:56,IP Address,For (I feel positively about the vaccines),Rarely,Rarely,40,Female,NA,"Undergraduate degree (BSc, BA)",choice,45,2,For,For
61,1659950000000,08/08/2022 10:12,1659950000000,1,08/08/2022 11:12,94118,2,task-j4ag,NA,23521324,6893376,NA,complete,NA,62f0e0ab2d2fc7b623e8cfc3,computer,Desktop or Laptop,Windows 10,Chrome 103.0.0.0,1280x720,1280x577,NA,ITT Ratings,2,against,5,NA,NA,NA,ACCEPT,NA,NA,NA,NA,NA,NA,batch5pro,batch5pro,29,59,1,Screen 1,continueButton,response_rating_scale_likert_active,2176.7,NA,NA,Neither Agree nor Disagree,1,0,1,0,NA,NA,NA,NA,1,statements,I feel the vaccine has been developed too quickly and not tested rigorously enough to the sure that it is safe.,1,17/06/2021 12:44,17/06/2021 12:56,IP Address,For (I feel positively about the vaccines),Rarely,Rarely,40,Female,NA,"Undergraduate degree (BSc, BA)",choice,45,2,For,Against
62,1659950000000,08/08/2022 10:12,1659950000000,1,08/08/2022 11:12,94118,2,task-j4ag,NA,23521324,6893376,NA,complete,NA,62f0e0ab2d2fc7b623e8cfc3,computer,Desktop or Laptop,Windows 10,Chrome 103.0.0.0,1280x720,1280x577,NA,ITT Ratings,2,against,5,NA,NA,NA,ACCEPT,NA,NA,NA,NA,NA,NA,batch5pro,batch5pro,48,60,1,Screen 1,continueButton,response_rating_scale_likert_active,2057,NA,NA,Agree,1,0,1,0,NA,NA,NA,NA,1,statements,I don't want to be injected to with something that can make me ill.,1,17/06/2021 12:48,17/06/2021 12:57,IP Address,For (I feel positively about the vaccines),Rarely,Most months,25,Female,NA,A levels,choice,48,3,For,Against
63,1659950000000,08/08/2022 10:12,1659950000000,1,08/08/2022 11:12,94118,2,task-j4ag,NA,23521324,6893376,NA,complete,NA,62f0e0ab2d2fc7b623e8cfc3,computer,Desktop or Laptop,Windows 10,Chrome 103.0.0.0,1280x720,1280x577,NA,ITT Ratings,2,against,5,NA,NA,NA,ACCEPT,NA,NA,NA,NA,NA,NA,batch5pro,batch5pro,15,61,1,Screen 1,continueButton,response_rating_scale_likert_active,1534.8,NA,NA,Strongly Disagree,1,0,1,0,NA,NA,NA,NA,1,statements,I could meet my family again,1,17/06/2021 12:31,17/06/2021 12:55,IP Address,For (I feel positively about the vaccines),Most days,Most weeks,23,Female,NA,"Undergraduate degree (BSc, BA)",choice,42,3,For,For
64,1659950000000,08/08/2022 10:12,1659950000000,1,08/08/2022 11:12,94118,2,task-j4ag,NA,23521324,6893376,NA,complete,NA,62f0e0ab2d2fc7b623e8cfc3,computer,Desktop or Laptop,Windows 10,Chrome 103.0.0.0,1280x720,1280x577,NA,ITT Ratings,2,against,5,NA,NA,NA,ACCEPT,NA,NA,NA,NA,NA,NA,batch5pro,batch5pro,46,62,1,Screen 1,continueButton,response_rating_scale_likert_active,1711.2,NA,NA,Somewhat Agree,1,0,1,0,NA,NA,NA,NA,1,statements,I don't trust what's in the vaccine.,1,17/06/2021 12:48,17/06/2021 12:57,IP Address,For (I feel positively about the vaccines),Rarely,Most months,25,Female,NA,A levels,choice,48,1,For,Against
65,1659950000000,08/08/2022 10:12,1659950000000,1,08/08/2022 11:12,94118,2,task-j4ag,NA,23521324,6893376,NA,complete,NA,62f0e0ab2d2fc7b623e8cfc3,computer,Desktop or Laptop,Windows 10,Chrome 103.0.0.0,1280x720,1280x577,NA,ITT Ratings,2,against,5,NA,NA,NA,ACCEPT,NA,NA,NA,NA,NA,NA,batch5pro,NA,NA,END TASK,NA,NA,NA,NA,189858,NA,NA,NA,NA,0,1,0,NA,NA,NA,NA,NA,NA,NA,NA,NA,NA,NA,NA,NA,NA,NA,NA,NA,NA,NA,NA,NA,NA,NA
1,1659950000000,08/08/2022 10:32,1659950000000,1,08/08/2022 11:32,94118,2,task-j4ag,NA,23522075,6893587,NA,complete,NA,62f0e5dd2f73fbea5aa2c601,computer,Desktop or Laptop,Windows 10,Chrome 104.0.0.0,1280x1024,731x503,NA,ITT Ratings,2,against,5,NA,NA,NA,ACCEPT,NA,NA,NA,NA,NA,NA,batch5pro,NA,NA,BEGIN TASK,NA,NA,NA,NA,NA,NA,NA,NA,NA,0,1,0,NA,NA,NA,NA,NA,NA,NA,NA,NA,NA,NA,NA,NA,NA,NA,NA,NA,NA,NA,NA,NA,NA,NA
2,1659950000000,08/08/2022 10:32,1659950000000,1,08/08/2022 11:32,94118,2,task-j4ag,NA,23522075,6893587,NA,complete,NA,62f0e5dd2f73fbea5aa2c601,computer,Desktop or Laptop,Windows 10,Chrome 104.0.0.0,1280x1024,731x503,NA,ITT Ratings,2,against,5,NA,NA,NA,ACCEPT,NA,NA,NA,NA,NA,NA,batch5pro,batch5pro,1,1,1,Screen 1,advancementZone,continue_button,11013.1,NA,NA,NA,NA,0,1,0,NA,NA,NA,NA,NA,instructions,NA,NA,NA,NA,NA,NA,NA,NA,NA,NA,NA,NA,NA,NA,NA,NA,NA
3,1659950000000,08/08/2022 10:33,1659950000000,1,08/08/2022 11:33,94118,2,task-j4ag,NA,23522075,6893587,NA,complete,NA,62f0e5dd2f73fbea5aa2c601,computer,Desktop or Laptop,Windows 10,Chrome 104.0.0.0,1280x1024,731x503,NA,ITT Ratings,2,against,5,NA,NA,NA,ACCEPT,NA,NA,NA,NA,NA,NA,batch5pro,batch5pro,5,1,1,Screen 1,continueButton,response_rating_scale_likert_active,18265.8,NA,NA,Neither Agree nor Disagree,1,0,1,0,NA,NA,NA,NA,1,statements,The Government are having to insure the vaccines,1,17/06/2021 12:39,17/06/2021 12:54,IP Address,For (I feel positively about the vaccines),Rarely,Most months,38,Male,NA,"Undergraduate degree (BSc, BA)",choice,41,2,For,Against
4,1659950000000,08/08/2022 10:33,1659950000000,1,08/08/2022 11:33,94118,2,task-j4ag,NA,23522075,6893587,NA,complete,NA,62f0e5dd2f73fbea5aa2c601,computer,Desktop or Laptop,Windows 10,Chrome 104.0.0.0,1280x1024,731x503,NA,ITT Ratings,2,against,5,NA,NA,NA,ACCEPT,NA,NA,NA,NA,NA,NA,batch5pro,batch5pro,43,2,1,Screen 1,continueButton,response_rating_scale_likert_active,3560.3,NA,NA,Strongly Disagree,1,0,1,0,NA,NA,NA,NA,1,statements,The vaccine is safe and 95% effective,1,17/06/2021 12:45,17/06/2021 12:57,IP Address,For (I feel positively about the vaccines),Never,Most months,22,Female,NA,"Postgraduate degree (MSc, MA, MPhil)",control,47,1,For,For
5,1659950000000,08/08/2022 10:33,1659950000000,1,08/08/2022 11:33,94118,2,task-j4ag,NA,23522075,6893587,NA,complete,NA,62f0e5dd2f73fbea5aa2c601,computer,Desktop or Laptop,Windows 10,Chrome 104.0.0.0,1280x1024,731x503,NA,ITT Ratings,2,against,5,NA,NA,NA,ACCEPT,NA,NA,NA,NA,NA,NA,batch5pro,batch5pro,47,3,1,Screen 1,continueButton,response_rating_scale_likert_active,8498.6,NA,NA,Disagree,1,0,1,0,NA,NA,NA,NA,1,statements,I don't think covid is real.,1,17/06/2021 12:48,17/06/2021 12:57,IP Address,For (I feel positively about the vaccines),Rarely,Most months,25,Female,NA,A levels,choice,48,2,For,Against
6,1659950000000,08/08/2022 10:33,1659950000000,1,08/08/2022 11:33,94118,2,task-j4ag,NA,23522075,6893587,NA,complete,NA,62f0e5dd2f73fbea5aa2c601,computer,Desktop or Laptop,Windows 10,Chrome 104.0.0.0,1280x1024,731x503,NA,ITT Ratings,2,against,5,NA,NA,NA,ACCEPT,NA,NA,NA,NA,NA,NA,batch5pro,batch5pro,57,4,1,Screen 1,continueButton,response_rating_scale_likert_active,20211.7,NA,NA,Neither Agree nor Disagree,1,0,1,0,NA,NA,NA,NA,1,statements,To assist in getting through this pandemic,1,17/06/2021 12:49,17/06/2021 12:57,IP Address,For (I feel positively about the vaccines),Rarely,A few times a year,38,Male,NA,GCSEs,control,49,3,For,For
7,1659950000000,08/08/2022 10:33,1659950000000,1,08/08/2022 11:33,94118,2,task-j4ag,NA,23522075,6893587,NA,complete,NA,62f0e5dd2f73fbea5aa2c601,computer,Desktop or Laptop,Windows 10,Chrome 104.0.0.0,1280x1024,731x503,NA,ITT Ratings,2,against,5,NA,NA,NA,ACCEPT,NA,NA,NA,NA,NA,NA,batch5pro,batch5pro,32,5,1,Screen 1,continueButton,response_rating_scale_likert_active,11009.1,NA,NA,Strongly Disagree,1,0,1,0,NA,NA,NA,NA,1,statements,It protects me and others around me by reducing the likelihood of me spreading the disease to others.,1,17/06/2021 12:44,17/06/2021 12:56,IP Address,For (I feel positively about the vaccines),Rarely,Rarely,40,Female,NA,"Undergraduate degree (BSc, BA)",choice,45,2,For,For
8,1659950000000,08/08/2022 10:33,1659950000000,1,08/08/2022 11:33,94118,2,task-j4ag,NA,23522075,6893587,NA,complete,NA,62f0e5dd2f73fbea5aa2c601,computer,Desktop or Laptop,Windows 10,Chrome 104.0.0.0,1280x1024,731x503,NA,ITT Ratings,2,against,5,NA,NA,NA,ACCEPT,NA,NA,NA,NA,NA,NA,batch5pro,batch5pro,45,6,1,Screen 1,continueButton,response_rating_scale_likert_active,5738.1,NA,NA,Strongly Disagree,1,0,1,0,NA,NA,NA,NA,1,statements,"It will help protect the general population, and stop the spread of COVID-19",1,17/06/2021 12:45,17/06/2021 12:57,IP Address,For (I feel positively about the vaccines),Never,Most months,22,Female,NA,"Postgraduate degree (MSc, MA, MPhil)",control,47,3,For,For
9,1659950000000,08/08/2022 10:33,1659950000000,1,08/08/2022 11:33,94118,2,task-j4ag,NA,23522075,6893587,NA,complete,NA,62f0e5dd2f73fbea5aa2c601,computer,Desktop or Laptop,Windows 10,Chrome 104.0.0.0,1280x1024,731x503,NA,ITT Ratings,2,against,5,NA,NA,NA,ACCEPT,NA,NA,NA,NA,NA,NA,batch5pro,batch5pro,53,7,1,Screen 1,continueButton,response_rating_scale_likert_active,4281.7,NA,NA,Strongly Agree,1,0,1,0,NA,NA,NA,NA,1,statements,Don't know what's in them and who created them,1,17/06/2021 12:49,17/06/2021 12:57,IP Address,For (I feel positively about the vaccines),Rarely,A few times a year,38,Male,NA,GCSEs,control,49,2,For,Against
10,1659950000000,08/08/2022 10:33,1659950000000,1,08/08/2022 11:33,94118,2,task-j4ag,NA,23522075,6893587,NA,complete,NA,62f0e5dd2f73fbea5aa2c601,computer,Desktop or Laptop,Windows 10,Chrome 104.0.0.0,1280x1024,731x503,NA,ITT Ratings,2,against,5,NA,NA,NA,ACCEPT,NA,NA,NA,NA,NA,NA,batch5pro,batch5pro,56,8,1,Screen 1,continueButton,response_rating_scale_likert_active,2417.1,NA,NA,Strongly Disagree,1,0,1,0,NA,NA,NA,NA,1,statements,It's for the better good.,1,17/06/2021 12:49,17/06/2021 12:57,IP Address,For (I feel positively about the vaccines),Rarely,A few times a year,38,Male,NA,GCSEs,control,49,2,For,For
11,1659950000000,08/08/2022 10:34,1659950000000,1,08/08/2022 11:34,94118,2,task-j4ag,NA,23522075,6893587,NA,complete,NA,62f0e5dd2f73fbea5aa2c601,computer,Desktop or Laptop,Windows 10,Chrome 104.0.0.0,1280x1024,731x503,NA,ITT Ratings,2,against,5,NA,NA,NA,ACCEPT,NA,NA,NA,NA,NA,NA,batch5pro,batch5pro,50,9,1,Screen 1,continueButton,response_rating_scale_likert_active,6065.7,NA,NA,Strongly Disagree,1,0,1,0,NA,NA,NA,NA,1,statements,I want to help keep other people safe from covid,1,17/06/2021 12:48,17/06/2021 12:57,IP Address,For (I feel positively about the vaccines),Rarely,Most months,25,Female,NA,A levels,choice,48,2,For,For
12,1659950000000,08/08/2022 10:34,1659950000000,1,08/08/2022 11:34,94118,2,task-j4ag,NA,23522075,6893587,NA,complete,NA,62f0e5dd2f73fbea5aa2c601,computer,Desktop or Laptop,Windows 10,Chrome 104.0.0.0,1280x1024,731x503,NA,ITT Ratings,2,against,5,NA,NA,NA,ACCEPT,NA,NA,NA,NA,NA,NA,batch5pro,batch5pro,27,10,1,Screen 1,continueButton,response_rating_scale_likert_active,5119.8,NA,NA,Agree,1,0,1,0,NA,NA,NA,NA,1,statements,So that I can travel to different countries without hassle.,1,17/06/2021 12:41,17/06/2021 12:56,IP Address,For (I feel positively about the vaccines),Most weeks,Most weeks,23,Male,NA,"Undergraduate degree (BSc, BA)",control,44,3,For,For
13,1659950000000,08/08/2022 10:34,1659950000000,1,08/08/2022 11:34,94118,2,task-j4ag,NA,23522075,6893587,NA,complete,NA,62f0e5dd2f73fbea5aa2c601,computer,Desktop or Laptop,Windows 10,Chrome 104.0.0.0,1280x1024,731x503,NA,ITT Ratings,2,against,5,NA,NA,NA,ACCEPT,NA,NA,NA,NA,NA,NA,batch5pro,batch5pro,52,11,1,Screen 1,continueButton,response_rating_scale_likert_active,3303.8,NA,NA,Strongly Agree,1,0,1,0,NA,NA,NA,NA,1,statements,Unsafe and could cause side effects,1,17/06/2021 12:49,17/06/2021 12:57,IP Address,For (I feel positively about the vaccines),Rarely,A few times a year,38,Male,NA,GCSEs,control,49,1,For,Against
14,1659950000000,08/08/2022 10:34,1659950000000,1,08/08/2022 11:34,94118,2,task-j4ag,NA,23522075,6893587,NA,complete,NA,62f0e5dd2f73fbea5aa2c601,computer,Desktop or Laptop,Windows 10,Chrome 104.0.0.0,1280x1024,731x503,NA,ITT Ratings,2,against,5,NA,NA,NA,ACCEPT,NA,NA,NA,NA,NA,NA,batch5pro,batch5pro,61,12,1,Screen 1,continueButton,response_rating_scale_likert_active,2568.3,NA,NA,Strongly Disagree,1,0,1,0,NA,NA,NA,NA,1,statements,That the vaccine is safe,1,17/06/2021 12:52,17/06/2021 12:57,IP Address,For (I feel positively about the vaccines),Most months,Most months,29,Female,NA,"Undergraduate degree (BSc, BA)",control,50,1,For,For
15,1659950000000,08/08/2022 10:34,1659950000000,1,08/08/2022 11:34,94118,2,task-j4ag,NA,23522075,6893587,NA,complete,NA,62f0e5dd2f73fbea5aa2c601,computer,Desktop or Laptop,Windows 10,Chrome 104.0.0.0,1280x1024,731x503,NA,ITT Ratings,2,against,5,NA,NA,NA,ACCEPT,NA,NA,NA,NA,NA,NA,batch5pro,batch5pro,11,13,1,Screen 1,continueButton,response_rating_scale_likert_active,3958.9,NA,NA,Strongly Agree,1,0,1,0,NA,NA,NA,NA,1,statements,We are unsure of any possible side effects,1,17/06/2021 12:31,17/06/2021 12:55,IP Address,For (I feel positively about the vaccines),Most days,Most weeks,23,Female,NA,"Undergraduate degree (BSc, BA)",choice,42,2,For,Against
16,1659950000000,08/08/2022 10:34,1659950000000,1,08/08/2022 11:34,94118,2,task-j4ag,NA,23522075,6893587,NA,complete,NA,62f0e5dd2f73fbea5aa2c601,computer,Desktop or Laptop,Windows 10,Chrome 104.0.0.0,1280x1024,731x503,NA,ITT Ratings,2,against,5,NA,NA,NA,ACCEPT,NA,NA,NA,NA,NA,NA,batch5pro,batch5pro,54,14,1,Screen 1,continueButton,response_rating_scale_likert_active,10504.1,NA,NA,Agree,1,0,1,0,NA,NA,NA,NA,1,statements,I would rather risk it and rely on immune system.,1,17/06/2021 12:49,17/06/2021 12:57,IP Address,For (I feel positively about the vaccines),Rarely,A few times a year,38,Male,NA,GCSEs,control,49,3,For,Against
17,1659950000000,08/08/2022 10:34,1659950000000,1,08/08/2022 11:34,94118,2,task-j4ag,NA,23522075,6893587,NA,complete,NA,62f0e5dd2f73fbea5aa2c601,computer,Desktop or Laptop,Windows 10,Chrome 104.0.0.0,1280x1024,731x503,NA,ITT Ratings,2,against,5,NA,NA,NA,ACCEPT,NA,NA,NA,NA,NA,NA,batch5pro,batch5pro,37,15,1,Screen 1,continueButton,response_rating_scale_likert_active,2510.4,NA,NA,Strongly Disagree,1,0,1,0,NA,NA,NA,NA,1,statements,to protect myself and family,1,17/06/2021 12:46,17/06/2021 12:56,IP Address,For (I feel positively about the vaccines),A few times a year,A few times a year,53,Female,NA,Vocational Training / Apprenticeship,control,46,1,For,For
18,1659950000000,08/08/2022 10:34,1659950000000,1,08/08/2022 11:34,94118,2,task-j4ag,NA,23522075,6893587,NA,complete,NA,62f0e5dd2f73fbea5aa2c601,computer,Desktop or Laptop,Windows 10,Chrome 104.0.0.0,1280x1024,731x503,NA,ITT Ratings,2,against,5,NA,NA,NA,ACCEPT,NA,NA,NA,NA,NA,NA,batch5pro,batch5pro,44,16,1,Screen 1,continueButton,response_rating_scale_likert_active,2848.5,NA,NA,Strongly Disagree,1,0,1,0,NA,NA,NA,NA,1,statements,It will help protect myself,1,17/06/2021 12:45,17/06/2021 12:57,IP Address,For (I feel positively about the vaccines),Never,Most months,22,Female,NA,"Postgraduate degree (MSc, MA, MPhil)",control,47,2,For,For
19,1659950000000,08/08/2022 10:34,1659950000000,1,08/08/2022 11:34,94118,2,task-j4ag,NA,23522075,6893587,NA,complete,NA,62f0e5dd2f73fbea5aa2c601,computer,Desktop or Laptop,Windows 10,Chrome 104.0.0.0,1280x1024,731x503,NA,ITT Ratings,2,against,5,NA,NA,NA,ACCEPT,NA,NA,NA,NA,NA,NA,batch5pro,batch5pro,24,17,1,Screen 1,continueButton,response_rating_scale_likert_active,4435.7,NA,NA,Strongly Agree,1,0,1,0,NA,NA,NA,NA,1,statements,The vaccine may contain something that we have not been told about.,1,17/06/2021 12:41,17/06/2021 12:56,IP Address,For (I feel positively about the vaccines),Most weeks,Most weeks,23,Male,NA,"Undergraduate degree (BSc, BA)",control,44,3,For,Against
20,1659950000000,08/08/2022 10:34,1659950000000,1,08/08/2022 11:34,94118,2,task-j4ag,NA,23522075,6893587,NA,complete,NA,62f0e5dd2f73fbea5aa2c601,computer,Desktop or Laptop,Windows 10,Chrome 104.0.0.0,1280x1024,731x503,NA,ITT Ratings,2,against,5,NA,NA,NA,ACCEPT,NA,NA,NA,NA,NA,NA,batch5pro,batch5pro,4,18,1,Screen 1,continueButton,response_rating_scale_likert_active,18686,NA,NA,Neither Agree nor Disagree,1,0,1,0,NA,NA,NA,NA,1,statements,A defunct or manipulated research paper is usually brought out on facebook to put into question the vaccines ability to stop transmitting.,1,17/06/2021 12:39,17/06/2021 12:54,IP Address,For (I feel positively about the vaccines),Rarely,Most months,38,Male,NA,"Undergraduate degree (BSc, BA)",choice,41,1,For,Against
21,1659950000000,08/08/2022 10:35,1659950000000,1,08/08/2022 11:35,94118,2,task-j4ag,NA,23522075,6893587,NA,complete,NA,62f0e5dd2f73fbea5aa2c601,computer,Desktop or Laptop,Windows 10,Chrome 104.0.0.0,1280x1024,731x503,NA,ITT Ratings,2,against,5,NA,NA,NA,ACCEPT,NA,NA,NA,NA,NA,NA,batch5pro,batch5pro,41,19,1,Screen 1,continueButton,response_rating_scale_likert_active,5049.5,NA,NA,Neither Agree nor Disagree,1,0,1,0,NA,NA,NA,NA,1,statements,I am under the impression that vaccinations and autism are linked,1,17/06/2021 12:45,17/06/2021 12:57,IP Address,For (I feel positively about the vaccines),Never,Most months,22,Female,NA,"Postgraduate degree (MSc, MA, MPhil)",control,47,2,For,Against
22,1659950000000,08/08/2022 10:35,1659950000000,1,08/08/2022 11:35,94118,2,task-j4ag,NA,23522075,6893587,NA,complete,NA,62f0e5dd2f73fbea5aa2c601,computer,Desktop or Laptop,Windows 10,Chrome 104.0.0.0,1280x1024,731x503,NA,ITT Ratings,2,against,5,NA,NA,NA,ACCEPT,NA,NA,NA,NA,NA,NA,batch5pro,batch5pro,51,20,1,Screen 1,continueButton,response_rating_scale_likert_active,10570.4,NA,NA,Agree,1,0,1,0,NA,NA,NA,NA,1,statements,I have been told it's the right thing by my doctor,1,17/06/2021 12:48,17/06/2021 12:57,IP Address,For (I feel positively about the vaccines),Rarely,Most months,25,Female,NA,A levels,choice,48,3,For,For
23,1659950000000,08/08/2022 10:35,1659950000000,1,08/08/2022 11:35,94118,2,task-j4ag,NA,23522075,6893587,NA,complete,NA,62f0e5dd2f73fbea5aa2c601,computer,Desktop or Laptop,Windows 10,Chrome 104.0.0.0,1280x1024,731x503,NA,ITT Ratings,2,against,5,NA,NA,NA,ACCEPT,NA,NA,NA,NA,NA,NA,batch5pro,batch5pro,40,21,1,Screen 1,continueButton,response_rating_scale_likert_active,3770.5,NA,NA,Strongly Agree,1,0,1,0,NA,NA,NA,NA,1,statements,I do not trust the people who have made the vaccine,1,17/06/2021 12:45,17/06/2021 12:57,IP Address,For (I feel positively about the vaccines),Never,Most months,22,Female,NA,"Postgraduate degree (MSc, MA, MPhil)",control,47,1,For,Against
24,1659950000000,08/08/2022 10:35,1659950000000,1,08/08/2022 11:35,94118,2,task-j4ag,NA,23522075,6893587,NA,complete,NA,62f0e5dd2f73fbea5aa2c601,computer,Desktop or Laptop,Windows 10,Chrome 104.0.0.0,1280x1024,731x503,NA,ITT Ratings,2,against,5,NA,NA,NA,ACCEPT,NA,NA,NA,NA,NA,NA,batch5pro,batch5pro,12,22,1,Screen 1,continueButton,response_rating_scale_likert_active,3637.9,NA,NA,Strongly Agree,1,0,1,0,NA,NA,NA,NA,1,statements,I could become more ill,1,17/06/2021 12:31,17/06/2021 12:55,IP Address,For (I feel positively about the vaccines),Most days,Most weeks,23,Female,NA,"Undergraduate degree (BSc, BA)",choice,42,3,For,Against
25,1659950000000,08/08/2022 10:35,1659950000000,1,08/08/2022 11:35,94118,2,task-j4ag,NA,23522075,6893587,NA,complete,NA,62f0e5dd2f73fbea5aa2c601,computer,Desktop or Laptop,Windows 10,Chrome 104.0.0.0,1280x1024,731x503,NA,ITT Ratings,2,against,5,NA,NA,NA,ACCEPT,NA,NA,NA,NA,NA,NA,batch5pro,batch5pro,26,23,1,Screen 1,continueButton,response_rating_scale_likert_active,5705.8,NA,NA,Strongly Disagree,1,0,1,0,NA,NA,NA,NA,1,statements,So I can see my family and friends without fear of contracting the virus.,1,17/06/2021 12:41,17/06/2021 12:56,IP Address,For (I feel positively about the vaccines),Most weeks,Most weeks,23,Male,NA,"Undergraduate degree (BSc, BA)",control,44,2,For,For
26,1659950000000,08/08/2022 10:35,1659950000000,1,08/08/2022 11:35,94118,2,task-j4ag,NA,23522075,6893587,NA,complete,NA,62f0e5dd2f73fbea5aa2c601,computer,Desktop or Laptop,Windows 10,Chrome 104.0.0.0,1280x1024,731x503,NA,ITT Ratings,2,against,5,NA,NA,NA,ACCEPT,NA,NA,NA,NA,NA,NA,batch5pro,batch5pro,38,24,1,Screen 1,continueButton,response_rating_scale_likert_active,4695.6,NA,NA,Strongly Disagree,1,0,1,0,NA,NA,NA,NA,1,statements,the evidence and information relating to the vaccine is positive,1,17/06/2021 12:46,17/06/2021 12:56,IP Address,For (I feel positively about the vaccines),A few times a year,A few times a year,53,Female,NA,Vocational Training / Apprenticeship,control,46,2,For,For
27,1659950000000,08/08/2022 10:35,1659950000000,1,08/08/2022 11:35,94118,2,task-j4ag,NA,23522075,6893587,NA,complete,NA,62f0e5dd2f73fbea5aa2c601,computer,Desktop or Laptop,Windows 10,Chrome 104.0.0.0,1280x1024,731x503,NA,ITT Ratings,2,against,5,NA,NA,NA,ACCEPT,NA,NA,NA,NA,NA,NA,batch5pro,batch5pro,14,25,1,Screen 1,continueButton,response_rating_scale_likert_active,2620.2,NA,NA,Strongly Disagree,1,0,1,0,NA,NA,NA,NA,1,statements,It would mean that the rate of infection would go down,1,17/06/2021 12:31,17/06/2021 12:55,IP Address,For (I feel positively about the vaccines),Most days,Most weeks,23,Female,NA,"Undergraduate degree (BSc, BA)",choice,42,2,For,For
28,1659950000000,08/08/2022 10:35,1659950000000,1,08/08/2022 11:35,94118,2,task-j4ag,NA,23522075,6893587,NA,complete,NA,62f0e5dd2f73fbea5aa2c601,computer,Desktop or Laptop,Windows 10,Chrome 104.0.0.0,1280x1024,731x503,NA,ITT Ratings,2,against,5,NA,NA,NA,ACCEPT,NA,NA,NA,NA,NA,NA,batch5pro,batch5pro,19,26,1,Screen 1,continueButton,response_rating_scale_likert_active,2706.6,NA,NA,Strongly Disagree,1,0,1,0,NA,NA,NA,NA,1,statements,I believe the vaccine is beneficial and will provide protection,1,17/06/2021 12:45,17/06/2021 12:55,IP Address,For (I feel positively about the vaccines),Never,Rarely,27,Female,NA,A levels,control,43,1,For,For
29,1659950000000,08/08/2022 10:35,1659950000000,1,08/08/2022 11:35,94118,2,task-j4ag,NA,23522075,6893587,NA,complete,NA,62f0e5dd2f73fbea5aa2c601,computer,Desktop or Laptop,Windows 10,Chrome 104.0.0.0,1280x1024,731x503,NA,ITT Ratings,2,against,5,NA,NA,NA,ACCEPT,NA,NA,NA,NA,NA,NA,batch5pro,batch5pro,30,27,1,Screen 1,continueButton,response_rating_scale_likert_active,8053.6,NA,NA,Agree,1,0,1,0,NA,NA,NA,NA,1,statements,I believe the benefits of the vaccine do not outweigh the risks and believe that covid would be a mild disease for me.,1,17/06/2021 12:44,17/06/2021 12:56,IP Address,For (I feel positively about the vaccines),Rarely,Rarely,40,Female,NA,"Undergraduate degree (BSc, BA)",choice,45,3,For,Against
30,1659950000000,08/08/2022 10:35,1659950000000,1,08/08/2022 11:35,94118,2,task-j4ag,NA,23522075,6893587,NA,complete,NA,62f0e5dd2f73fbea5aa2c601,computer,Desktop or Laptop,Windows 10,Chrome 104.0.0.0,1280x1024,731x503,NA,ITT Ratings,2,against,5,NA,NA,NA,ACCEPT,NA,NA,NA,NA,NA,NA,batch5pro,batch5pro,46,28,1,Screen 1,continueButton,response_rating_scale_likert_active,3885.1,NA,NA,Strongly Agree,1,0,1,0,NA,NA,NA,NA,1,statements,I don't trust what's in the vaccine.,1,17/06/2021 12:48,17/06/2021 12:57,IP Address,For (I feel positively about the vaccines),Rarely,Most months,25,Female,NA,A levels,choice,48,1,For,Against
31,1659950000000,08/08/2022 10:35,1659950000000,1,08/08/2022 11:35,94118,2,task-j4ag,NA,23522075,6893587,NA,complete,NA,62f0e5dd2f73fbea5aa2c601,computer,Desktop or Laptop,Windows 10,Chrome 104.0.0.0,1280x1024,731x503,NA,ITT Ratings,2,against,5,NA,NA,NA,ACCEPT,NA,NA,NA,NA,NA,NA,batch5pro,batch5pro,55,29,1,Screen 1,continueButton,response_rating_scale_likert_active,3738.1,NA,NA,Strongly Disagree,1,0,1,0,NA,NA,NA,NA,1,statements,It's safe and I want to ensure people around me are safe,1,17/06/2021 12:49,17/06/2021 12:57,IP Address,For (I feel positively about the vaccines),Rarely,A few times a year,38,Male,NA,GCSEs,control,49,1,For,For
32,1659950000000,08/08/2022 10:35,1659950000000,1,08/08/2022 11:35,94118,2,task-j4ag,NA,23522075,6893587,NA,complete,NA,62f0e5dd2f73fbea5aa2c601,computer,Desktop or Laptop,Windows 10,Chrome 104.0.0.0,1280x1024,731x503,NA,ITT Ratings,2,against,5,NA,NA,NA,ACCEPT,NA,NA,NA,NA,NA,NA,batch5pro,batch5pro,21,30,1,Screen 1,continueButton,response_rating_scale_likert_active,5482.6,NA,NA,Strongly Disagree,1,0,1,0,NA,NA,NA,NA,1,statements,I want to be protected against covid,1,17/06/2021 12:45,17/06/2021 12:55,IP Address,For (I feel positively about the vaccines),Never,Rarely,27,Female,NA,A levels,control,43,3,For,For
33,1659950000000,08/08/2022 10:36,1659950000000,1,08/08/2022 11:36,94118,2,task-j4ag,NA,23522075,6893587,NA,complete,NA,62f0e5dd2f73fbea5aa2c601,computer,Desktop or Laptop,Windows 10,Chrome 104.0.0.0,1280x1024,731x503,NA,ITT Ratings,2,against,5,NA,NA,NA,ACCEPT,NA,NA,NA,NA,NA,NA,batch5pro,batch5pro,25,31,1,Screen 1,continueButton,response_rating_scale_likert_active,5019.3,NA,NA,Strongly Disagree,1,0,1,0,NA,NA,NA,NA,1,statements,"So that, if I do contract Covid-19 at any point, the symptoms will be minor and manageable.",1,17/06/2021 12:41,17/06/2021 12:56,IP Address,For (I feel positively about the vaccines),Most weeks,Most weeks,23,Male,NA,"Undergraduate degree (BSc, BA)",control,44,1,For,For
34,1659950000000,08/08/2022 10:36,1659950000000,1,08/08/2022 11:36,94118,2,task-j4ag,NA,23522075,6893587,NA,complete,NA,62f0e5dd2f73fbea5aa2c601,computer,Desktop or Laptop,Windows 10,Chrome 104.0.0.0,1280x1024,731x503,NA,ITT Ratings,2,against,5,NA,NA,NA,ACCEPT,NA,NA,NA,NA,NA,NA,batch5pro,batch5pro,13,32,1,Screen 1,continueButton,response_rating_scale_likert_active,2824,NA,NA,Strongly Disagree,1,0,1,0,NA,NA,NA,NA,1,statements,It could protect others around me as well as myself,1,17/06/2021 12:31,17/06/2021 12:55,IP Address,For (I feel positively about the vaccines),Most days,Most weeks,23,Female,NA,"Undergraduate degree (BSc, BA)",choice,42,1,For,For
35,1659950000000,08/08/2022 10:36,1659950000000,1,08/08/2022 11:36,94118,2,task-j4ag,NA,23522075,6893587,NA,complete,NA,62f0e5dd2f73fbea5aa2c601,computer,Desktop or Laptop,Windows 10,Chrome 104.0.0.0,1280x1024,731x503,NA,ITT Ratings,2,against,5,NA,NA,NA,ACCEPT,NA,NA,NA,NA,NA,NA,batch5pro,batch5pro,31,33,1,Screen 1,continueButton,response_rating_scale_likert_active,4467,NA,NA,Strongly Disagree,1,0,1,0,NA,NA,NA,NA,1,statements,It is a way of protecting from the serious health implications of catching covid.,1,17/06/2021 12:44,17/06/2021 12:56,IP Address,For (I feel positively about the vaccines),Rarely,Rarely,40,Female,NA,"Undergraduate degree (BSc, BA)",choice,45,1,For,For
36,1659950000000,08/08/2022 10:36,1659950000000,1,08/08/2022 11:36,94118,2,task-j4ag,NA,23522075,6893587,NA,complete,NA,62f0e5dd2f73fbea5aa2c601,computer,Desktop or Laptop,Windows 10,Chrome 104.0.0.0,1280x1024,731x503,NA,ITT Ratings,2,against,5,NA,NA,NA,ACCEPT,NA,NA,NA,NA,NA,NA,batch5pro,batch5pro,22,34,1,Screen 1,continueButton,response_rating_scale_likert_active,7521.1,NA,NA,Strongly Agree,1,0,1,0,NA,NA,NA,NA,1,statements,"The vaccines were rushed into distribution, and as a result of that, they may be dangerous or ineffective.",1,17/06/2021 12:41,17/06/2021 12:56,IP Address,For (I feel positively about the vaccines),Most weeks,Most weeks,23,Male,NA,"Undergraduate degree (BSc, BA)",control,44,1,For,Against
37,1659950000000,08/08/2022 10:36,1659950000000,1,08/08/2022 11:36,94118,2,task-j4ag,NA,23522075,6893587,NA,complete,NA,62f0e5dd2f73fbea5aa2c601,computer,Desktop or Laptop,Windows 10,Chrome 104.0.0.0,1280x1024,731x503,NA,ITT Ratings,2,against,5,NA,NA,NA,ACCEPT,NA,NA,NA,NA,NA,NA,batch5pro,batch5pro,8,35,1,Screen 1,continueButton,response_rating_scale_likert_active,4536.6,NA,NA,Strongly Disagree,1,0,1,0,NA,NA,NA,NA,1,statements,I don't want friends or family to get sick.,1,17/06/2021 12:39,17/06/2021 12:54,IP Address,For (I feel positively about the vaccines),Rarely,Most months,38,Male,NA,"Undergraduate degree (BSc, BA)",choice,41,2,For,For
38,1659950000000,08/08/2022 10:36,1659950000000,1,08/08/2022 11:36,94118,2,task-j4ag,NA,23522075,6893587,NA,complete,NA,62f0e5dd2f73fbea5aa2c601,computer,Desktop or Laptop,Windows 10,Chrome 104.0.0.0,1280x1024,731x503,NA,ITT Ratings,2,against,5,NA,NA,NA,ACCEPT,NA,NA,NA,NA,NA,NA,batch5pro,batch5pro,7,36,1,Screen 1,continueButton,response_rating_scale_likert_active,6186.1,NA,NA,Neither Agree nor Disagree,1,0,1,0,NA,NA,NA,NA,1,statements,They don't want to get sick,1,17/06/2021 12:39,17/06/2021 12:54,IP Address,For (I feel positively about the vaccines),Rarely,Most months,38,Male,NA,"Undergraduate degree (BSc, BA)",choice,41,1,For,For
39,1659950000000,08/08/2022 10:36,1659950000000,1,08/08/2022 11:36,94118,2,task-j4ag,NA,23522075,6893587,NA,complete,NA,62f0e5dd2f73fbea5aa2c601,computer,Desktop or Laptop,Windows 10,Chrome 104.0.0.0,1280x1024,731x503,NA,ITT Ratings,2,against,5,NA,NA,NA,ACCEPT,NA,NA,NA,NA,NA,NA,batch5pro,batch5pro,62,37,1,Screen 1,continueButton,response_rating_scale_likert_active,7235.1,NA,NA,Strongly Disagree,1,0,1,0,NA,NA,NA,NA,1,statements,The vaccine is helping to het the Country back to a nee normal,1,17/06/2021 12:52,17/06/2021 12:57,IP Address,For (I feel positively about the vaccines),Most months,Most months,29,Female,NA,"Undergraduate degree (BSc, BA)",control,50,2,For,For
40,1659960000000,08/08/2022 10:36,1659960000000,1,08/08/2022 11:36,94118,2,task-j4ag,NA,23522075,6893587,NA,complete,NA,62f0e5dd2f73fbea5aa2c601,computer,Desktop or Laptop,Windows 10,Chrome 104.0.0.0,1280x1024,731x503,NA,ITT Ratings,2,against,5,NA,NA,NA,ACCEPT,NA,NA,NA,NA,NA,NA,batch5pro,batch5pro,29,38,1,Screen 1,continueButton,response_rating_scale_likert_active,5435,NA,NA,Strongly Agree,1,0,1,0,NA,NA,NA,NA,1,statements,I feel the vaccine has been developed too quickly and not tested rigorously enough to the sure that it is safe.,1,17/06/2021 12:44,17/06/2021 12:56,IP Address,For (I feel positively about the vaccines),Rarely,Rarely,40,Female,NA,"Undergraduate degree (BSc, BA)",choice,45,2,For,Against
41,1659960000000,08/08/2022 10:36,1659960000000,1,08/08/2022 11:36,94118,2,task-j4ag,NA,23522075,6893587,NA,complete,NA,62f0e5dd2f73fbea5aa2c601,computer,Desktop or Laptop,Windows 10,Chrome 104.0.0.0,1280x1024,731x503,NA,ITT Ratings,2,against,5,NA,NA,NA,ACCEPT,NA,NA,NA,NA,NA,NA,batch5pro,batch5pro,39,39,1,Screen 1,continueButton,response_rating_scale_likert_active,3605,NA,NA,Neither Agree nor Disagree,1,0,1,0,NA,NA,NA,NA,1,statements,to be able to socialise and go on holiday,1,17/06/2021 12:46,17/06/2021 12:56,IP Address,For (I feel positively about the vaccines),A few times a year,A few times a year,53,Female,NA,Vocational Training / Apprenticeship,control,46,3,For,For
42,1659960000000,08/08/2022 10:36,1659960000000,1,08/08/2022 11:36,94118,2,task-j4ag,NA,23522075,6893587,NA,complete,NA,62f0e5dd2f73fbea5aa2c601,computer,Desktop or Laptop,Windows 10,Chrome 104.0.0.0,1280x1024,731x503,NA,ITT Ratings,2,against,5,NA,NA,NA,ACCEPT,NA,NA,NA,NA,NA,NA,batch5pro,batch5pro,2,40,1,Screen 1,continueButton,response_rating_scale_likert_active,10581.6,NA,NA,Somewhat Agree,1,0,1,0,NA,NA,NA,NA,1,statements,We would like to check you are reading each argument carefully. Please select 'Somewhat Agree' for this answer,1,NA,NA,NA,NA,NA,NA,NA,NA,NA,NA,NA,NA,check1,NA,NA
43,1659960000000,08/08/2022 10:36,1659960000000,1,08/08/2022 11:37,94118,2,task-j4ag,NA,23522075,6893587,NA,complete,NA,62f0e5dd2f73fbea5aa2c601,computer,Desktop or Laptop,Windows 10,Chrome 104.0.0.0,1280x1024,731x503,NA,ITT Ratings,2,against,5,NA,NA,NA,ACCEPT,NA,NA,NA,NA,NA,NA,batch5pro,batch5pro,60,41,1,Screen 1,continueButton,response_rating_scale_likert_active,3081.7,NA,NA,Agree,1,0,1,0,NA,NA,NA,NA,1,statements,I've already had covid,1,17/06/2021 12:52,17/06/2021 12:57,IP Address,For (I feel positively about the vaccines),Most months,Most months,29,Female,NA,"Undergraduate degree (BSc, BA)",control,50,3,For,Against
44,1659960000000,08/08/2022 10:37,1659960000000,1,08/08/2022 11:37,94118,2,task-j4ag,NA,23522075,6893587,NA,complete,NA,62f0e5dd2f73fbea5aa2c601,computer,Desktop or Laptop,Windows 10,Chrome 104.0.0.0,1280x1024,731x503,NA,ITT Ratings,2,against,5,NA,NA,NA,ACCEPT,NA,NA,NA,NA,NA,NA,batch5pro,batch5pro,28,42,1,Screen 1,continueButton,response_rating_scale_likert_active,3843.7,NA,NA,Neither Agree nor Disagree,1,0,1,0,NA,NA,NA,NA,1,statements,I am allergic to one of the ingredients in the vaccine.,1,17/06/2021 12:44,17/06/2021 12:56,IP Address,For (I feel positively about the vaccines),Rarely,Rarely,40,Female,NA,"Undergraduate degree (BSc, BA)",choice,45,1,For,Against
45,1659960000000,08/08/2022 10:37,1659960000000,1,08/08/2022 11:37,94118,2,task-j4ag,NA,23522075,6893587,NA,complete,NA,62f0e5dd2f73fbea5aa2c601,computer,Desktop or Laptop,Windows 10,Chrome 104.0.0.0,1280x1024,731x503,NA,ITT Ratings,2,against,5,NA,NA,NA,ACCEPT,NA,NA,NA,NA,NA,NA,batch5pro,batch5pro,6,43,1,Screen 1,continueButton,response_rating_scale_likert_active,6347.8,NA,NA,Disagree,1,0,1,0,NA,NA,NA,NA,1,statements,I don't believe in vaccines as I believe it alters my DNA which will effect my children.,1,17/06/2021 12:39,17/06/2021 12:54,IP Address,For (I feel positively about the vaccines),Rarely,Most months,38,Male,NA,"Undergraduate degree (BSc, BA)",choice,41,3,For,Against
46,1659960000000,08/08/2022 10:37,1659960000000,1,08/08/2022 11:37,94118,2,task-j4ag,NA,23522075,6893587,NA,complete,NA,62f0e5dd2f73fbea5aa2c601,computer,Desktop or Laptop,Windows 10,Chrome 104.0.0.0,1280x1024,731x503,NA,ITT Ratings,2,against,5,NA,NA,NA,ACCEPT,NA,NA,NA,NA,NA,NA,batch5pro,batch5pro,42,44,1,Screen 1,continueButton,response_rating_scale_likert_active,3072.6,NA,NA,Disagree,1,0,1,0,NA,NA,NA,NA,1,statements,I have a weak immune system,1,17/06/2021 12:45,17/06/2021 12:57,IP Address,For (I feel positively about the vaccines),Never,Most months,22,Female,NA,"Postgraduate degree (MSc, MA, MPhil)",control,47,3,For,Against
47,1659960000000,08/08/2022 10:37,1659960000000,1,08/08/2022 11:37,94118,2,task-j4ag,NA,23522075,6893587,NA,complete,NA,62f0e5dd2f73fbea5aa2c601,computer,Desktop or Laptop,Windows 10,Chrome 104.0.0.0,1280x1024,731x503,NA,ITT Ratings,2,against,5,NA,NA,NA,ACCEPT,NA,NA,NA,NA,NA,NA,batch5pro,batch5pro,16,45,1,Screen 1,continueButton,response_rating_scale_likert_active,4805.5,NA,NA,Strongly Agree,1,0,1,0,NA,NA,NA,NA,1,statements,I do not believe in the benefit of the vaccine,1,17/06/2021 12:45,17/06/2021 12:55,IP Address,For (I feel positively about the vaccines),Never,Rarely,27,Female,NA,A levels,control,43,1,For,Against
48,1659960000000,08/08/2022 10:37,1659960000000,1,08/08/2022 11:37,94118,2,task-j4ag,NA,23522075,6893587,NA,complete,NA,62f0e5dd2f73fbea5aa2c601,computer,Desktop or Laptop,Windows 10,Chrome 104.0.0.0,1280x1024,731x503,NA,ITT Ratings,2,against,5,NA,NA,NA,ACCEPT,NA,NA,NA,NA,NA,NA,batch5pro,batch5pro,18,46,1,Screen 1,continueButton,response_rating_scale_likert_active,2986.7,NA,NA,Strongly Agree,1,0,1,0,NA,NA,NA,NA,1,statements,I do not believe the vaccination is safe,1,17/06/2021 12:45,17/06/2021 12:55,IP Address,For (I feel positively about the vaccines),Never,Rarely,27,Female,NA,A levels,control,43,3,For,Against
49,1659960000000,08/08/2022 10:37,1659960000000,1,08/08/2022 11:37,94118,2,task-j4ag,NA,23522075,6893587,NA,complete,NA,62f0e5dd2f73fbea5aa2c601,computer,Desktop or Laptop,Windows 10,Chrome 104.0.0.0,1280x1024,731x503,NA,ITT Ratings,2,against,5,NA,NA,NA,ACCEPT,NA,NA,NA,NA,NA,NA,batch5pro,batch5pro,15,47,1,Screen 1,continueButton,response_rating_scale_likert_active,4305.6,NA,NA,Neither Agree nor Disagree,1,0,1,0,NA,NA,NA,NA,1,statements,I could meet my family again,1,17/06/2021 12:31,17/06/2021 12:55,IP Address,For (I feel positively about the vaccines),Most days,Most weeks,23,Female,NA,"Undergraduate degree (BSc, BA)",choice,42,3,For,For
50,1659960000000,08/08/2022 10:37,1659960000000,1,08/08/2022 11:37,94118,2,task-j4ag,NA,23522075,6893587,NA,complete,NA,62f0e5dd2f73fbea5aa2c601,computer,Desktop or Laptop,Windows 10,Chrome 104.0.0.0,1280x1024,731x503,NA,ITT Ratings,2,against,5,NA,NA,NA,ACCEPT,NA,NA,NA,NA,NA,NA,batch5pro,batch5pro,59,48,1,Screen 1,continueButton,response_rating_scale_likert_active,3497.7,NA,NA,Strongly Agree,1,0,1,0,NA,NA,NA,NA,1,statements,You don't know what you are having injected,1,17/06/2021 12:52,17/06/2021 12:57,IP Address,For (I feel positively about the vaccines),Most months,Most months,29,Female,NA,"Undergraduate degree (BSc, BA)",control,50,2,For,Against
51,1659960000000,08/08/2022 10:37,1659960000000,1,08/08/2022 11:37,94118,2,task-j4ag,NA,23522075,6893587,NA,complete,NA,62f0e5dd2f73fbea5aa2c601,computer,Desktop or Laptop,Windows 10,Chrome 104.0.0.0,1280x1024,731x503,NA,ITT Ratings,2,against,5,NA,NA,NA,ACCEPT,NA,NA,NA,NA,NA,NA,batch5pro,batch5pro,9,49,1,Screen 1,continueButton,response_rating_scale_likert_active,5450.5,NA,NA,Strongly Disagree,1,0,1,0,NA,NA,NA,NA,1,statements,I want to be able to be able to participate in group activities.,1,17/06/2021 12:39,17/06/2021 12:54,IP Address,For (I feel positively about the vaccines),Rarely,Most months,38,Male,NA,"Undergraduate degree (BSc, BA)",choice,41,3,For,For
52,1659960000000,08/08/2022 10:37,1659960000000,1,08/08/2022 11:37,94118,2,task-j4ag,NA,23522075,6893587,NA,complete,NA,62f0e5dd2f73fbea5aa2c601,computer,Desktop or Laptop,Windows 10,Chrome 104.0.0.0,1280x1024,731x503,NA,ITT Ratings,2,against,5,NA,NA,NA,ACCEPT,NA,NA,NA,NA,NA,NA,batch5pro,batch5pro,3,50,1,Screen 1,continueButton,response_rating_scale_likert_active,7210.8,NA,NA,Somewhat Disagree,1,0,1,0,NA,NA,NA,NA,1,statements,We would like to check you are reading each argument carefully. Please select 'Somewhat Disagree' for this answer,1,NA,NA,NA,NA,NA,NA,NA,NA,NA,NA,NA,NA,check2,NA,NA
53,1659960000000,08/08/2022 10:37,1659960000000,1,08/08/2022 11:37,94118,2,task-j4ag,NA,23522075,6893587,NA,complete,NA,62f0e5dd2f73fbea5aa2c601,computer,Desktop or Laptop,Windows 10,Chrome 104.0.0.0,1280x1024,731x503,NA,ITT Ratings,2,against,5,NA,NA,NA,ACCEPT,NA,NA,NA,NA,NA,NA,batch5pro,batch5pro,49,51,1,Screen 1,continueButton,response_rating_scale_likert_active,7865.1,NA,NA,Agree,1,0,1,0,NA,NA,NA,NA,1,statements,I want to be safe against covid,1,17/06/2021 12:48,17/06/2021 12:57,IP Address,For (I feel positively about the vaccines),Rarely,Most months,25,Female,NA,A levels,choice,48,1,For,For
54,1659960000000,08/08/2022 10:37,1659960000000,1,08/08/2022 11:37,94118,2,task-j4ag,NA,23522075,6893587,NA,complete,NA,62f0e5dd2f73fbea5aa2c601,computer,Desktop or Laptop,Windows 10,Chrome 104.0.0.0,1280x1024,731x503,NA,ITT Ratings,2,against,5,NA,NA,NA,ACCEPT,NA,NA,NA,NA,NA,NA,batch5pro,batch5pro,63,52,1,Screen 1,continueButton,response_rating_scale_likert_active,2705.7,NA,NA,Agree,1,0,1,0,NA,NA,NA,NA,1,statements,You can go on holiday,1,17/06/2021 12:52,17/06/2021 12:57,IP Address,For (I feel positively about the vaccines),Most months,Most months,29,Female,NA,"Undergraduate degree (BSc, BA)",control,50,3,For,For
55,1659960000000,08/08/2022 10:37,1659960000000,1,08/08/2022 11:37,94118,2,task-j4ag,NA,23522075,6893587,NA,complete,NA,62f0e5dd2f73fbea5aa2c601,computer,Desktop or Laptop,Windows 10,Chrome 104.0.0.0,1280x1024,731x503,NA,ITT Ratings,2,against,5,NA,NA,NA,ACCEPT,NA,NA,NA,NA,NA,NA,batch5pro,batch5pro,36,53,1,Screen 1,continueButton,response_rating_scale_likert_active,7524.6,NA,NA,Agree,1,0,1,0,NA,NA,NA,NA,1,statements,vaccine safety as it has not been out for long,1,17/06/2021 12:46,17/06/2021 12:56,IP Address,For (I feel positively about the vaccines),A few times a year,A few times a year,53,Female,NA,Vocational Training / Apprenticeship,control,46,3,For,Against
56,1659960000000,08/08/2022 10:38,1659960000000,1,08/08/2022 11:38,94118,2,task-j4ag,NA,23522075,6893587,NA,complete,NA,62f0e5dd2f73fbea5aa2c601,computer,Desktop or Laptop,Windows 10,Chrome 104.0.0.0,1280x1024,731x503,NA,ITT Ratings,2,against,5,NA,NA,NA,ACCEPT,NA,NA,NA,NA,NA,NA,batch5pro,batch5pro,58,54,1,Screen 1,continueButton,response_rating_scale_likert_active,3899.7,NA,NA,Strongly Agree,1,0,1,0,NA,NA,NA,NA,1,statements,That the vaccine isn't safe,1,17/06/2021 12:52,17/06/2021 12:57,IP Address,For (I feel positively about the vaccines),Most months,Most months,29,Female,NA,"Undergraduate degree (BSc, BA)",control,50,1,For,Against
57,1659960000000,08/08/2022 10:38,1659960000000,1,08/08/2022 11:38,94118,2,task-j4ag,NA,23522075,6893587,NA,complete,NA,62f0e5dd2f73fbea5aa2c601,computer,Desktop or Laptop,Windows 10,Chrome 104.0.0.0,1280x1024,731x503,NA,ITT Ratings,2,against,5,NA,NA,NA,ACCEPT,NA,NA,NA,NA,NA,NA,batch5pro,batch5pro,17,55,1,Screen 1,continueButton,response_rating_scale_likert_active,3909.1,NA,NA,Disagree,1,0,1,0,NA,NA,NA,NA,1,statements,I am against vaccinations,1,17/06/2021 12:45,17/06/2021 12:55,IP Address,For (I feel positively about the vaccines),Never,Rarely,27,Female,NA,A levels,control,43,2,For,Against
58,1659960000000,08/08/2022 10:38,1659960000000,1,08/08/2022 11:38,94118,2,task-j4ag,NA,23522075,6893587,NA,complete,NA,62f0e5dd2f73fbea5aa2c601,computer,Desktop or Laptop,Windows 10,Chrome 104.0.0.0,1280x1024,731x503,NA,ITT Ratings,2,against,5,NA,NA,NA,ACCEPT,NA,NA,NA,NA,NA,NA,batch5pro,batch5pro,34,56,1,Screen 1,continueButton,response_rating_scale_likert_active,4186.8,NA,NA,Strongly Agree,1,0,1,0,NA,NA,NA,NA,1,statements,government keeping track of us,1,17/06/2021 12:46,17/06/2021 12:56,IP Address,For (I feel positively about the vaccines),A few times a year,A few times a year,53,Female,NA,Vocational Training / Apprenticeship,control,46,1,For,Against
59,1659960000000,08/08/2022 10:38,1659960000000,1,08/08/2022 11:38,94118,2,task-j4ag,NA,23522075,6893587,NA,complete,NA,62f0e5dd2f73fbea5aa2c601,computer,Desktop or Laptop,Windows 10,Chrome 104.0.0.0,1280x1024,731x503,NA,ITT Ratings,2,against,5,NA,NA,NA,ACCEPT,NA,NA,NA,NA,NA,NA,batch5pro,batch5pro,48,57,1,Screen 1,continueButton,response_rating_scale_likert_active,3229.8,NA,NA,Strongly Agree,1,0,1,0,NA,NA,NA,NA,1,statements,I don't want to be injected to with something that can make me ill.,1,17/06/2021 12:48,17/06/2021 12:57,IP Address,For (I feel positively about the vaccines),Rarely,Most months,25,Female,NA,A levels,choice,48,3,For,Against
60,1659960000000,08/08/2022 10:38,1659960000000,1,08/08/2022 11:38,94118,2,task-j4ag,NA,23522075,6893587,NA,complete,NA,62f0e5dd2f73fbea5aa2c601,computer,Desktop or Laptop,Windows 10,Chrome 104.0.0.0,1280x1024,731x503,NA,ITT Ratings,2,against,5,NA,NA,NA,ACCEPT,NA,NA,NA,NA,NA,NA,batch5pro,batch5pro,35,58,1,Screen 1,continueButton,response_rating_scale_likert_active,4307.6,NA,NA,Disagree,1,0,1,0,NA,NA,NA,NA,1,statements,health reasons and I can not take  it,1,17/06/2021 12:46,17/06/2021 12:56,IP Address,For (I feel positively about the vaccines),A few times a year,A few times a year,53,Female,NA,Vocational Training / Apprenticeship,control,46,2,For,Against
61,1659960000000,08/08/2022 10:38,1659960000000,1,08/08/2022 11:38,94118,2,task-j4ag,NA,23522075,6893587,NA,complete,NA,62f0e5dd2f73fbea5aa2c601,computer,Desktop or Laptop,Windows 10,Chrome 104.0.0.0,1280x1024,731x503,NA,ITT Ratings,2,against,5,NA,NA,NA,ACCEPT,NA,NA,NA,NA,NA,NA,batch5pro,batch5pro,20,59,1,Screen 1,continueButton,response_rating_scale_likert_active,2640.9,NA,NA,Disagree,1,0,1,0,NA,NA,NA,NA,1,statements,I believe all vaccines help,1,17/06/2021 12:45,17/06/2021 12:55,IP Address,For (I feel positively about the vaccines),Never,Rarely,27,Female,NA,A levels,control,43,2,For,For
62,1659960000000,08/08/2022 10:38,1659960000000,1,08/08/2022 11:38,94118,2,task-j4ag,NA,23522075,6893587,NA,complete,NA,62f0e5dd2f73fbea5aa2c601,computer,Desktop or Laptop,Windows 10,Chrome 104.0.0.0,1280x1024,731x503,NA,ITT Ratings,2,against,5,NA,NA,NA,ACCEPT,NA,NA,NA,NA,NA,NA,batch5pro,batch5pro,23,60,1,Screen 1,continueButton,response_rating_scale_likert_active,7060.7,NA,NA,Neither Agree nor Disagree,1,0,1,0,NA,NA,NA,NA,1,statements,The side-effects of taking the vaccine are not worth the hassle of receiving a vaccine.,1,17/06/2021 12:41,17/06/2021 12:56,IP Address,For (I feel positively about the vaccines),Most weeks,Most weeks,23,Male,NA,"Undergraduate degree (BSc, BA)",control,44,2,For,Against
63,1659960000000,08/08/2022 10:38,1659960000000,1,08/08/2022 11:38,94118,2,task-j4ag,NA,23522075,6893587,NA,complete,NA,62f0e5dd2f73fbea5aa2c601,computer,Desktop or Laptop,Windows 10,Chrome 104.0.0.0,1280x1024,731x503,NA,ITT Ratings,2,against,5,NA,NA,NA,ACCEPT,NA,NA,NA,NA,NA,NA,batch5pro,batch5pro,33,61,1,Screen 1,continueButton,response_rating_scale_likert_active,4020.8,NA,NA,Strongly Disagree,1,0,1,0,NA,NA,NA,NA,1,statements,I believe it is safe.,1,17/06/2021 12:44,17/06/2021 12:56,IP Address,For (I feel positively about the vaccines),Rarely,Rarely,40,Female,NA,"Undergraduate degree (BSc, BA)",choice,45,3,For,For
64,1659960000000,08/08/2022 10:38,1659960000000,1,08/08/2022 11:38,94118,2,task-j4ag,NA,23522075,6893587,NA,complete,NA,62f0e5dd2f73fbea5aa2c601,computer,Desktop or Laptop,Windows 10,Chrome 104.0.0.0,1280x1024,731x503,NA,ITT Ratings,2,against,5,NA,NA,NA,ACCEPT,NA,NA,NA,NA,NA,NA,batch5pro,batch5pro,10,62,1,Screen 1,continueButton,response_rating_scale_likert_active,3774.9,NA,NA,Strongly Agree,1,0,1,0,NA,NA,NA,NA,1,statements,They haven't had enough time to create the vaccine,1,17/06/2021 12:31,17/06/2021 12:55,IP Address,For (I feel positively about the vaccines),Most days,Most weeks,23,Female,NA,"Undergraduate degree (BSc, BA)",choice,42,1,For,Against
65,1659960000000,08/08/2022 10:38,1659960000000,1,08/08/2022 11:38,94118,2,task-j4ag,NA,23522075,6893587,NA,complete,NA,62f0e5dd2f73fbea5aa2c601,computer,Desktop or Laptop,Windows 10,Chrome 104.0.0.0,1280x1024,731x503,NA,ITT Ratings,2,against,5,NA,NA,NA,ACCEPT,NA,NA,NA,NA,NA,NA,batch5pro,NA,NA,END TASK,NA,NA,NA,NA,363058,NA,NA,NA,NA,0,1,0,NA,NA,NA,NA,NA,NA,NA,NA,NA,NA,NA,NA,NA,NA,NA,NA,NA,NA,NA,NA,NA,NA,NA
1,1659950000000,08/08/2022 10:33,1659950000000,1,08/08/2022 11:33,94118,2,task-j4ag,NA,23522106,6893606,NA,complete,NA,62f0e65fe65443084ebbdd75,computer,Desktop or Laptop,Windows 10,Edge 104.0.1293.47,1280x720,1280x601,NA,ITT Ratings,2,against,5,NA,NA,NA,ACCEPT,NA,NA,NA,NA,NA,NA,batch5pro,NA,NA,BEGIN TASK,NA,NA,NA,NA,NA,NA,NA,NA,NA,0,1,0,NA,NA,NA,NA,NA,NA,NA,NA,NA,NA,NA,NA,NA,NA,NA,NA,NA,NA,NA,NA,NA,NA,NA
2,1659950000000,08/08/2022 10:34,1659950000000,1,08/08/2022 11:34,94118,2,task-j4ag,NA,23522106,6893606,NA,complete,NA,62f0e65fe65443084ebbdd75,computer,Desktop or Laptop,Windows 10,Edge 104.0.1293.47,1280x720,1280x601,NA,ITT Ratings,2,against,5,NA,NA,NA,ACCEPT,NA,NA,NA,NA,NA,NA,batch5pro,batch5pro,1,1,1,Screen 1,advancementZone,continue_button,9580.4,NA,NA,NA,NA,0,1,0,NA,NA,NA,NA,NA,instructions,NA,NA,NA,NA,NA,NA,NA,NA,NA,NA,NA,NA,NA,NA,NA,NA,NA
3,1659950000000,08/08/2022 10:34,1659950000000,1,08/08/2022 11:34,94118,2,task-j4ag,NA,23522106,6893606,NA,complete,NA,62f0e65fe65443084ebbdd75,computer,Desktop or Laptop,Windows 10,Edge 104.0.1293.47,1280x720,1280x601,NA,ITT Ratings,2,against,5,NA,NA,NA,ACCEPT,NA,NA,NA,NA,NA,NA,batch5pro,batch5pro,21,1,1,Screen 1,continueButton,response_rating_scale_likert_active,8194.1,NA,NA,Somewhat Agree,1,0,1,0,NA,NA,NA,NA,1,statements,I want to be protected against covid,1,17/06/2021 12:45,17/06/2021 12:55,IP Address,For (I feel positively about the vaccines),Never,Rarely,27,Female,NA,A levels,control,43,3,For,For
4,1659950000000,08/08/2022 10:34,1659950000000,1,08/08/2022 11:34,94118,2,task-j4ag,NA,23522106,6893606,NA,complete,NA,62f0e65fe65443084ebbdd75,computer,Desktop or Laptop,Windows 10,Edge 104.0.1293.47,1280x720,1280x601,NA,ITT Ratings,2,against,5,NA,NA,NA,ACCEPT,NA,NA,NA,NA,NA,NA,batch5pro,batch5pro,32,2,1,Screen 1,continueButton,response_rating_scale_likert_active,6173.2,NA,NA,Strongly Disagree,1,0,1,0,NA,NA,NA,NA,1,statements,It protects me and others around me by reducing the likelihood of me spreading the disease to others.,1,17/06/2021 12:44,17/06/2021 12:56,IP Address,For (I feel positively about the vaccines),Rarely,Rarely,40,Female,NA,"Undergraduate degree (BSc, BA)",choice,45,2,For,For
5,1659950000000,08/08/2022 10:34,1659950000000,1,08/08/2022 11:34,94118,2,task-j4ag,NA,23522106,6893606,NA,complete,NA,62f0e65fe65443084ebbdd75,computer,Desktop or Laptop,Windows 10,Edge 104.0.1293.47,1280x720,1280x601,NA,ITT Ratings,2,against,5,NA,NA,NA,ACCEPT,NA,NA,NA,NA,NA,NA,batch5pro,batch5pro,49,3,1,Screen 1,continueButton,response_rating_scale_likert_active,6623.7,NA,NA,Somewhat Agree,1,0,1,0,NA,NA,NA,NA,1,statements,I want to be safe against covid,1,17/06/2021 12:48,17/06/2021 12:57,IP Address,For (I feel positively about the vaccines),Rarely,Most months,25,Female,NA,A levels,choice,48,1,For,For
6,1659950000000,08/08/2022 10:34,1659950000000,1,08/08/2022 11:34,94118,2,task-j4ag,NA,23522106,6893606,NA,complete,NA,62f0e65fe65443084ebbdd75,computer,Desktop or Laptop,Windows 10,Edge 104.0.1293.47,1280x720,1280x601,NA,ITT Ratings,2,against,5,NA,NA,NA,ACCEPT,NA,NA,NA,NA,NA,NA,batch5pro,batch5pro,52,4,1,Screen 1,continueButton,response_rating_scale_likert_active,3643.7,NA,NA,Strongly Agree,1,0,1,0,NA,NA,NA,NA,1,statements,Unsafe and could cause side effects,1,17/06/2021 12:49,17/06/2021 12:57,IP Address,For (I feel positively about the vaccines),Rarely,A few times a year,38,Male,NA,GCSEs,control,49,1,For,Against
7,1659950000000,08/08/2022 10:34,1659950000000,1,08/08/2022 11:34,94118,2,task-j4ag,NA,23522106,6893606,NA,complete,NA,62f0e65fe65443084ebbdd75,computer,Desktop or Laptop,Windows 10,Edge 104.0.1293.47,1280x720,1280x601,NA,ITT Ratings,2,against,5,NA,NA,NA,ACCEPT,NA,NA,NA,NA,NA,NA,batch5pro,batch5pro,25,5,1,Screen 1,continueButton,response_rating_scale_likert_active,6216.2,NA,NA,Disagree,1,0,1,0,NA,NA,NA,NA,1,statements,"So that, if I do contract Covid-19 at any point, the symptoms will be minor and manageable.",1,17/06/2021 12:41,17/06/2021 12:56,IP Address,For (I feel positively about the vaccines),Most weeks,Most weeks,23,Male,NA,"Undergraduate degree (BSc, BA)",control,44,1,For,For
8,1659950000000,08/08/2022 10:34,1659950000000,1,08/08/2022 11:34,94118,2,task-j4ag,NA,23522106,6893606,NA,complete,NA,62f0e65fe65443084ebbdd75,computer,Desktop or Laptop,Windows 10,Edge 104.0.1293.47,1280x720,1280x601,NA,ITT Ratings,2,against,5,NA,NA,NA,ACCEPT,NA,NA,NA,NA,NA,NA,batch5pro,batch5pro,47,6,1,Screen 1,continueButton,response_rating_scale_likert_active,3337.7,NA,NA,Neither Agree nor Disagree,1,0,1,0,NA,NA,NA,NA,1,statements,I don't think covid is real.,1,17/06/2021 12:48,17/06/2021 12:57,IP Address,For (I feel positively about the vaccines),Rarely,Most months,25,Female,NA,A levels,choice,48,2,For,Against
9,1659950000000,08/08/2022 10:34,1659950000000,1,08/08/2022 11:34,94118,2,task-j4ag,NA,23522106,6893606,NA,complete,NA,62f0e65fe65443084ebbdd75,computer,Desktop or Laptop,Windows 10,Edge 104.0.1293.47,1280x720,1280x601,NA,ITT Ratings,2,against,5,NA,NA,NA,ACCEPT,NA,NA,NA,NA,NA,NA,batch5pro,batch5pro,8,7,1,Screen 1,continueButton,response_rating_scale_likert_active,11371.5,NA,NA,Somewhat Disagree,1,0,1,0,NA,NA,NA,NA,1,statements,I don't want friends or family to get sick.,1,17/06/2021 12:39,17/06/2021 12:54,IP Address,For (I feel positively about the vaccines),Rarely,Most months,38,Male,NA,"Undergraduate degree (BSc, BA)",choice,41,2,For,For
10,1659950000000,08/08/2022 10:35,1659950000000,1,08/08/2022 11:35,94118,2,task-j4ag,NA,23522106,6893606,NA,complete,NA,62f0e65fe65443084ebbdd75,computer,Desktop or Laptop,Windows 10,Edge 104.0.1293.47,1280x720,1280x601,NA,ITT Ratings,2,against,5,NA,NA,NA,ACCEPT,NA,NA,NA,NA,NA,NA,batch5pro,batch5pro,54,8,1,Screen 1,continueButton,response_rating_scale_likert_active,8671.7,NA,NA,Somewhat Agree,1,0,1,0,NA,NA,NA,NA,1,statements,I would rather risk it and rely on immune system.,1,17/06/2021 12:49,17/06/2021 12:57,IP Address,For (I feel positively about the vaccines),Rarely,A few times a year,38,Male,NA,GCSEs,control,49,3,For,Against
11,1659950000000,08/08/2022 10:35,1659950000000,1,08/08/2022 11:35,94118,2,task-j4ag,NA,23522106,6893606,NA,complete,NA,62f0e65fe65443084ebbdd75,computer,Desktop or Laptop,Windows 10,Edge 104.0.1293.47,1280x720,1280x601,NA,ITT Ratings,2,against,5,NA,NA,NA,ACCEPT,NA,NA,NA,NA,NA,NA,batch5pro,batch5pro,18,9,1,Screen 1,continueButton,response_rating_scale_likert_active,2798.8,NA,NA,Strongly Agree,1,0,1,0,NA,NA,NA,NA,1,statements,I do not believe the vaccination is safe,1,17/06/2021 12:45,17/06/2021 12:55,IP Address,For (I feel positively about the vaccines),Never,Rarely,27,Female,NA,A levels,control,43,3,For,Against
12,1659950000000,08/08/2022 10:35,1659950000000,1,08/08/2022 11:35,94118,2,task-j4ag,NA,23522106,6893606,NA,complete,NA,62f0e65fe65443084ebbdd75,computer,Desktop or Laptop,Windows 10,Edge 104.0.1293.47,1280x720,1280x601,NA,ITT Ratings,2,against,5,NA,NA,NA,ACCEPT,NA,NA,NA,NA,NA,NA,batch5pro,batch5pro,15,10,1,Screen 1,continueButton,response_rating_scale_likert_active,5706.7,NA,NA,Somewhat Disagree,1,0,1,0,NA,NA,NA,NA,1,statements,I could meet my family again,1,17/06/2021 12:31,17/06/2021 12:55,IP Address,For (I feel positively about the vaccines),Most days,Most weeks,23,Female,NA,"Undergraduate degree (BSc, BA)",choice,42,3,For,For
13,1659950000000,08/08/2022 10:35,1659950000000,1,08/08/2022 11:35,94118,2,task-j4ag,NA,23522106,6893606,NA,complete,NA,62f0e65fe65443084ebbdd75,computer,Desktop or Laptop,Windows 10,Edge 104.0.1293.47,1280x720,1280x601,NA,ITT Ratings,2,against,5,NA,NA,NA,ACCEPT,NA,NA,NA,NA,NA,NA,batch5pro,batch5pro,60,11,1,Screen 1,continueButton,response_rating_scale_likert_active,8684.6,NA,NA,Somewhat Agree,1,0,1,0,NA,NA,NA,NA,1,statements,I've already had covid,1,17/06/2021 12:52,17/06/2021 12:57,IP Address,For (I feel positively about the vaccines),Most months,Most months,29,Female,NA,"Undergraduate degree (BSc, BA)",control,50,3,For,Against
14,1659950000000,08/08/2022 10:35,1659950000000,1,08/08/2022 11:35,94118,2,task-j4ag,NA,23522106,6893606,NA,complete,NA,62f0e65fe65443084ebbdd75,computer,Desktop or Laptop,Windows 10,Edge 104.0.1293.47,1280x720,1280x601,NA,ITT Ratings,2,against,5,NA,NA,NA,ACCEPT,NA,NA,NA,NA,NA,NA,batch5pro,batch5pro,20,12,1,Screen 1,continueButton,response_rating_scale_likert_active,3275.9,NA,NA,Disagree,1,0,1,0,NA,NA,NA,NA,1,statements,I believe all vaccines help,1,17/06/2021 12:45,17/06/2021 12:55,IP Address,For (I feel positively about the vaccines),Never,Rarely,27,Female,NA,A levels,control,43,2,For,For
15,1659950000000,08/08/2022 10:35,1659950000000,1,08/08/2022 11:35,94118,2,task-j4ag,NA,23522106,6893606,NA,complete,NA,62f0e65fe65443084ebbdd75,computer,Desktop or Laptop,Windows 10,Edge 104.0.1293.47,1280x720,1280x601,NA,ITT Ratings,2,against,5,NA,NA,NA,ACCEPT,NA,NA,NA,NA,NA,NA,batch5pro,batch5pro,55,13,1,Screen 1,continueButton,response_rating_scale_likert_active,4964.9,NA,NA,Disagree,1,0,1,0,NA,NA,NA,NA,1,statements,It's safe and I want to ensure people around me are safe,1,17/06/2021 12:49,17/06/2021 12:57,IP Address,For (I feel positively about the vaccines),Rarely,A few times a year,38,Male,NA,GCSEs,control,49,1,For,For
16,1659950000000,08/08/2022 10:35,1659950000000,1,08/08/2022 11:35,94118,2,task-j4ag,NA,23522106,6893606,NA,complete,NA,62f0e65fe65443084ebbdd75,computer,Desktop or Laptop,Windows 10,Edge 104.0.1293.47,1280x720,1280x601,NA,ITT Ratings,2,against,5,NA,NA,NA,ACCEPT,NA,NA,NA,NA,NA,NA,batch5pro,batch5pro,13,14,1,Screen 1,continueButton,response_rating_scale_likert_active,2358.7,NA,NA,Disagree,1,0,1,0,NA,NA,NA,NA,1,statements,It could protect others around me as well as myself,1,17/06/2021 12:31,17/06/2021 12:55,IP Address,For (I feel positively about the vaccines),Most days,Most weeks,23,Female,NA,"Undergraduate degree (BSc, BA)",choice,42,1,For,For
17,1659950000000,08/08/2022 10:35,1659950000000,1,08/08/2022 11:35,94118,2,task-j4ag,NA,23522106,6893606,NA,complete,NA,62f0e65fe65443084ebbdd75,computer,Desktop or Laptop,Windows 10,Edge 104.0.1293.47,1280x720,1280x601,NA,ITT Ratings,2,against,5,NA,NA,NA,ACCEPT,NA,NA,NA,NA,NA,NA,batch5pro,batch5pro,35,15,1,Screen 1,continueButton,response_rating_scale_likert_active,4367.1,NA,NA,Disagree,1,0,1,0,NA,NA,NA,NA,1,statements,health reasons and I can not take  it,1,17/06/2021 12:46,17/06/2021 12:56,IP Address,For (I feel positively about the vaccines),A few times a year,A few times a year,53,Female,NA,Vocational Training / Apprenticeship,control,46,2,For,Against
18,1659950000000,08/08/2022 10:35,1659950000000,1,08/08/2022 11:35,94118,2,task-j4ag,NA,23522106,6893606,NA,complete,NA,62f0e65fe65443084ebbdd75,computer,Desktop or Laptop,Windows 10,Edge 104.0.1293.47,1280x720,1280x601,NA,ITT Ratings,2,against,5,NA,NA,NA,ACCEPT,NA,NA,NA,NA,NA,NA,batch5pro,batch5pro,19,16,1,Screen 1,continueButton,response_rating_scale_likert_active,6408.7,NA,NA,Strongly Disagree,1,0,1,0,NA,NA,NA,NA,1,statements,I believe the vaccine is beneficial and will provide protection,1,17/06/2021 12:45,17/06/2021 12:55,IP Address,For (I feel positively about the vaccines),Never,Rarely,27,Female,NA,A levels,control,43,1,For,For
19,1659950000000,08/08/2022 10:35,1659950000000,1,08/08/2022 11:35,94118,2,task-j4ag,NA,23522106,6893606,NA,complete,NA,62f0e65fe65443084ebbdd75,computer,Desktop or Laptop,Windows 10,Edge 104.0.1293.47,1280x720,1280x601,NA,ITT Ratings,2,against,5,NA,NA,NA,ACCEPT,NA,NA,NA,NA,NA,NA,batch5pro,batch5pro,3,17,1,Screen 1,continueButton,response_rating_scale_likert_active,5263.9,NA,NA,Somewhat Disagree,1,0,1,0,NA,NA,NA,NA,1,statements,We would like to check you are reading each argument carefully. Please select 'Somewhat Disagree' for this answer,1,NA,NA,NA,NA,NA,NA,NA,NA,NA,NA,NA,NA,check2,NA,NA
20,1659950000000,08/08/2022 10:35,1659950000000,1,08/08/2022 11:35,94118,2,task-j4ag,NA,23522106,6893606,NA,complete,NA,62f0e65fe65443084ebbdd75,computer,Desktop or Laptop,Windows 10,Edge 104.0.1293.47,1280x720,1280x601,NA,ITT Ratings,2,against,5,NA,NA,NA,ACCEPT,NA,NA,NA,NA,NA,NA,batch5pro,batch5pro,2,18,1,Screen 1,continueButton,response_rating_scale_likert_active,6380.6,NA,NA,Somewhat Agree,1,0,1,0,NA,NA,NA,NA,1,statements,We would like to check you are reading each argument carefully. Please select 'Somewhat Agree' for this answer,1,NA,NA,NA,NA,NA,NA,NA,NA,NA,NA,NA,NA,check1,NA,NA
21,1659950000000,08/08/2022 10:35,1659950000000,1,08/08/2022 11:35,94118,2,task-j4ag,NA,23522106,6893606,NA,complete,NA,62f0e65fe65443084ebbdd75,computer,Desktop or Laptop,Windows 10,Edge 104.0.1293.47,1280x720,1280x601,NA,ITT Ratings,2,against,5,NA,NA,NA,ACCEPT,NA,NA,NA,NA,NA,NA,batch5pro,batch5pro,42,19,1,Screen 1,continueButton,response_rating_scale_likert_active,4718.1,NA,NA,Strongly Disagree,1,0,1,0,NA,NA,NA,NA,1,statements,I have a weak immune system,1,17/06/2021 12:45,17/06/2021 12:57,IP Address,For (I feel positively about the vaccines),Never,Most months,22,Female,NA,"Postgraduate degree (MSc, MA, MPhil)",control,47,3,For,Against
22,1659950000000,08/08/2022 10:36,1659950000000,1,08/08/2022 11:35,94118,2,task-j4ag,NA,23522106,6893606,NA,complete,NA,62f0e65fe65443084ebbdd75,computer,Desktop or Laptop,Windows 10,Edge 104.0.1293.47,1280x720,1280x601,NA,ITT Ratings,2,against,5,NA,NA,NA,ACCEPT,NA,NA,NA,NA,NA,NA,batch5pro,batch5pro,17,20,1,Screen 1,continueButton,response_rating_scale_likert_active,2881.1,NA,NA,Disagree,1,0,1,0,NA,NA,NA,NA,1,statements,I am against vaccinations,1,17/06/2021 12:45,17/06/2021 12:55,IP Address,For (I feel positively about the vaccines),Never,Rarely,27,Female,NA,A levels,control,43,2,For,Against
23,1659950000000,08/08/2022 10:36,1659950000000,1,08/08/2022 11:36,94118,2,task-j4ag,NA,23522106,6893606,NA,complete,NA,62f0e65fe65443084ebbdd75,computer,Desktop or Laptop,Windows 10,Edge 104.0.1293.47,1280x720,1280x601,NA,ITT Ratings,2,against,5,NA,NA,NA,ACCEPT,NA,NA,NA,NA,NA,NA,batch5pro,batch5pro,59,21,1,Screen 1,continueButton,response_rating_scale_likert_active,3863.9,NA,NA,Strongly Disagree,1,0,1,0,NA,NA,NA,NA,1,statements,You don't know what you are having injected,1,17/06/2021 12:52,17/06/2021 12:57,IP Address,For (I feel positively about the vaccines),Most months,Most months,29,Female,NA,"Undergraduate degree (BSc, BA)",control,50,2,For,Against
24,1659950000000,08/08/2022 10:36,1659950000000,1,08/08/2022 11:36,94118,2,task-j4ag,NA,23522106,6893606,NA,complete,NA,62f0e65fe65443084ebbdd75,computer,Desktop or Laptop,Windows 10,Edge 104.0.1293.47,1280x720,1280x601,NA,ITT Ratings,2,against,5,NA,NA,NA,ACCEPT,NA,NA,NA,NA,NA,NA,batch5pro,batch5pro,40,22,1,Screen 1,continueButton,response_rating_scale_likert_active,3701.9,NA,NA,Strongly Disagree,1,0,1,0,NA,NA,NA,NA,1,statements,I do not trust the people who have made the vaccine,1,17/06/2021 12:45,17/06/2021 12:57,IP Address,For (I feel positively about the vaccines),Never,Most months,22,Female,NA,"Postgraduate degree (MSc, MA, MPhil)",control,47,1,For,Against
