Event.Index,UTC.Timestamp,UTC.Date,Local.Timestamp,Local.Timezone,Local.Date,Experiment.ID,Experiment.Version,Tree.Node.Key,Repeat.Key,Schedule.ID,Participant.Private.ID,Participant.Starting.Group,Participant.Status,Participant.Completion.Code,Participant.External.Session.ID,Participant.Device.Type,Participant.Device,Participant.OS,Participant.Browser,Participant.Monitor.Size,Participant.Viewport.Size,Checkpoint,Task.Name,Task.Version,branch.69an,randomiser.8vg2,quota.bqtt,quota.rycs,quota.wtfi,quota.usve,quota.zgic,quota.f3yz,quota.r9vy,quota.tfqq,quota.3dga,quota.dtj6,Spreadsheet,Spreadsheet.Name,Spreadsheet.Row,Trial.Number,Screen.Number,Screen.Name,Zone.Name,Zone.Type,Reaction.Time,Reaction.Onset,Response.Type,Response,Attempt,Correct,Incorrect,Dishonest,X.Coordinate,Y.Coordinate,Timed.Out,randomise_blocks,randomise_trials,display,Arguments,ShowProgressBar,StartDate,EndDate,Status,prolif_check,discuss_1,read_1,age,gender,gender_4_TEXT,edu,condition,ID,arg_ID,Position,Arg_Position
1,1659960000000,08/08/2022 11:04,1659960000000,1,08/08/2022 12:04,94118,2,task-b5vt,NA,23522610,6893760,NA,complete,NA,62f0ed544dcb389419e8cf9b,computer,Desktop or Laptop,Windows 10,Chrome 104.0.0.0,1280x720,1280x569,NA,ITT Ratings,2,against,1,NA,NA,NA,NA,NA,NA,NA,NA,NA,ACCEPT,batch1pro,NA,NA,BEGIN TASK,NA,NA,NA,NA,NA,NA,NA,NA,NA,0,1,0,NA,NA,NA,NA,NA,NA,NA,NA,NA,NA,NA,NA,NA,NA,NA,NA,NA,NA,NA,NA,NA,NA,NA
2,1659960000000,08/08/2022 11:04,1659960000000,1,08/08/2022 12:04,94118,2,task-b5vt,NA,23522610,6893760,NA,complete,NA,62f0ed544dcb389419e8cf9b,computer,Desktop or Laptop,Windows 10,Chrome 104.0.0.0,1280x720,1280x569,NA,ITT Ratings,2,against,1,NA,NA,NA,NA,NA,NA,NA,NA,NA,ACCEPT,batch1pro,batch1pro,1,1,1,Screen 1,advancementZone,continue_button,5676.2,NA,NA,NA,NA,0,1,0,NA,NA,NA,NA,NA,instructions,NA,NA,NA,NA,NA,NA,NA,NA,NA,NA,NA,NA,NA,NA,NA,NA,NA
3,1659960000000,08/08/2022 11:05,1659960000000,1,08/08/2022 12:05,94118,2,task-b5vt,NA,23522610,6893760,NA,complete,NA,62f0ed544dcb389419e8cf9b,computer,Desktop or Laptop,Windows 10,Chrome 104.0.0.0,1280x720,1280x569,NA,ITT Ratings,2,against,1,NA,NA,NA,NA,NA,NA,NA,NA,NA,ACCEPT,batch1pro,batch1pro,38,1,1,Screen 1,continueButton,response_rating_scale_likert_active,8583.7,NA,NA,Neither Agree nor Disagree,1,0,1,0,NA,NA,NA,NA,1,statements,"A member of my family can catch anything really easily , so I want to do this to help keep them safe",1,17/06/2021 12:16,17/06/2021 12:42,IP Address,For (I feel positively about the vaccines),Rarely,Most days,34,Male,NA,GCSEs,control,6,2,For,For
4,1659960000000,08/08/2022 11:05,1659960000000,1,08/08/2022 12:05,94118,2,task-b5vt,NA,23522610,6893760,NA,complete,NA,62f0ed544dcb389419e8cf9b,computer,Desktop or Laptop,Windows 10,Chrome 104.0.0.0,1280x720,1280x569,NA,ITT Ratings,2,against,1,NA,NA,NA,NA,NA,NA,NA,NA,NA,ACCEPT,batch1pro,batch1pro,27,2,1,Screen 1,continueButton,response_rating_scale_likert_active,2930.8,NA,NA,Strongly Agree,1,0,1,0,NA,NA,NA,NA,1,statements,Doctors are trying to help,1,17/06/2021 12:33,17/06/2021 12:41,IP Address,For (I feel positively about the vaccines),Most months,Most months,20,Female,NA,"Undergraduate degree (BSc, BA),Postgraduate degree (MSc, MA, MPhil)",control,4,3,For,For
5,1659960000000,08/08/2022 11:05,1659960000000,1,08/08/2022 12:05,94118,2,task-b5vt,NA,23522610,6893760,NA,complete,NA,62f0ed544dcb389419e8cf9b,computer,Desktop or Laptop,Windows 10,Chrome 104.0.0.0,1280x720,1280x569,NA,ITT Ratings,2,against,1,NA,NA,NA,NA,NA,NA,NA,NA,NA,ACCEPT,batch1pro,batch1pro,24,3,1,Screen 1,continueButton,response_rating_scale_likert_active,4624.5,NA,NA,Somewhat Agree,1,0,1,0,NA,NA,NA,NA,1,statements,There are too many on the market at the moment,1,17/06/2021 12:33,17/06/2021 12:41,IP Address,For (I feel positively about the vaccines),Most months,Most months,20,Female,NA,"Undergraduate degree (BSc, BA),Postgraduate degree (MSc, MA, MPhil)",control,4,3,For,Against
6,1659960000000,08/08/2022 11:05,1659960000000,1,08/08/2022 12:05,94118,2,task-b5vt,NA,23522610,6893760,NA,complete,NA,62f0ed544dcb389419e8cf9b,computer,Desktop or Laptop,Windows 10,Chrome 104.0.0.0,1280x720,1280x569,NA,ITT Ratings,2,against,1,NA,NA,NA,NA,NA,NA,NA,NA,NA,ACCEPT,batch1pro,batch1pro,3,4,1,Screen 1,continueButton,response_rating_scale_likert_active,2995.5,NA,NA,Somewhat Disagree,1,0,1,0,NA,NA,NA,NA,1,statements,We would like to check you are reading each argument carefully. Please select 'Somewhat Disagree' for this answer,1,NA,NA,NA,NA,NA,NA,NA,NA,NA,NA,NA,NA,check2,NA,NA
7,1659960000000,08/08/2022 11:05,1659960000000,1,08/08/2022 12:05,94118,2,task-b5vt,NA,23522610,6893760,NA,complete,NA,62f0ed544dcb389419e8cf9b,computer,Desktop or Laptop,Windows 10,Chrome 104.0.0.0,1280x720,1280x569,NA,ITT Ratings,2,against,1,NA,NA,NA,NA,NA,NA,NA,NA,NA,ACCEPT,batch1pro,batch1pro,61,5,1,Screen 1,continueButton,response_rating_scale_likert_active,4542.7,NA,NA,Strongly Disagree,1,0,1,0,NA,NA,NA,NA,1,statements,Reduced risk of getting COVID.,1,17/06/2021 13:01,17/06/2021 13:10,IP Address,For (I feel positively about the vaccines),Most months,Most weeks,35,Non-binary,NA,"Postgraduate degree (MSc, MA, MPhil)",control,10,1,For,For
8,1659960000000,08/08/2022 11:05,1659960000000,1,08/08/2022 12:05,94118,2,task-b5vt,NA,23522610,6893760,NA,complete,NA,62f0ed544dcb389419e8cf9b,computer,Desktop or Laptop,Windows 10,Chrome 104.0.0.0,1280x720,1280x569,NA,ITT Ratings,2,against,1,NA,NA,NA,NA,NA,NA,NA,NA,NA,ACCEPT,batch1pro,batch1pro,50,6,1,Screen 1,continueButton,response_rating_scale_likert_active,5376.8,NA,NA,Disagree,1,0,1,0,NA,NA,NA,NA,1,statements,To protect others by giving herd immunity.,1,17/06/2021 12:29,17/06/2021 12:42,IP Address,For (I feel positively about the vaccines),Most months,Most months,20,Male,NA,A levels,choice,8,2,For,For
9,1659960000000,08/08/2022 11:05,1659960000000,1,08/08/2022 12:05,94118,2,task-b5vt,NA,23522610,6893760,NA,complete,NA,62f0ed544dcb389419e8cf9b,computer,Desktop or Laptop,Windows 10,Chrome 104.0.0.0,1280x720,1280x569,NA,ITT Ratings,2,against,1,NA,NA,NA,NA,NA,NA,NA,NA,NA,ACCEPT,batch1pro,batch1pro,23,7,1,Screen 1,continueButton,response_rating_scale_likert_active,2730.4,NA,NA,Strongly Disagree,1,0,1,0,NA,NA,NA,NA,1,statements,The government is trying to control us through this vaccine,1,17/06/2021 12:33,17/06/2021 12:41,IP Address,For (I feel positively about the vaccines),Most months,Most months,20,Female,NA,"Undergraduate degree (BSc, BA),Postgraduate degree (MSc, MA, MPhil)",control,4,2,For,Against
10,1659960000000,08/08/2022 11:05,1659960000000,1,08/08/2022 12:05,94118,2,task-b5vt,NA,23522610,6893760,NA,complete,NA,62f0ed544dcb389419e8cf9b,computer,Desktop or Laptop,Windows 10,Chrome 104.0.0.0,1280x720,1280x569,NA,ITT Ratings,2,against,1,NA,NA,NA,NA,NA,NA,NA,NA,NA,ACCEPT,batch1pro,batch1pro,37,8,1,Screen 1,continueButton,response_rating_scale_likert_active,5813.2,NA,NA,Disagree,1,0,1,0,NA,NA,NA,NA,1,statements,I am scared and if this vaccine will help then I'll do it,1,17/06/2021 12:16,17/06/2021 12:42,IP Address,For (I feel positively about the vaccines),Rarely,Most days,34,Male,NA,GCSEs,control,6,1,For,For
11,1659960000000,08/08/2022 11:05,1659960000000,1,08/08/2022 12:05,94118,2,task-b5vt,NA,23522610,6893760,NA,complete,NA,62f0ed544dcb389419e8cf9b,computer,Desktop or Laptop,Windows 10,Chrome 104.0.0.0,1280x720,1280x569,NA,ITT Ratings,2,against,1,NA,NA,NA,NA,NA,NA,NA,NA,NA,ACCEPT,batch1pro,batch1pro,32,9,1,Screen 1,continueButton,response_rating_scale_likert_active,6834.1,NA,NA,Neither Agree nor Disagree,1,0,1,0,NA,NA,NA,NA,1,statements,I am aware of the risks and complications of contracting xovid 19 and wish to protect myself and others,1,17/06/2021 12:31,17/06/2021 12:41,IP Address,For (I feel positively about the vaccines),Rarely,A few times a year,31,Female,NA,"Undergraduate degree (BSc, BA)",choice,5,2,For,For
12,1659960000000,08/08/2022 11:05,1659960000000,1,08/08/2022 12:05,94118,2,task-b5vt,NA,23522610,6893760,NA,complete,NA,62f0ed544dcb389419e8cf9b,computer,Desktop or Laptop,Windows 10,Chrome 104.0.0.0,1280x720,1280x569,NA,ITT Ratings,2,against,1,NA,NA,NA,NA,NA,NA,NA,NA,NA,ACCEPT,batch1pro,batch1pro,46,10,1,Screen 1,continueButton,response_rating_scale_likert_active,2241.6,NA,NA,Strongly Disagree,1,0,1,0,NA,NA,NA,NA,1,statements,The government is trying to microchip me,1,17/06/2021 12:29,17/06/2021 12:42,IP Address,For (I feel positively about the vaccines),Most months,Most months,20,Male,NA,A levels,choice,8,1,For,Against
13,1659960000000,08/08/2022 11:05,1659960000000,1,08/08/2022 12:05,94118,2,task-b5vt,NA,23522610,6893760,NA,complete,NA,62f0ed544dcb389419e8cf9b,computer,Desktop or Laptop,Windows 10,Chrome 104.0.0.0,1280x720,1280x569,NA,ITT Ratings,2,against,1,NA,NA,NA,NA,NA,NA,NA,NA,NA,ACCEPT,batch1pro,batch1pro,36,11,1,Screen 1,continueButton,response_rating_scale_likert_active,4730.5,NA,NA,Somewhat Disagree,1,0,1,0,NA,NA,NA,NA,1,statements,I am scared and I don't believe that the Vaccine will help me,1,17/06/2021 12:16,17/06/2021 12:42,IP Address,For (I feel positively about the vaccines),Rarely,Most days,34,Male,NA,GCSEs,control,6,3,For,Against
14,1659960000000,08/08/2022 11:05,1659960000000,1,08/08/2022 12:05,94118,2,task-b5vt,NA,23522610,6893760,NA,complete,NA,62f0ed544dcb389419e8cf9b,computer,Desktop or Laptop,Windows 10,Chrome 104.0.0.0,1280x720,1280x569,NA,ITT Ratings,2,against,1,NA,NA,NA,NA,NA,NA,NA,NA,NA,ACCEPT,batch1pro,batch1pro,44,12,1,Screen 1,continueButton,response_rating_scale_likert_active,3151.9,NA,NA,Strongly Disagree,1,0,1,0,NA,NA,NA,NA,1,statements,It will help to protect the most vulnerable groups in our society.,1,17/06/2021 12:35,17/06/2021 12:42,IP Address,For (I feel positively about the vaccines),Once or twice a year,A few times a year,20,Female,NA,"GCSEs,A levels",control,7,2,For,For
15,1659960000000,08/08/2022 11:05,1659960000000,1,08/08/2022 12:05,94118,2,task-b5vt,NA,23522610,6893760,NA,complete,NA,62f0ed544dcb389419e8cf9b,computer,Desktop or Laptop,Windows 10,Chrome 104.0.0.0,1280x720,1280x569,NA,ITT Ratings,2,against,1,NA,NA,NA,NA,NA,NA,NA,NA,NA,ACCEPT,batch1pro,batch1pro,49,13,1,Screen 1,continueButton,response_rating_scale_likert_active,3173.8,NA,NA,Neither Agree nor Disagree,1,0,1,0,NA,NA,NA,NA,1,statements,To gain immunity against COVID 19.,1,17/06/2021 12:29,17/06/2021 12:42,IP Address,For (I feel positively about the vaccines),Most months,Most months,20,Male,NA,A levels,choice,8,1,For,For
16,1659960000000,08/08/2022 11:05,1659960000000,1,08/08/2022 12:05,94118,2,task-b5vt,NA,23522610,6893760,NA,complete,NA,62f0ed544dcb389419e8cf9b,computer,Desktop or Laptop,Windows 10,Chrome 104.0.0.0,1280x720,1280x569,NA,ITT Ratings,2,against,1,NA,NA,NA,NA,NA,NA,NA,NA,NA,ACCEPT,batch1pro,batch1pro,59,14,1,Screen 1,continueButton,response_rating_scale_likert_active,3776.2,NA,NA,Strongly Disagree,1,0,1,0,NA,NA,NA,NA,1,statements,Concerns about the truthfulness of the pandemic and the true motivations behind mass vaccination.,1,17/06/2021 13:01,17/06/2021 13:10,IP Address,For (I feel positively about the vaccines),Most months,Most weeks,35,Non-binary,NA,"Postgraduate degree (MSc, MA, MPhil)",control,10,2,For,Against
17,1659960000000,08/08/2022 11:06,1659960000000,1,08/08/2022 12:06,94118,2,task-b5vt,NA,23522610,6893760,NA,complete,NA,62f0ed544dcb389419e8cf9b,computer,Desktop or Laptop,Windows 10,Chrome 104.0.0.0,1280x720,1280x569,NA,ITT Ratings,2,against,1,NA,NA,NA,NA,NA,NA,NA,NA,NA,ACCEPT,batch1pro,batch1pro,15,15,1,Screen 1,continueButton,response_rating_scale_likert_active,6585.1,NA,NA,Strongly Agree,1,0,1,0,NA,NA,NA,NA,1,statements,"Vaccines are important, they help us all live safely and healthily",1,17/06/2021 12:34,17/06/2021 12:40,IP Address,For (I feel positively about the vaccines),Rarely,Most weeks,26,Female,NA,"Undergraduate degree (BSc, BA)",choice,2,3,For,For
18,1659960000000,08/08/2022 11:06,1659960000000,1,08/08/2022 12:06,94118,2,task-b5vt,NA,23522610,6893760,NA,complete,NA,62f0ed544dcb389419e8cf9b,computer,Desktop or Laptop,Windows 10,Chrome 104.0.0.0,1280x720,1280x569,NA,ITT Ratings,2,against,1,NA,NA,NA,NA,NA,NA,NA,NA,NA,ACCEPT,batch1pro,batch1pro,39,16,1,Screen 1,continueButton,response_rating_scale_likert_active,50174.4,NA,NA,Neither Agree nor Disagree,1,0,1,0,NA,NA,NA,NA,1,statements,Alot of people have died from getting Covid and I want to keep my self safe and I trust it,1,17/06/2021 12:16,17/06/2021 12:42,IP Address,For (I feel positively about the vaccines),Rarely,Most days,34,Male,NA,GCSEs,control,6,3,For,For
19,1659960000000,08/08/2022 11:07,1659960000000,1,08/08/2022 12:07,94118,2,task-b5vt,NA,23522610,6893760,NA,complete,NA,62f0ed544dcb389419e8cf9b,computer,Desktop or Laptop,Windows 10,Chrome 104.0.0.0,1280x720,1280x569,NA,ITT Ratings,2,against,1,NA,NA,NA,NA,NA,NA,NA,NA,NA,ACCEPT,batch1pro,batch1pro,45,17,1,Screen 1,continueButton,response_rating_scale_likert_active,7085.9,NA,NA,Neither Agree nor Disagree,1,0,1,0,NA,NA,NA,NA,1,statements,The risk of dying from covid reduces with a vaccine.,1,17/06/2021 12:35,17/06/2021 12:42,IP Address,For (I feel positively about the vaccines),Once or twice a year,A few times a year,20,Female,NA,"GCSEs,A levels",control,7,3,For,For
20,1659960000000,08/08/2022 11:07,1659960000000,1,08/08/2022 12:07,94118,2,task-b5vt,NA,23522610,6893760,NA,complete,NA,62f0ed544dcb389419e8cf9b,computer,Desktop or Laptop,Windows 10,Chrome 104.0.0.0,1280x720,1280x569,NA,ITT Ratings,2,against,1,NA,NA,NA,NA,NA,NA,NA,NA,NA,ACCEPT,batch1pro,batch1pro,5,18,1,Screen 1,continueButton,response_rating_scale_likert_active,4275.9,NA,NA,Strongly Agree,1,0,1,0,NA,NA,NA,NA,1,statements,I don't want any of the side effects on me or my family,1,17/06/2021 12:34,17/06/2021 12:39,IP Address,For (I feel positively about the vaccines),Rarely,A few times a year,26,Female,NA,"Undergraduate degree (BSc, BA)",control,1,2,For,Against
21,1659960000000,08/08/2022 11:07,1659960000000,1,08/08/2022 12:07,94118,2,task-b5vt,NA,23522610,6893760,NA,complete,NA,62f0ed544dcb389419e8cf9b,computer,Desktop or Laptop,Windows 10,Chrome 104.0.0.0,1280x720,1280x569,NA,ITT Ratings,2,against,1,NA,NA,NA,NA,NA,NA,NA,NA,NA,ACCEPT,batch1pro,batch1pro,53,19,1,Screen 1,continueButton,response_rating_scale_likert_active,3176.2,NA,NA,Neither Agree nor Disagree,1,0,1,0,NA,NA,NA,NA,1,statements,The vaccines are not safe enough yet,1,17/06/2021 12:36,17/06/2021 12:43,IP Address,For (I feel positively about the vaccines),Rarely,Most days,38,Male,NA,"GCSEs,Vocational Training / Apprenticeship",choice,9,2,For,Against
22,1659960000000,08/08/2022 11:07,1659960000000,1,08/08/2022 12:07,94118,2,task-b5vt,NA,23522610,6893760,NA,complete,NA,62f0ed544dcb389419e8cf9b,computer,Desktop or Laptop,Windows 10,Chrome 104.0.0.0,1280x720,1280x569,NA,ITT Ratings,2,against,1,NA,NA,NA,NA,NA,NA,NA,NA,NA,ACCEPT,batch1pro,batch1pro,51,20,1,Screen 1,continueButton,response_rating_scale_likert_active,7811.1,NA,NA,Neither Agree nor Disagree,1,0,1,0,NA,NA,NA,NA,1,statements,To help end the negative social impact of the virus such as lockdowns and online education,1,17/06/2021 12:29,17/06/2021 12:42,IP Address,For (I feel positively about the vaccines),Most months,Most months,20,Male,NA,A levels,choice,8,3,For,For
23,1659960000000,08/08/2022 11:07,1659960000000,1,08/08/2022 12:07,94118,2,task-b5vt,NA,23522610,6893760,NA,complete,NA,62f0ed544dcb389419e8cf9b,computer,Desktop or Laptop,Windows 10,Chrome 104.0.0.0,1280x720,1280x569,NA,ITT Ratings,2,against,1,NA,NA,NA,NA,NA,NA,NA,NA,NA,ACCEPT,batch1pro,batch1pro,52,21,1,Screen 1,continueButton,response_rating_scale_likert_active,3024.4,NA,NA,Strongly Disagree,1,0,1,0,NA,NA,NA,NA,1,statements,The covid 19 vaccines are a conspiracy,1,17/06/2021 12:36,17/06/2021 12:43,IP Address,For (I feel positively about the vaccines),Rarely,Most days,38,Male,NA,"GCSEs,Vocational Training / Apprenticeship",choice,9,1,For,Against
24,1659960000000,08/08/2022 11:07,1659960000000,1,08/08/2022 12:07,94118,2,task-b5vt,NA,23522610,6893760,NA,complete,NA,62f0ed544dcb389419e8cf9b,computer,Desktop or Laptop,Windows 10,Chrome 104.0.0.0,1280x720,1280x569,NA,ITT Ratings,2,against,1,NA,NA,NA,NA,NA,NA,NA,NA,NA,ACCEPT,batch1pro,batch1pro,14,22,1,Screen 1,continueButton,response_rating_scale_likert_active,2924.2,NA,NA,Strongly Disagree,1,0,1,0,NA,NA,NA,NA,1,statements,It's one of the only ways we will return to normal life,1,17/06/2021 12:34,17/06/2021 12:40,IP Address,For (I feel positively about the vaccines),Rarely,Most weeks,26,Female,NA,"Undergraduate degree (BSc, BA)",choice,2,2,For,For
25,1659960000000,08/08/2022 11:07,1659960000000,1,08/08/2022 12:07,94118,2,task-b5vt,NA,23522610,6893760,NA,complete,NA,62f0ed544dcb389419e8cf9b,computer,Desktop or Laptop,Windows 10,Chrome 104.0.0.0,1280x720,1280x569,NA,ITT Ratings,2,against,1,NA,NA,NA,NA,NA,NA,NA,NA,NA,ACCEPT,batch1pro,batch1pro,17,23,1,Screen 1,continueButton,response_rating_scale_likert_active,3165.7,NA,NA,Neither Agree nor Disagree,1,0,1,0,NA,NA,NA,NA,1,statements,Future side effects are unknown,1,17/06/2021 12:29,17/06/2021 12:41,IP Address,For (I feel positively about the vaccines),Rarely,A few times a year,55,Female,NA,A levels,choice,3,2,For,Against
26,1659960000000,08/08/2022 11:07,1659960000000,1,08/08/2022 12:07,94118,2,task-b5vt,NA,23522610,6893760,NA,complete,NA,62f0ed544dcb389419e8cf9b,computer,Desktop or Laptop,Windows 10,Chrome 104.0.0.0,1280x720,1280x569,NA,ITT Ratings,2,against,1,NA,NA,NA,NA,NA,NA,NA,NA,NA,ACCEPT,batch1pro,batch1pro,62,24,1,Screen 1,continueButton,response_rating_scale_likert_active,2579,NA,NA,Strongly Disagree,1,0,1,0,NA,NA,NA,NA,1,statements,Reduced risk of passing on COVID.,1,17/06/2021 13:01,17/06/2021 13:10,IP Address,For (I feel positively about the vaccines),Most months,Most weeks,35,Non-binary,NA,"Postgraduate degree (MSc, MA, MPhil)",control,10,2,For,For
27,1659960000000,08/08/2022 11:07,1659960000000,1,08/08/2022 12:07,94118,2,task-b5vt,NA,23522610,6893760,NA,complete,NA,62f0ed544dcb389419e8cf9b,computer,Desktop or Laptop,Windows 10,Chrome 104.0.0.0,1280x720,1280x569,NA,ITT Ratings,2,against,1,NA,NA,NA,NA,NA,NA,NA,NA,NA,ACCEPT,batch1pro,batch1pro,35,25,1,Screen 1,continueButton,response_rating_scale_likert_active,4706.7,NA,NA,Neither Agree nor Disagree,1,0,1,0,NA,NA,NA,NA,1,statements,Someone has told me there experience is bad which has now put me of the idear,1,17/06/2021 12:16,17/06/2021 12:42,IP Address,For (I feel positively about the vaccines),Rarely,Most days,34,Male,NA,GCSEs,control,6,2,For,Against
28,1659960000000,08/08/2022 11:07,1659960000000,1,08/08/2022 12:07,94118,2,task-b5vt,NA,23522610,6893760,NA,complete,NA,62f0ed544dcb389419e8cf9b,computer,Desktop or Laptop,Windows 10,Chrome 104.0.0.0,1280x720,1280x569,NA,ITT Ratings,2,against,1,NA,NA,NA,NA,NA,NA,NA,NA,NA,ACCEPT,batch1pro,batch1pro,16,26,1,Screen 1,continueButton,response_rating_scale_likert_active,2568.9,NA,NA,Somewhat Agree,1,0,1,0,NA,NA,NA,NA,1,statements,Hasn't been tested for long enough,1,17/06/2021 12:29,17/06/2021 12:41,IP Address,For (I feel positively about the vaccines),Rarely,A few times a year,55,Female,NA,A levels,choice,3,1,For,Against
29,1659960000000,08/08/2022 11:07,1659960000000,1,08/08/2022 12:07,94118,2,task-b5vt,NA,23522610,6893760,NA,complete,NA,62f0ed544dcb389419e8cf9b,computer,Desktop or Laptop,Windows 10,Chrome 104.0.0.0,1280x720,1280x569,NA,ITT Ratings,2,against,1,NA,NA,NA,NA,NA,NA,NA,NA,NA,ACCEPT,batch1pro,batch1pro,19,27,1,Screen 1,continueButton,response_rating_scale_likert_active,3162.8,NA,NA,Disagree,1,0,1,0,NA,NA,NA,NA,1,statements,I want to have it for my own and my family’s protection,1,17/06/2021 12:29,17/06/2021 12:41,IP Address,For (I feel positively about the vaccines),Rarely,A few times a year,55,Female,NA,A levels,choice,3,1,For,For
30,1659960000000,08/08/2022 11:07,1659960000000,1,08/08/2022 12:07,94118,2,task-b5vt,NA,23522610,6893760,NA,complete,NA,62f0ed544dcb389419e8cf9b,computer,Desktop or Laptop,Windows 10,Chrome 104.0.0.0,1280x720,1280x569,NA,ITT Ratings,2,against,1,NA,NA,NA,NA,NA,NA,NA,NA,NA,ACCEPT,batch1pro,batch1pro,21,28,1,Screen 1,continueButton,response_rating_scale_likert_active,3729.1,NA,NA,Somewhat Agree,1,0,1,0,NA,NA,NA,NA,1,statements,I want to help in defeating this virus,1,17/06/2021 12:29,17/06/2021 12:41,IP Address,For (I feel positively about the vaccines),Rarely,A few times a year,55,Female,NA,A levels,choice,3,3,For,For
31,1659960000000,08/08/2022 11:08,1659960000000,1,08/08/2022 12:08,94118,2,task-b5vt,NA,23522610,6893760,NA,complete,NA,62f0ed544dcb389419e8cf9b,computer,Desktop or Laptop,Windows 10,Chrome 104.0.0.0,1280x720,1280x569,NA,ITT Ratings,2,against,1,NA,NA,NA,NA,NA,NA,NA,NA,NA,ACCEPT,batch1pro,batch1pro,29,29,1,Screen 1,continueButton,response_rating_scale_likert_active,27356.9,NA,NA,Somewhat Disagree,1,0,1,0,NA,NA,NA,NA,1,statements,"The outcomes of the virus are not significant for that person, therefore the risk of the vaccine is greater than the risk of covid 19 side effects",1,17/06/2021 12:31,17/06/2021 12:41,IP Address,For (I feel positively about the vaccines),Rarely,A few times a year,31,Female,NA,"Undergraduate degree (BSc, BA)",choice,5,2,For,Against
32,1659960000000,08/08/2022 11:08,1659960000000,1,08/08/2022 12:08,94118,2,task-b5vt,NA,23522610,6893760,NA,complete,NA,62f0ed544dcb389419e8cf9b,computer,Desktop or Laptop,Windows 10,Chrome 104.0.0.0,1280x720,1280x569,NA,ITT Ratings,2,against,1,NA,NA,NA,NA,NA,NA,NA,NA,NA,ACCEPT,batch1pro,batch1pro,56,30,1,Screen 1,continueButton,response_rating_scale_likert_active,5020.4,NA,NA,Neither Agree nor Disagree,1,0,1,0,NA,NA,NA,NA,1,statements,The vaccines are safe enough to use,1,17/06/2021 12:36,17/06/2021 12:43,IP Address,For (I feel positively about the vaccines),Rarely,Most days,38,Male,NA,"GCSEs,Vocational Training / Apprenticeship",choice,9,2,For,For
33,1659960000000,08/08/2022 11:08,1659960000000,1,08/08/2022 12:08,94118,2,task-b5vt,NA,23522610,6893760,NA,complete,NA,62f0ed544dcb389419e8cf9b,computer,Desktop or Laptop,Windows 10,Chrome 104.0.0.0,1280x720,1280x569,NA,ITT Ratings,2,against,1,NA,NA,NA,NA,NA,NA,NA,NA,NA,ACCEPT,batch1pro,batch1pro,43,31,1,Screen 1,continueButton,response_rating_scale_likert_active,3147.8,NA,NA,Strongly Disagree,1,0,1,0,NA,NA,NA,NA,1,statements,It is the only way we can effectively eliminate the virus from the world.,1,17/06/2021 12:35,17/06/2021 12:42,IP Address,For (I feel positively about the vaccines),Once or twice a year,A few times a year,20,Female,NA,"GCSEs,A levels",control,7,1,For,For
34,1659960000000,08/08/2022 11:08,1659960000000,1,08/08/2022 12:08,94118,2,task-b5vt,NA,23522610,6893760,NA,complete,NA,62f0ed544dcb389419e8cf9b,computer,Desktop or Laptop,Windows 10,Chrome 104.0.0.0,1280x720,1280x569,NA,ITT Ratings,2,against,1,NA,NA,NA,NA,NA,NA,NA,NA,NA,ACCEPT,batch1pro,batch1pro,30,32,1,Screen 1,continueButton,response_rating_scale_likert_active,4723.2,NA,NA,Neither Agree nor Disagree,1,0,1,0,NA,NA,NA,NA,1,statements,The risks of side effects to su h as blood clots with vaccines are too high.,1,17/06/2021 12:31,17/06/2021 12:41,IP Address,For (I feel positively about the vaccines),Rarely,A few times a year,31,Female,NA,"Undergraduate degree (BSc, BA)",choice,5,3,For,Against
35,1659960000000,08/08/2022 11:08,1659960000000,1,08/08/2022 12:08,94118,2,task-b5vt,NA,23522610,6893760,NA,complete,NA,62f0ed544dcb389419e8cf9b,computer,Desktop or Laptop,Windows 10,Chrome 104.0.0.0,1280x720,1280x569,NA,ITT Ratings,2,against,1,NA,NA,NA,NA,NA,NA,NA,NA,NA,ACCEPT,batch1pro,batch1pro,33,33,1,Screen 1,continueButton,response_rating_scale_likert_active,5521.5,NA,NA,Neither Agree nor Disagree,1,0,1,0,NA,NA,NA,NA,1,statements,More vaccinations will hopefully mean less admissions and deaths and less pressure on the nhs,1,17/06/2021 12:31,17/06/2021 12:41,IP Address,For (I feel positively about the vaccines),Rarely,A few times a year,31,Female,NA,"Undergraduate degree (BSc, BA)",choice,5,3,For,For
36,1659960000000,08/08/2022 11:08,1659960000000,1,08/08/2022 12:08,94118,2,task-b5vt,NA,23522610,6893760,NA,complete,NA,62f0ed544dcb389419e8cf9b,computer,Desktop or Laptop,Windows 10,Chrome 104.0.0.0,1280x720,1280x569,NA,ITT Ratings,2,against,1,NA,NA,NA,NA,NA,NA,NA,NA,NA,ACCEPT,batch1pro,batch1pro,26,34,1,Screen 1,continueButton,response_rating_scale_likert_active,2712.8,NA,NA,Strongly Agree,1,0,1,0,NA,NA,NA,NA,1,statements,Many people have got it and have survived,1,17/06/2021 12:33,17/06/2021 12:41,IP Address,For (I feel positively about the vaccines),Most months,Most months,20,Female,NA,"Undergraduate degree (BSc, BA),Postgraduate degree (MSc, MA, MPhil)",control,4,2,For,For
37,1659960000000,08/08/2022 11:08,1659960000000,1,08/08/2022 12:08,94118,2,task-b5vt,NA,23522610,6893760,NA,complete,NA,62f0ed544dcb389419e8cf9b,computer,Desktop or Laptop,Windows 10,Chrome 104.0.0.0,1280x720,1280x569,NA,ITT Ratings,2,against,1,NA,NA,NA,NA,NA,NA,NA,NA,NA,ACCEPT,batch1pro,batch1pro,31,35,1,Screen 1,continueButton,response_rating_scale_likert_active,6414.8,NA,NA,Somewhat Disagree,1,0,1,0,NA,NA,NA,NA,1,statements,They wish for life to return to normal and the best way to achieve this is maximum uptake,1,17/06/2021 12:31,17/06/2021 12:41,IP Address,For (I feel positively about the vaccines),Rarely,A few times a year,31,Female,NA,"Undergraduate degree (BSc, BA)",choice,5,1,For,For
38,1659960000000,08/08/2022 11:08,1659960000000,1,08/08/2022 12:08,94118,2,task-b5vt,NA,23522610,6893760,NA,complete,NA,62f0ed544dcb389419e8cf9b,computer,Desktop or Laptop,Windows 10,Chrome 104.0.0.0,1280x720,1280x569,NA,ITT Ratings,2,against,1,NA,NA,NA,NA,NA,NA,NA,NA,NA,ACCEPT,batch1pro,batch1pro,40,36,1,Screen 1,continueButton,response_rating_scale_likert_active,4345.4,NA,NA,Somewhat Agree,1,0,1,0,NA,NA,NA,NA,1,statements,They believe we have not had enough time to develop an effective vaccine.,1,17/06/2021 12:35,17/06/2021 12:42,IP Address,For (I feel positively about the vaccines),Once or twice a year,A few times a year,20,Female,NA,"GCSEs,A levels",control,7,1,For,Against
39,1659960000000,08/08/2022 11:08,1659960000000,1,08/08/2022 12:08,94118,2,task-b5vt,NA,23522610,6893760,NA,complete,NA,62f0ed544dcb389419e8cf9b,computer,Desktop or Laptop,Windows 10,Chrome 104.0.0.0,1280x720,1280x569,NA,ITT Ratings,2,against,1,NA,NA,NA,NA,NA,NA,NA,NA,NA,ACCEPT,batch1pro,batch1pro,11,37,1,Screen 1,continueButton,response_rating_scale_likert_active,4993.4,NA,NA,Strongly Agree,1,0,1,0,NA,NA,NA,NA,1,statements,I believe that the vaccine is ineffective or rushed,1,17/06/2021 12:34,17/06/2021 12:40,IP Address,For (I feel positively about the vaccines),Rarely,Most weeks,26,Female,NA,"Undergraduate degree (BSc, BA)",choice,2,2,For,Against
40,1659960000000,08/08/2022 11:08,1659960000000,1,08/08/2022 12:08,94118,2,task-b5vt,NA,23522610,6893760,NA,complete,NA,62f0ed544dcb389419e8cf9b,computer,Desktop or Laptop,Windows 10,Chrome 104.0.0.0,1280x720,1280x569,NA,ITT Ratings,2,against,1,NA,NA,NA,NA,NA,NA,NA,NA,NA,ACCEPT,batch1pro,batch1pro,13,38,1,Screen 1,continueButton,response_rating_scale_likert_active,5249.1,NA,NA,Agree,1,0,1,0,NA,NA,NA,NA,1,statements,It's important to protect the people you love who are a higher risk than you,1,17/06/2021 12:34,17/06/2021 12:40,IP Address,For (I feel positively about the vaccines),Rarely,Most weeks,26,Female,NA,"Undergraduate degree (BSc, BA)",choice,2,1,For,For
41,1659960000000,08/08/2022 11:08,1659960000000,1,08/08/2022 12:08,94118,2,task-b5vt,NA,23522610,6893760,NA,complete,NA,62f0ed544dcb389419e8cf9b,computer,Desktop or Laptop,Windows 10,Chrome 104.0.0.0,1280x720,1280x569,NA,ITT Ratings,2,against,1,NA,NA,NA,NA,NA,NA,NA,NA,NA,ACCEPT,batch1pro,batch1pro,7,39,1,Screen 1,continueButton,response_rating_scale_likert_active,3056.4,NA,NA,Disagree,1,0,1,0,NA,NA,NA,NA,1,statements,It's the right thing to do to protect everyone else,1,17/06/2021 12:34,17/06/2021 12:39,IP Address,For (I feel positively about the vaccines),Rarely,A few times a year,26,Female,NA,"Undergraduate degree (BSc, BA)",control,1,1,For,For
42,1659960000000,08/08/2022 11:08,1659960000000,1,08/08/2022 12:08,94118,2,task-b5vt,NA,23522610,6893760,NA,complete,NA,62f0ed544dcb389419e8cf9b,computer,Desktop or Laptop,Windows 10,Chrome 104.0.0.0,1280x720,1280x569,NA,ITT Ratings,2,against,1,NA,NA,NA,NA,NA,NA,NA,NA,NA,ACCEPT,batch1pro,batch1pro,57,40,1,Screen 1,continueButton,response_rating_scale_likert_active,2667.9,NA,NA,Strongly Disagree,1,0,1,0,NA,NA,NA,NA,1,statements,Being vaccinated is reassuring,1,17/06/2021 12:36,17/06/2021 12:43,IP Address,For (I feel positively about the vaccines),Rarely,Most days,38,Male,NA,"GCSEs,Vocational Training / Apprenticeship",choice,9,3,For,For
43,1659960000000,08/08/2022 11:09,1659960000000,1,08/08/2022 12:09,94118,2,task-b5vt,NA,23522610,6893760,NA,complete,NA,62f0ed544dcb389419e8cf9b,computer,Desktop or Laptop,Windows 10,Chrome 104.0.0.0,1280x720,1280x569,NA,ITT Ratings,2,against,1,NA,NA,NA,NA,NA,NA,NA,NA,NA,ACCEPT,batch1pro,batch1pro,28,41,1,Screen 1,continueButton,response_rating_scale_likert_active,6950.3,NA,NA,Neither Agree nor Disagree,1,0,1,0,NA,NA,NA,NA,1,statements,Do not want to be used as a government experiment - there has not been enough testing and the safety is not known.,1,17/06/2021 12:31,17/06/2021 12:41,IP Address,For (I feel positively about the vaccines),Rarely,A few times a year,31,Female,NA,"Undergraduate degree (BSc, BA)",choice,5,1,For,Against
44,1659960000000,08/08/2022 11:09,1659960000000,1,08/08/2022 12:09,94118,2,task-b5vt,NA,23522610,6893760,NA,complete,NA,62f0ed544dcb389419e8cf9b,computer,Desktop or Laptop,Windows 10,Chrome 104.0.0.0,1280x720,1280x569,NA,ITT Ratings,2,against,1,NA,NA,NA,NA,NA,NA,NA,NA,NA,ACCEPT,batch1pro,batch1pro,6,42,1,Screen 1,continueButton,response_rating_scale_likert_active,3596.2,NA,NA,Strongly Agree,1,0,1,0,NA,NA,NA,NA,1,statements,I'm a healthy young adult and I'd rather they give my dose to someone else who is more vulnerable,1,17/06/2021 12:34,17/06/2021 12:39,IP Address,For (I feel positively about the vaccines),Rarely,A few times a year,26,Female,NA,"Undergraduate degree (BSc, BA)",control,1,3,For,Against
45,1659960000000,08/08/2022 11:09,1659960000000,1,08/08/2022 12:09,94118,2,task-b5vt,NA,23522610,6893760,NA,complete,NA,62f0ed544dcb389419e8cf9b,computer,Desktop or Laptop,Windows 10,Chrome 104.0.0.0,1280x720,1280x569,NA,ITT Ratings,2,against,1,NA,NA,NA,NA,NA,NA,NA,NA,NA,ACCEPT,batch1pro,batch1pro,48,43,1,Screen 1,continueButton,response_rating_scale_likert_active,3076,NA,NA,Neither Agree nor Disagree,1,0,1,0,NA,NA,NA,NA,1,statements,I'm young and healthy so why should I get vaccinated?,1,17/06/2021 12:29,17/06/2021 12:42,IP Address,For (I feel positively about the vaccines),Most months,Most months,20,Male,NA,A levels,choice,8,3,For,Against
46,1659960000000,08/08/2022 11:09,1659960000000,1,08/08/2022 12:09,94118,2,task-b5vt,NA,23522610,6893760,NA,complete,NA,62f0ed544dcb389419e8cf9b,computer,Desktop or Laptop,Windows 10,Chrome 104.0.0.0,1280x720,1280x569,NA,ITT Ratings,2,against,1,NA,NA,NA,NA,NA,NA,NA,NA,NA,ACCEPT,batch1pro,batch1pro,25,44,1,Screen 1,continueButton,response_rating_scale_likert_active,4825.2,NA,NA,Neither Agree nor Disagree,1,0,1,0,NA,NA,NA,NA,1,statements,It's been tried and tested and has been approved by many doctors around the world,1,17/06/2021 12:33,17/06/2021 12:41,IP Address,For (I feel positively about the vaccines),Most months,Most months,20,Female,NA,"Undergraduate degree (BSc, BA),Postgraduate degree (MSc, MA, MPhil)",control,4,1,For,For
47,1659960000000,08/08/2022 11:09,1659960000000,1,08/08/2022 12:09,94118,2,task-b5vt,NA,23522610,6893760,NA,complete,NA,62f0ed544dcb389419e8cf9b,computer,Desktop or Laptop,Windows 10,Chrome 104.0.0.0,1280x720,1280x569,NA,ITT Ratings,2,against,1,NA,NA,NA,NA,NA,NA,NA,NA,NA,ACCEPT,batch1pro,batch1pro,9,45,1,Screen 1,continueButton,response_rating_scale_likert_active,6492.2,NA,NA,Strongly Disagree,1,0,1,0,NA,NA,NA,NA,1,statements,I want to reduce the risk of myself catching the virus at work,1,17/06/2021 12:34,17/06/2021 12:39,IP Address,For (I feel positively about the vaccines),Rarely,A few times a year,26,Female,NA,"Undergraduate degree (BSc, BA)",control,1,3,For,For
48,1659960000000,08/08/2022 11:09,1659960000000,1,08/08/2022 12:09,94118,2,task-b5vt,NA,23522610,6893760,NA,complete,NA,62f0ed544dcb389419e8cf9b,computer,Desktop or Laptop,Windows 10,Chrome 104.0.0.0,1280x720,1280x569,NA,ITT Ratings,2,against,1,NA,NA,NA,NA,NA,NA,NA,NA,NA,ACCEPT,batch1pro,batch1pro,47,46,1,Screen 1,continueButton,response_rating_scale_likert_active,2884.9,NA,NA,Somewhat Agree,1,0,1,0,NA,NA,NA,NA,1,statements,there are negative side effects,1,17/06/2021 12:29,17/06/2021 12:42,IP Address,For (I feel positively about the vaccines),Most months,Most months,20,Male,NA,A levels,choice,8,2,For,Against
49,1659960000000,08/08/2022 11:09,1659960000000,1,08/08/2022 12:09,94118,2,task-b5vt,NA,23522610,6893760,NA,complete,NA,62f0ed544dcb389419e8cf9b,computer,Desktop or Laptop,Windows 10,Chrome 104.0.0.0,1280x720,1280x569,NA,ITT Ratings,2,against,1,NA,NA,NA,NA,NA,NA,NA,NA,NA,ACCEPT,batch1pro,batch1pro,20,47,1,Screen 1,continueButton,response_rating_scale_likert_active,2068.8,NA,NA,Neither Agree nor Disagree,1,0,1,0,NA,NA,NA,NA,1,statements,I want to help society,1,17/06/2021 12:29,17/06/2021 12:41,IP Address,For (I feel positively about the vaccines),Rarely,A few times a year,55,Female,NA,A levels,choice,3,2,For,For
50,1659960000000,08/08/2022 11:09,1659960000000,1,08/08/2022 12:09,94118,2,task-b5vt,NA,23522610,6893760,NA,complete,NA,62f0ed544dcb389419e8cf9b,computer,Desktop or Laptop,Windows 10,Chrome 104.0.0.0,1280x720,1280x569,NA,ITT Ratings,2,against,1,NA,NA,NA,NA,NA,NA,NA,NA,NA,ACCEPT,batch1pro,batch1pro,10,48,1,Screen 1,continueButton,response_rating_scale_likert_active,5708.6,NA,NA,Strongly Disagree,1,0,1,0,NA,NA,NA,NA,1,statements,I am one of those idiots who thinks I will become magnetic or have trackers in me,1,17/06/2021 12:34,17/06/2021 12:40,IP Address,For (I feel positively about the vaccines),Rarely,Most weeks,26,Female,NA,"Undergraduate degree (BSc, BA)",choice,2,1,For,Against
51,1659960000000,08/08/2022 11:09,1659960000000,1,08/08/2022 12:09,94118,2,task-b5vt,NA,23522610,6893760,NA,complete,NA,62f0ed544dcb389419e8cf9b,computer,Desktop or Laptop,Windows 10,Chrome 104.0.0.0,1280x720,1280x569,NA,ITT Ratings,2,against,1,NA,NA,NA,NA,NA,NA,NA,NA,NA,ACCEPT,batch1pro,batch1pro,34,49,1,Screen 1,continueButton,response_rating_scale_likert_active,5025.3,NA,NA,Neither Agree nor Disagree,1,0,1,0,NA,NA,NA,NA,1,statements,They have herd there could be side effects,1,17/06/2021 12:16,17/06/2021 12:42,IP Address,For (I feel positively about the vaccines),Rarely,Most days,34,Male,NA,GCSEs,control,6,1,For,Against
52,1659960000000,08/08/2022 11:09,1659960000000,1,08/08/2022 12:09,94118,2,task-b5vt,NA,23522610,6893760,NA,complete,NA,62f0ed544dcb389419e8cf9b,computer,Desktop or Laptop,Windows 10,Chrome 104.0.0.0,1280x720,1280x569,NA,ITT Ratings,2,against,1,NA,NA,NA,NA,NA,NA,NA,NA,NA,ACCEPT,batch1pro,batch1pro,2,50,1,Screen 1,continueButton,response_rating_scale_likert_active,3967.2,NA,NA,Somewhat Agree,1,0,1,0,NA,NA,NA,NA,1,statements,We would like to check you are reading each argument carefully. Please select 'Somewhat Agree' for this answer,1,NA,NA,NA,NA,NA,NA,NA,NA,NA,NA,NA,NA,check1,NA,NA
53,1659960000000,08/08/2022 11:09,1659960000000,1,08/08/2022 12:09,94118,2,task-b5vt,NA,23522610,6893760,NA,complete,NA,62f0ed544dcb389419e8cf9b,computer,Desktop or Laptop,Windows 10,Chrome 104.0.0.0,1280x720,1280x569,NA,ITT Ratings,2,against,1,NA,NA,NA,NA,NA,NA,NA,NA,NA,ACCEPT,batch1pro,batch1pro,12,51,1,Screen 1,continueButton,response_rating_scale_likert_active,3233.1,NA,NA,Strongly Disagree,1,0,1,0,NA,NA,NA,NA,1,statements,I think that the vaccine is fake,1,17/06/2021 12:34,17/06/2021 12:40,IP Address,For (I feel positively about the vaccines),Rarely,Most weeks,26,Female,NA,"Undergraduate degree (BSc, BA)",choice,2,3,For,Against
54,1659960000000,08/08/2022 11:09,1659960000000,1,08/08/2022 12:09,94118,2,task-b5vt,NA,23522610,6893760,NA,complete,NA,62f0ed544dcb389419e8cf9b,computer,Desktop or Laptop,Windows 10,Chrome 104.0.0.0,1280x720,1280x569,NA,ITT Ratings,2,against,1,NA,NA,NA,NA,NA,NA,NA,NA,NA,ACCEPT,batch1pro,batch1pro,42,52,1,Screen 1,continueButton,response_rating_scale_likert_active,4017.7,NA,NA,Somewhat Disagree,1,0,1,0,NA,NA,NA,NA,1,statements,They are unsafe and can cause long-term effects.,1,17/06/2021 12:35,17/06/2021 12:42,IP Address,For (I feel positively about the vaccines),Once or twice a year,A few times a year,20,Female,NA,"GCSEs,A levels",control,7,3,For,Against
55,1659960000000,08/08/2022 11:09,1659960000000,1,08/08/2022 12:09,94118,2,task-b5vt,NA,23522610,6893760,NA,complete,NA,62f0ed544dcb389419e8cf9b,computer,Desktop or Laptop,Windows 10,Chrome 104.0.0.0,1280x720,1280x569,NA,ITT Ratings,2,against,1,NA,NA,NA,NA,NA,NA,NA,NA,NA,ACCEPT,batch1pro,batch1pro,60,53,1,Screen 1,continueButton,response_rating_scale_likert_active,3314.7,NA,NA,Strongly Disagree,1,0,1,0,NA,NA,NA,NA,1,statements,Concerns about fertility and the population control conspiracy.,1,17/06/2021 13:01,17/06/2021 13:10,IP Address,For (I feel positively about the vaccines),Most months,Most weeks,35,Non-binary,NA,"Postgraduate degree (MSc, MA, MPhil)",control,10,3,For,Against
56,1659960000000,08/08/2022 11:09,1659960000000,1,08/08/2022 12:09,94118,2,task-b5vt,NA,23522610,6893760,NA,complete,NA,62f0ed544dcb389419e8cf9b,computer,Desktop or Laptop,Windows 10,Chrome 104.0.0.0,1280x720,1280x569,NA,ITT Ratings,2,against,1,NA,NA,NA,NA,NA,NA,NA,NA,NA,ACCEPT,batch1pro,batch1pro,22,54,1,Screen 1,continueButton,response_rating_scale_likert_active,3948.6,NA,NA,Somewhat Agree,1,0,1,0,NA,NA,NA,NA,1,statements,It's not qualified or tested enough,1,17/06/2021 12:33,17/06/2021 12:41,IP Address,For (I feel positively about the vaccines),Most months,Most months,20,Female,NA,"Undergraduate degree (BSc, BA),Postgraduate degree (MSc, MA, MPhil)",control,4,1,For,Against
57,1659960000000,08/08/2022 11:10,1659960000000,1,08/08/2022 12:10,94118,2,task-b5vt,NA,23522610,6893760,NA,complete,NA,62f0ed544dcb389419e8cf9b,computer,Desktop or Laptop,Windows 10,Chrome 104.0.0.0,1280x720,1280x569,NA,ITT Ratings,2,against,1,NA,NA,NA,NA,NA,NA,NA,NA,NA,ACCEPT,batch1pro,batch1pro,8,55,1,Screen 1,continueButton,response_rating_scale_likert_active,7520.5,NA,NA,Neither Agree nor Disagree,1,0,1,0,NA,NA,NA,NA,1,statements,I want to protect my family and be able to see them again,1,17/06/2021 12:34,17/06/2021 12:39,IP Address,For (I feel positively about the vaccines),Rarely,A few times a year,26,Female,NA,"Undergraduate degree (BSc, BA)",control,1,2,For,For
58,1659960000000,08/08/2022 11:10,1659960000000,1,08/08/2022 12:10,94118,2,task-b5vt,NA,23522610,6893760,NA,complete,NA,62f0ed544dcb389419e8cf9b,computer,Desktop or Laptop,Windows 10,Chrome 104.0.0.0,1280x720,1280x569,NA,ITT Ratings,2,against,1,NA,NA,NA,NA,NA,NA,NA,NA,NA,ACCEPT,batch1pro,batch1pro,18,56,1,Screen 1,continueButton,response_rating_scale_likert_active,2171.4,NA,NA,Strongly Disagree,1,0,1,0,NA,NA,NA,NA,1,statements,Unless everyone has it then what is the point,1,17/06/2021 12:29,17/06/2021 12:41,IP Address,For (I feel positively about the vaccines),Rarely,A few times a year,55,Female,NA,A levels,choice,3,3,For,Against
59,1659960000000,08/08/2022 11:10,1659960000000,1,08/08/2022 12:10,94118,2,task-b5vt,NA,23522610,6893760,NA,complete,NA,62f0ed544dcb389419e8cf9b,computer,Desktop or Laptop,Windows 10,Chrome 104.0.0.0,1280x720,1280x569,NA,ITT Ratings,2,against,1,NA,NA,NA,NA,NA,NA,NA,NA,NA,ACCEPT,batch1pro,batch1pro,41,57,1,Screen 1,continueButton,response_rating_scale_likert_active,3017.6,NA,NA,Strongly Disagree,1,0,1,0,NA,NA,NA,NA,1,statements,The vaccines contain trackers that allow the government to control us.,1,17/06/2021 12:35,17/06/2021 12:42,IP Address,For (I feel positively about the vaccines),Once or twice a year,A few times a year,20,Female,NA,"GCSEs,A levels",control,7,2,For,Against
60,1659960000000,08/08/2022 11:10,1659960000000,1,08/08/2022 12:10,94118,2,task-b5vt,NA,23522610,6893760,NA,complete,NA,62f0ed544dcb389419e8cf9b,computer,Desktop or Laptop,Windows 10,Chrome 104.0.0.0,1280x720,1280x569,NA,ITT Ratings,2,against,1,NA,NA,NA,NA,NA,NA,NA,NA,NA,ACCEPT,batch1pro,batch1pro,4,58,1,Screen 1,continueButton,response_rating_scale_likert_active,2406.6,NA,NA,Somewhat Agree,1,0,1,0,NA,NA,NA,NA,1,statements,"It was developed too quickly, I think they should have taken more time on it",1,17/06/2021 12:34,17/06/2021 12:39,IP Address,For (I feel positively about the vaccines),Rarely,A few times a year,26,Female,NA,"Undergraduate degree (BSc, BA)",control,1,1,For,Against
61,1659960000000,08/08/2022 11:10,1659960000000,1,08/08/2022 12:10,94118,2,task-b5vt,NA,23522610,6893760,NA,complete,NA,62f0ed544dcb389419e8cf9b,computer,Desktop or Laptop,Windows 10,Chrome 104.0.0.0,1280x720,1280x569,NA,ITT Ratings,2,against,1,NA,NA,NA,NA,NA,NA,NA,NA,NA,ACCEPT,batch1pro,batch1pro,63,59,1,Screen 1,continueButton,response_rating_scale_likert_active,7221.6,NA,NA,Somewhat Disagree,1,0,1,0,NA,NA,NA,NA,1,statements,Less restrictions on behaviour due to immunity.,1,17/06/2021 13:01,17/06/2021 13:10,IP Address,For (I feel positively about the vaccines),Most months,Most weeks,35,Non-binary,NA,"Postgraduate degree (MSc, MA, MPhil)",control,10,3,For,For
62,1659960000000,08/08/2022 11:10,1659960000000,1,08/08/2022 12:10,94118,2,task-b5vt,NA,23522610,6893760,NA,complete,NA,62f0ed544dcb389419e8cf9b,computer,Desktop or Laptop,Windows 10,Chrome 104.0.0.0,1280x720,1280x569,NA,ITT Ratings,2,against,1,NA,NA,NA,NA,NA,NA,NA,NA,NA,ACCEPT,batch1pro,batch1pro,54,60,1,Screen 1,continueButton,response_rating_scale_likert_active,4073.5,NA,NA,Agree,1,0,1,0,NA,NA,NA,NA,1,statements,The vaccines don't work and will not be affective,1,17/06/2021 12:36,17/06/2021 12:43,IP Address,For (I feel positively about the vaccines),Rarely,Most days,38,Male,NA,"GCSEs,Vocational Training / Apprenticeship",choice,9,3,For,Against
63,1659960000000,08/08/2022 11:10,1659960000000,1,08/08/2022 12:10,94118,2,task-b5vt,NA,23522610,6893760,NA,complete,NA,62f0ed544dcb389419e8cf9b,computer,Desktop or Laptop,Windows 10,Chrome 104.0.0.0,1280x720,1280x569,NA,ITT Ratings,2,against,1,NA,NA,NA,NA,NA,NA,NA,NA,NA,ACCEPT,batch1pro,batch1pro,55,61,1,Screen 1,continueButton,response_rating_scale_likert_active,4397.5,NA,NA,Strongly Disagree,1,0,1,0,NA,NA,NA,NA,1,statements,It's essential to be vaccinated to regain normality.,1,17/06/2021 12:36,17/06/2021 12:43,IP Address,For (I feel positively about the vaccines),Rarely,Most days,38,Male,NA,"GCSEs,Vocational Training / Apprenticeship",choice,9,1,For,For
64,1659960000000,08/08/2022 11:10,1659960000000,1,08/08/2022 12:10,94118,2,task-b5vt,NA,23522610,6893760,NA,complete,NA,62f0ed544dcb389419e8cf9b,computer,Desktop or Laptop,Windows 10,Chrome 104.0.0.0,1280x720,1280x569,NA,ITT Ratings,2,against,1,NA,NA,NA,NA,NA,NA,NA,NA,NA,ACCEPT,batch1pro,batch1pro,58,62,1,Screen 1,continueButton,response_rating_scale_likert_active,3045.9,NA,NA,Somewhat Agree,1,0,1,0,NA,NA,NA,NA,1,statements,"Concerns about dangerous side effects, such as blood clots and neurological damage.",1,17/06/2021 13:01,17/06/2021 13:10,IP Address,For (I feel positively about the vaccines),Most months,Most weeks,35,Non-binary,NA,"Postgraduate degree (MSc, MA, MPhil)",control,10,1,For,Against
65,1659960000000,08/08/2022 11:10,1659960000000,1,08/08/2022 12:10,94118,2,task-b5vt,NA,23522610,6893760,NA,complete,NA,62f0ed544dcb389419e8cf9b,computer,Desktop or Laptop,Windows 10,Chrome 104.0.0.0,1280x720,1280x569,NA,ITT Ratings,2,against,1,NA,NA,NA,NA,NA,NA,NA,NA,NA,ACCEPT,batch1pro,NA,NA,END TASK,NA,NA,NA,NA,342693,NA,NA,NA,NA,0,1,0,NA,NA,NA,NA,NA,NA,NA,NA,NA,NA,NA,NA,NA,NA,NA,NA,NA,NA,NA,NA,NA,NA,NA
1,1659960000000,08/08/2022 11:05,1659960000000,1,08/08/2022 12:05,94118,2,task-b5vt,NA,23522626,6893770,NA,complete,NA,62f0ec0aece280f438921be0,computer,Desktop or Laptop,Chromium OS 14816.131.0,Chrome 103.0.0.0,1536x864,1536x746,NA,ITT Ratings,2,against,1,NA,NA,NA,NA,NA,NA,NA,NA,NA,ACCEPT,batch1pro,NA,NA,BEGIN TASK,NA,NA,NA,NA,NA,NA,NA,NA,NA,0,1,0,NA,NA,NA,NA,NA,NA,NA,NA,NA,NA,NA,NA,NA,NA,NA,NA,NA,NA,NA,NA,NA,NA,NA
2,1659960000000,08/08/2022 11:05,1659960000000,1,08/08/2022 12:05,94118,2,task-b5vt,NA,23522626,6893770,NA,complete,NA,62f0ec0aece280f438921be0,computer,Desktop or Laptop,Chromium OS 14816.131.0,Chrome 103.0.0.0,1536x864,1536x746,NA,ITT Ratings,2,against,1,NA,NA,NA,NA,NA,NA,NA,NA,NA,ACCEPT,batch1pro,batch1pro,1,1,1,Screen 1,advancementZone,continue_button,3192.6,NA,NA,NA,NA,0,1,0,NA,NA,NA,NA,NA,instructions,NA,NA,NA,NA,NA,NA,NA,NA,NA,NA,NA,NA,NA,NA,NA,NA,NA
3,1659960000000,08/08/2022 11:05,1659960000000,1,08/08/2022 12:05,94118,2,task-b5vt,NA,23522626,6893770,NA,complete,NA,62f0ec0aece280f438921be0,computer,Desktop or Laptop,Chromium OS 14816.131.0,Chrome 103.0.0.0,1536x864,1536x746,NA,ITT Ratings,2,against,1,NA,NA,NA,NA,NA,NA,NA,NA,NA,ACCEPT,batch1pro,batch1pro,62,1,1,Screen 1,continueButton,response_rating_scale_likert_active,6349.6,NA,NA,Strongly Disagree,1,0,1,0,NA,NA,NA,NA,1,statements,Reduced risk of passing on COVID.,1,17/06/2021 13:01,17/06/2021 13:10,IP Address,For (I feel positively about the vaccines),Most months,Most weeks,35,Non-binary,NA,"Postgraduate degree (MSc, MA, MPhil)",control,10,2,For,For
4,1659960000000,08/08/2022 11:05,1659960000000,1,08/08/2022 12:05,94118,2,task-b5vt,NA,23522626,6893770,NA,complete,NA,62f0ec0aece280f438921be0,computer,Desktop or Laptop,Chromium OS 14816.131.0,Chrome 103.0.0.0,1536x864,1536x746,NA,ITT Ratings,2,against,1,NA,NA,NA,NA,NA,NA,NA,NA,NA,ACCEPT,batch1pro,batch1pro,26,2,1,Screen 1,continueButton,response_rating_scale_likert_active,2479.4,NA,NA,Strongly Agree,1,0,1,0,NA,NA,NA,NA,1,statements,Many people have got it and have survived,1,17/06/2021 12:33,17/06/2021 12:41,IP Address,For (I feel positively about the vaccines),Most months,Most months,20,Female,NA,"Undergraduate degree (BSc, BA),Postgraduate degree (MSc, MA, MPhil)",control,4,2,For,For
5,1659960000000,08/08/2022 11:05,1659960000000,1,08/08/2022 12:05,94118,2,task-b5vt,NA,23522626,6893770,NA,complete,NA,62f0ec0aece280f438921be0,computer,Desktop or Laptop,Chromium OS 14816.131.0,Chrome 103.0.0.0,1536x864,1536x746,NA,ITT Ratings,2,against,1,NA,NA,NA,NA,NA,NA,NA,NA,NA,ACCEPT,batch1pro,batch1pro,33,3,1,Screen 1,continueButton,response_rating_scale_likert_active,2851.9,NA,NA,Disagree,1,0,1,0,NA,NA,NA,NA,1,statements,More vaccinations will hopefully mean less admissions and deaths and less pressure on the nhs,1,17/06/2021 12:31,17/06/2021 12:41,IP Address,For (I feel positively about the vaccines),Rarely,A few times a year,31,Female,NA,"Undergraduate degree (BSc, BA)",choice,5,3,For,For
6,1659960000000,08/08/2022 11:05,1659960000000,1,08/08/2022 12:05,94118,2,task-b5vt,NA,23522626,6893770,NA,complete,NA,62f0ec0aece280f438921be0,computer,Desktop or Laptop,Chromium OS 14816.131.0,Chrome 103.0.0.0,1536x864,1536x746,NA,ITT Ratings,2,against,1,NA,NA,NA,NA,NA,NA,NA,NA,NA,ACCEPT,batch1pro,batch1pro,36,4,1,Screen 1,continueButton,response_rating_scale_likert_active,3726.9,NA,NA,Disagree,1,0,1,0,NA,NA,NA,NA,1,statements,I am scared and I don't believe that the Vaccine will help me,1,17/06/2021 12:16,17/06/2021 12:42,IP Address,For (I feel positively about the vaccines),Rarely,Most days,34,Male,NA,GCSEs,control,6,3,For,Against
7,1659960000000,08/08/2022 11:05,1659960000000,1,08/08/2022 12:05,94118,2,task-b5vt,NA,23522626,6893770,NA,complete,NA,62f0ec0aece280f438921be0,computer,Desktop or Laptop,Chromium OS 14816.131.0,Chrome 103.0.0.0,1536x864,1536x746,NA,ITT Ratings,2,against,1,NA,NA,NA,NA,NA,NA,NA,NA,NA,ACCEPT,batch1pro,batch1pro,9,5,1,Screen 1,continueButton,response_rating_scale_likert_active,2779.7,NA,NA,Disagree,1,0,1,0,NA,NA,NA,NA,1,statements,I want to reduce the risk of myself catching the virus at work,1,17/06/2021 12:34,17/06/2021 12:39,IP Address,For (I feel positively about the vaccines),Rarely,A few times a year,26,Female,NA,"Undergraduate degree (BSc, BA)",control,1,3,For,For
8,1659960000000,08/08/2022 11:05,1659960000000,1,08/08/2022 12:05,94118,2,task-b5vt,NA,23522626,6893770,NA,complete,NA,62f0ec0aece280f438921be0,computer,Desktop or Laptop,Chromium OS 14816.131.0,Chrome 103.0.0.0,1536x864,1536x746,NA,ITT Ratings,2,against,1,NA,NA,NA,NA,NA,NA,NA,NA,NA,ACCEPT,batch1pro,batch1pro,11,6,1,Screen 1,continueButton,response_rating_scale_likert_active,2699.2,NA,NA,Strongly Agree,1,0,1,0,NA,NA,NA,NA,1,statements,I believe that the vaccine is ineffective or rushed,1,17/06/2021 12:34,17/06/2021 12:40,IP Address,For (I feel positively about the vaccines),Rarely,Most weeks,26,Female,NA,"Undergraduate degree (BSc, BA)",choice,2,2,For,Against
9,1659960000000,08/08/2022 11:05,1659960000000,1,08/08/2022 12:05,94118,2,task-b5vt,NA,23522626,6893770,NA,complete,NA,62f0ec0aece280f438921be0,computer,Desktop or Laptop,Chromium OS 14816.131.0,Chrome 103.0.0.0,1536x864,1536x746,NA,ITT Ratings,2,against,1,NA,NA,NA,NA,NA,NA,NA,NA,NA,ACCEPT,batch1pro,batch1pro,7,7,1,Screen 1,continueButton,response_rating_scale_likert_active,2841.1,NA,NA,Neither Agree nor Disagree,1,0,1,0,NA,NA,NA,NA,1,statements,It's the right thing to do to protect everyone else,1,17/06/2021 12:34,17/06/2021 12:39,IP Address,For (I feel positively about the vaccines),Rarely,A few times a year,26,Female,NA,"Undergraduate degree (BSc, BA)",control,1,1,For,For
10,1659960000000,08/08/2022 11:05,1659960000000,1,08/08/2022 12:05,94118,2,task-b5vt,NA,23522626,6893770,NA,complete,NA,62f0ec0aece280f438921be0,computer,Desktop or Laptop,Chromium OS 14816.131.0,Chrome 103.0.0.0,1536x864,1536x746,NA,ITT Ratings,2,against,1,NA,NA,NA,NA,NA,NA,NA,NA,NA,ACCEPT,batch1pro,batch1pro,34,8,1,Screen 1,continueButton,response_rating_scale_likert_active,2449.4,NA,NA,Somewhat Agree,1,0,1,0,NA,NA,NA,NA,1,statements,They have herd there could be side effects,1,17/06/2021 12:16,17/06/2021 12:42,IP Address,For (I feel positively about the vaccines),Rarely,Most days,34,Male,NA,GCSEs,control,6,1,For,Against
11,1659960000000,08/08/2022 11:05,1659960000000,1,08/08/2022 12:05,94118,2,task-b5vt,NA,23522626,6893770,NA,complete,NA,62f0ec0aece280f438921be0,computer,Desktop or Laptop,Chromium OS 14816.131.0,Chrome 103.0.0.0,1536x864,1536x746,NA,ITT Ratings,2,against,1,NA,NA,NA,NA,NA,NA,NA,NA,NA,ACCEPT,batch1pro,batch1pro,53,9,1,Screen 1,continueButton,response_rating_scale_likert_active,2042.6,NA,NA,Agree,1,0,1,0,NA,NA,NA,NA,1,statements,The vaccines are not safe enough yet,1,17/06/2021 12:36,17/06/2021 12:43,IP Address,For (I feel positively about the vaccines),Rarely,Most days,38,Male,NA,"GCSEs,Vocational Training / Apprenticeship",choice,9,2,For,Against
12,1659960000000,08/08/2022 11:06,1659960000000,1,08/08/2022 12:05,94118,2,task-b5vt,NA,23522626,6893770,NA,complete,NA,62f0ec0aece280f438921be0,computer,Desktop or Laptop,Chromium OS 14816.131.0,Chrome 103.0.0.0,1536x864,1536x746,NA,ITT Ratings,2,against,1,NA,NA,NA,NA,NA,NA,NA,NA,NA,ACCEPT,batch1pro,batch1pro,47,10,1,Screen 1,continueButton,response_rating_scale_likert_active,1697.5,NA,NA,Strongly Agree,1,0,1,0,NA,NA,NA,NA,1,statements,there are negative side effects,1,17/06/2021 12:29,17/06/2021 12:42,IP Address,For (I feel positively about the vaccines),Most months,Most months,20,Male,NA,A levels,choice,8,2,For,Against
13,1659960000000,08/08/2022 11:06,1659960000000,1,08/08/2022 12:06,94118,2,task-b5vt,NA,23522626,6893770,NA,complete,NA,62f0ec0aece280f438921be0,computer,Desktop or Laptop,Chromium OS 14816.131.0,Chrome 103.0.0.0,1536x864,1536x746,NA,ITT Ratings,2,against,1,NA,NA,NA,NA,NA,NA,NA,NA,NA,ACCEPT,batch1pro,batch1pro,14,11,1,Screen 1,continueButton,response_rating_scale_likert_active,2561.1,NA,NA,Strongly Disagree,1,0,1,0,NA,NA,NA,NA,1,statements,It's one of the only ways we will return to normal life,1,17/06/2021 12:34,17/06/2021 12:40,IP Address,For (I feel positively about the vaccines),Rarely,Most weeks,26,Female,NA,"Undergraduate degree (BSc, BA)",choice,2,2,For,For
14,1659960000000,08/08/2022 11:06,1659960000000,1,08/08/2022 12:06,94118,2,task-b5vt,NA,23522626,6893770,NA,complete,NA,62f0ec0aece280f438921be0,computer,Desktop or Laptop,Chromium OS 14816.131.0,Chrome 103.0.0.0,1536x864,1536x746,NA,ITT Ratings,2,against,1,NA,NA,NA,NA,NA,NA,NA,NA,NA,ACCEPT,batch1pro,batch1pro,28,12,1,Screen 1,continueButton,response_rating_scale_likert_active,3980,NA,NA,Agree,1,0,1,0,NA,NA,NA,NA,1,statements,Do not want to be used as a government experiment - there has not been enough testing and the safety is not known.,1,17/06/2021 12:31,17/06/2021 12:41,IP Address,For (I feel positively about the vaccines),Rarely,A few times a year,31,Female,NA,"Undergraduate degree (BSc, BA)",choice,5,1,For,Against
15,1659960000000,08/08/2022 11:06,1659960000000,1,08/08/2022 12:06,94118,2,task-b5vt,NA,23522626,6893770,NA,complete,NA,62f0ec0aece280f438921be0,computer,Desktop or Laptop,Chromium OS 14816.131.0,Chrome 103.0.0.0,1536x864,1536x746,NA,ITT Ratings,2,against,1,NA,NA,NA,NA,NA,NA,NA,NA,NA,ACCEPT,batch1pro,batch1pro,58,13,1,Screen 1,continueButton,response_rating_scale_likert_active,1586,NA,NA,Agree,1,0,1,0,NA,NA,NA,NA,1,statements,"Concerns about dangerous side effects, such as blood clots and neurological damage.",1,17/06/2021 13:01,17/06/2021 13:10,IP Address,For (I feel positively about the vaccines),Most months,Most weeks,35,Non-binary,NA,"Postgraduate degree (MSc, MA, MPhil)",control,10,1,For,Against
16,1659960000000,08/08/2022 11:06,1659960000000,1,08/08/2022 12:06,94118,2,task-b5vt,NA,23522626,6893770,NA,complete,NA,62f0ec0aece280f438921be0,computer,Desktop or Laptop,Chromium OS 14816.131.0,Chrome 103.0.0.0,1536x864,1536x746,NA,ITT Ratings,2,against,1,NA,NA,NA,NA,NA,NA,NA,NA,NA,ACCEPT,batch1pro,batch1pro,6,14,1,Screen 1,continueButton,response_rating_scale_likert_active,3085.2,NA,NA,Agree,1,0,1,0,NA,NA,NA,NA,1,statements,I'm a healthy young adult and I'd rather they give my dose to someone else who is more vulnerable,1,17/06/2021 12:34,17/06/2021 12:39,IP Address,For (I feel positively about the vaccines),Rarely,A few times a year,26,Female,NA,"Undergraduate degree (BSc, BA)",control,1,3,For,Against
17,1659960000000,08/08/2022 11:06,1659960000000,1,08/08/2022 12:06,94118,2,task-b5vt,NA,23522626,6893770,NA,complete,NA,62f0ec0aece280f438921be0,computer,Desktop or Laptop,Chromium OS 14816.131.0,Chrome 103.0.0.0,1536x864,1536x746,NA,ITT Ratings,2,against,1,NA,NA,NA,NA,NA,NA,NA,NA,NA,ACCEPT,batch1pro,batch1pro,54,15,1,Screen 1,continueButton,response_rating_scale_likert_active,1726.1,NA,NA,Strongly Agree,1,0,1,0,NA,NA,NA,NA,1,statements,The vaccines don't work and will not be affective,1,17/06/2021 12:36,17/06/2021 12:43,IP Address,For (I feel positively about the vaccines),Rarely,Most days,38,Male,NA,"GCSEs,Vocational Training / Apprenticeship",choice,9,3,For,Against
18,1659960000000,08/08/2022 11:06,1659960000000,1,08/08/2022 12:06,94118,2,task-b5vt,NA,23522626,6893770,NA,complete,NA,62f0ec0aece280f438921be0,computer,Desktop or Laptop,Chromium OS 14816.131.0,Chrome 103.0.0.0,1536x864,1536x746,NA,ITT Ratings,2,against,1,NA,NA,NA,NA,NA,NA,NA,NA,NA,ACCEPT,batch1pro,batch1pro,5,16,1,Screen 1,continueButton,response_rating_scale_likert_active,2811.9,NA,NA,Strongly Agree,1,0,1,0,NA,NA,NA,NA,1,statements,I don't want any of the side effects on me or my family,1,17/06/2021 12:34,17/06/2021 12:39,IP Address,For (I feel positively about the vaccines),Rarely,A few times a year,26,Female,NA,"Undergraduate degree (BSc, BA)",control,1,2,For,Against
19,1659960000000,08/08/2022 11:06,1659960000000,1,08/08/2022 12:06,94118,2,task-b5vt,NA,23522626,6893770,NA,complete,NA,62f0ec0aece280f438921be0,computer,Desktop or Laptop,Chromium OS 14816.131.0,Chrome 103.0.0.0,1536x864,1536x746,NA,ITT Ratings,2,against,1,NA,NA,NA,NA,NA,NA,NA,NA,NA,ACCEPT,batch1pro,batch1pro,29,17,1,Screen 1,continueButton,response_rating_scale_likert_active,6474.2,NA,NA,Strongly Agree,1,0,1,0,NA,NA,NA,NA,1,statements,"The outcomes of the virus are not significant for that person, therefore the risk of the vaccine is greater than the risk of covid 19 side effects",1,17/06/2021 12:31,17/06/2021 12:41,IP Address,For (I feel positively about the vaccines),Rarely,A few times a year,31,Female,NA,"Undergraduate degree (BSc, BA)",choice,5,2,For,Against
20,1659960000000,08/08/2022 11:06,1659960000000,1,08/08/2022 12:06,94118,2,task-b5vt,NA,23522626,6893770,NA,complete,NA,62f0ec0aece280f438921be0,computer,Desktop or Laptop,Chromium OS 14816.131.0,Chrome 103.0.0.0,1536x864,1536x746,NA,ITT Ratings,2,against,1,NA,NA,NA,NA,NA,NA,NA,NA,NA,ACCEPT,batch1pro,batch1pro,35,18,1,Screen 1,continueButton,response_rating_scale_likert_active,3325.8,NA,NA,Neither Agree nor Disagree,1,0,1,0,NA,NA,NA,NA,1,statements,Someone has told me there experience is bad which has now put me of the idear,1,17/06/2021 12:16,17/06/2021 12:42,IP Address,For (I feel positively about the vaccines),Rarely,Most days,34,Male,NA,GCSEs,control,6,2,For,Against
21,1659960000000,08/08/2022 11:06,1659960000000,1,08/08/2022 12:06,94118,2,task-b5vt,NA,23522626,6893770,NA,complete,NA,62f0ec0aece280f438921be0,computer,Desktop or Laptop,Chromium OS 14816.131.0,Chrome 103.0.0.0,1536x864,1536x746,NA,ITT Ratings,2,against,1,NA,NA,NA,NA,NA,NA,NA,NA,NA,ACCEPT,batch1pro,batch1pro,39,19,1,Screen 1,continueButton,response_rating_scale_likert_active,3078.6,NA,NA,Disagree,1,0,1,0,NA,NA,NA,NA,1,statements,Alot of people have died from getting Covid and I want to keep my self safe and I trust it,1,17/06/2021 12:16,17/06/2021 12:42,IP Address,For (I feel positively about the vaccines),Rarely,Most days,34,Male,NA,GCSEs,control,6,3,For,For
22,1659960000000,08/08/2022 11:06,1659960000000,1,08/08/2022 12:06,94118,2,task-b5vt,NA,23522626,6893770,NA,complete,NA,62f0ec0aece280f438921be0,computer,Desktop or Laptop,Chromium OS 14816.131.0,Chrome 103.0.0.0,1536x864,1536x746,NA,ITT Ratings,2,against,1,NA,NA,NA,NA,NA,NA,NA,NA,NA,ACCEPT,batch1pro,batch1pro,63,20,1,Screen 1,continueButton,response_rating_scale_likert_active,4057,NA,NA,Somewhat Disagree,1,0,1,0,NA,NA,NA,NA,1,statements,Less restrictions on behaviour due to immunity.,1,17/06/2021 13:01,17/06/2021 13:10,IP Address,For (I feel positively about the vaccines),Most months,Most weeks,35,Non-binary,NA,"Postgraduate degree (MSc, MA, MPhil)",control,10,3,For,For
23,1659960000000,08/08/2022 11:06,1659960000000,1,08/08/2022 12:06,94118,2,task-b5vt,NA,23522626,6893770,NA,complete,NA,62f0ec0aece280f438921be0,computer,Desktop or Laptop,Chromium OS 14816.131.0,Chrome 103.0.0.0,1536x864,1536x746,NA,ITT Ratings,2,against,1,NA,NA,NA,NA,NA,NA,NA,NA,NA,ACCEPT,batch1pro,batch1pro,60,21,1,Screen 1,continueButton,response_rating_scale_likert_active,2520.4,NA,NA,Agree,1,0,1,0,NA,NA,NA,NA,1,statements,Concerns about fertility and the population control conspiracy.,1,17/06/2021 13:01,17/06/2021 13:10,IP Address,For (I feel positively about the vaccines),Most months,Most weeks,35,Non-binary,NA,"Postgraduate degree (MSc, MA, MPhil)",control,10,3,For,Against
24,1659960000000,08/08/2022 11:06,1659960000000,1,08/08/2022 12:06,94118,2,task-b5vt,NA,23522626,6893770,NA,complete,NA,62f0ec0aece280f438921be0,computer,Desktop or Laptop,Chromium OS 14816.131.0,Chrome 103.0.0.0,1536x864,1536x746,NA,ITT Ratings,2,against,1,NA,NA,NA,NA,NA,NA,NA,NA,NA,ACCEPT,batch1pro,batch1pro,32,22,1,Screen 1,continueButton,response_rating_scale_likert_active,4654.6,NA,NA,Strongly Disagree,1,0,1,0,NA,NA,NA,NA,1,statements,I am aware of the risks and complications of contracting xovid 19 and wish to protect myself and others,1,17/06/2021 12:31,17/06/2021 12:41,IP Address,For (I feel positively about the vaccines),Rarely,A few times a year,31,Female,NA,"Undergraduate degree (BSc, BA)",choice,5,2,For,For
25,1659960000000,08/08/2022 11:06,1659960000000,1,08/08/2022 12:06,94118,2,task-b5vt,NA,23522626,6893770,NA,complete,NA,62f0ec0aece280f438921be0,computer,Desktop or Laptop,Chromium OS 14816.131.0,Chrome 103.0.0.0,1536x864,1536x746,NA,ITT Ratings,2,against,1,NA,NA,NA,NA,NA,NA,NA,NA,NA,ACCEPT,batch1pro,batch1pro,23,23,1,Screen 1,continueButton,response_rating_scale_likert_active,2679.9,NA,NA,Somewhat Agree,1,0,1,0,NA,NA,NA,NA,1,statements,The government is trying to control us through this vaccine,1,17/06/2021 12:33,17/06/2021 12:41,IP Address,For (I feel positively about the vaccines),Most months,Most months,20,Female,NA,"Undergraduate degree (BSc, BA),Postgraduate degree (MSc, MA, MPhil)",control,4,2,For,Against
26,1659960000000,08/08/2022 11:06,1659960000000,1,08/08/2022 12:06,94118,2,task-b5vt,NA,23522626,6893770,NA,complete,NA,62f0ec0aece280f438921be0,computer,Desktop or Laptop,Chromium OS 14816.131.0,Chrome 103.0.0.0,1536x864,1536x746,NA,ITT Ratings,2,against,1,NA,NA,NA,NA,NA,NA,NA,NA,NA,ACCEPT,batch1pro,batch1pro,13,24,1,Screen 1,continueButton,response_rating_scale_likert_active,5891.6,NA,NA,Disagree,1,0,1,0,NA,NA,NA,NA,1,statements,It's important to protect the people you love who are a higher risk than you,1,17/06/2021 12:34,17/06/2021 12:40,IP Address,For (I feel positively about the vaccines),Rarely,Most weeks,26,Female,NA,"Undergraduate degree (BSc, BA)",choice,2,1,For,For
27,1659960000000,08/08/2022 11:07,1659960000000,1,08/08/2022 12:06,94118,2,task-b5vt,NA,23522626,6893770,NA,complete,NA,62f0ec0aece280f438921be0,computer,Desktop or Laptop,Chromium OS 14816.131.0,Chrome 103.0.0.0,1536x864,1536x746,NA,ITT Ratings,2,against,1,NA,NA,NA,NA,NA,NA,NA,NA,NA,ACCEPT,batch1pro,batch1pro,25,25,1,Screen 1,continueButton,response_rating_scale_likert_active,2963.8,NA,NA,Strongly Disagree,1,0,1,0,NA,NA,NA,NA,1,statements,It's been tried and tested and has been approved by many doctors around the world,1,17/06/2021 12:33,17/06/2021 12:41,IP Address,For (I feel positively about the vaccines),Most months,Most months,20,Female,NA,"Undergraduate degree (BSc, BA),Postgraduate degree (MSc, MA, MPhil)",control,4,1,For,For
28,1659960000000,08/08/2022 11:07,1659960000000,1,08/08/2022 12:06,94118,2,task-b5vt,NA,23522626,6893770,NA,complete,NA,62f0ec0aece280f438921be0,computer,Desktop or Laptop,Chromium OS 14816.131.0,Chrome 103.0.0.0,1536x864,1536x746,NA,ITT Ratings,2,against,1,NA,NA,NA,NA,NA,NA,NA,NA,NA,ACCEPT,batch1pro,batch1pro,45,26,1,Screen 1,continueButton,response_rating_scale_likert_active,2128.6,NA,NA,Strongly Disagree,1,0,1,0,NA,NA,NA,NA,1,statements,The risk of dying from covid reduces with a vaccine.,1,17/06/2021 12:35,17/06/2021 12:42,IP Address,For (I feel positively about the vaccines),Once or twice a year,A few times a year,20,Female,NA,"GCSEs,A levels",control,7,3,For,For
29,1659960000000,08/08/2022 11:07,1659960000000,1,08/08/2022 12:06,94118,2,task-b5vt,NA,23522626,6893770,NA,complete,NA,62f0ec0aece280f438921be0,computer,Desktop or Laptop,Chromium OS 14816.131.0,Chrome 103.0.0.0,1536x864,1536x746,NA,ITT Ratings,2,against,1,NA,NA,NA,NA,NA,NA,NA,NA,NA,ACCEPT,batch1pro,batch1pro,57,27,1,Screen 1,continueButton,response_rating_scale_likert_active,1576,NA,NA,Strongly Disagree,1,0,1,0,NA,NA,NA,NA,1,statements,Being vaccinated is reassuring,1,17/06/2021 12:36,17/06/2021 12:43,IP Address,For (I feel positively about the vaccines),Rarely,Most days,38,Male,NA,"GCSEs,Vocational Training / Apprenticeship",choice,9,3,For,For
30,1659960000000,08/08/2022 11:07,1659960000000,1,08/08/2022 12:06,94118,2,task-b5vt,NA,23522626,6893770,NA,complete,NA,62f0ec0aece280f438921be0,computer,Desktop or Laptop,Chromium OS 14816.131.0,Chrome 103.0.0.0,1536x864,1536x746,NA,ITT Ratings,2,against,1,NA,NA,NA,NA,NA,NA,NA,NA,NA,ACCEPT,batch1pro,batch1pro,38,28,1,Screen 1,continueButton,response_rating_scale_likert_active,2612,NA,NA,Strongly Disagree,1,0,1,0,NA,NA,NA,NA,1,statements,"A member of my family can catch anything really easily , so I want to do this to help keep them safe",1,17/06/2021 12:16,17/06/2021 12:42,IP Address,For (I feel positively about the vaccines),Rarely,Most days,34,Male,NA,GCSEs,control,6,2,For,For
31,1659960000000,08/08/2022 11:07,1659960000000,1,08/08/2022 12:06,94118,2,task-b5vt,NA,23522626,6893770,NA,complete,NA,62f0ec0aece280f438921be0,computer,Desktop or Laptop,Chromium OS 14816.131.0,Chrome 103.0.0.0,1536x864,1536x746,NA,ITT Ratings,2,against,1,NA,NA,NA,NA,NA,NA,NA,NA,NA,ACCEPT,batch1pro,batch1pro,18,29,1,Screen 1,continueButton,response_rating_scale_likert_active,2864.2,NA,NA,Somewhat Agree,1,0,1,0,NA,NA,NA,NA,1,statements,Unless everyone has it then what is the point,1,17/06/2021 12:29,17/06/2021 12:41,IP Address,For (I feel positively about the vaccines),Rarely,A few times a year,55,Female,NA,A levels,choice,3,3,For,Against
32,1659960000000,08/08/2022 11:07,1659960000000,1,08/08/2022 12:07,94118,2,task-b5vt,NA,23522626,6893770,NA,complete,NA,62f0ec0aece280f438921be0,computer,Desktop or Laptop,Chromium OS 14816.131.0,Chrome 103.0.0.0,1536x864,1536x746,NA,ITT Ratings,2,against,1,NA,NA,NA,NA,NA,NA,NA,NA,NA,ACCEPT,batch1pro,batch1pro,49,30,1,Screen 1,continueButton,response_rating_scale_likert_active,1947.1,NA,NA,Somewhat Disagree,1,0,1,0,NA,NA,NA,NA,1,statements,To gain immunity against COVID 19.,1,17/06/2021 12:29,17/06/2021 12:42,IP Address,For (I feel positively about the vaccines),Most months,Most months,20,Male,NA,A levels,choice,8,1,For,For
33,1659960000000,08/08/2022 11:07,1659960000000,1,08/08/2022 12:07,94118,2,task-b5vt,NA,23522626,6893770,NA,complete,NA,62f0ec0aece280f438921be0,computer,Desktop or Laptop,Chromium OS 14816.131.0,Chrome 103.0.0.0,1536x864,1536x746,NA,ITT Ratings,2,against,1,NA,NA,NA,NA,NA,NA,NA,NA,NA,ACCEPT,batch1pro,batch1pro,24,31,1,Screen 1,continueButton,response_rating_scale_likert_active,2500.3,NA,NA,Neither Agree nor Disagree,1,0,1,0,NA,NA,NA,NA,1,statements,There are too many on the market at the moment,1,17/06/2021 12:33,17/06/2021 12:41,IP Address,For (I feel positively about the vaccines),Most months,Most months,20,Female,NA,"Undergraduate degree (BSc, BA),Postgraduate degree (MSc, MA, MPhil)",control,4,3,For,Against
34,1659960000000,08/08/2022 11:07,1659960000000,1,08/08/2022 12:07,94118,2,task-b5vt,NA,23522626,6893770,NA,complete,NA,62f0ec0aece280f438921be0,computer,Desktop or Laptop,Chromium OS 14816.131.0,Chrome 103.0.0.0,1536x864,1536x746,NA,ITT Ratings,2,against,1,NA,NA,NA,NA,NA,NA,NA,NA,NA,ACCEPT,batch1pro,batch1pro,21,32,1,Screen 1,continueButton,response_rating_scale_likert_active,2099.5,NA,NA,Somewhat Disagree,1,0,1,0,NA,NA,NA,NA,1,statements,I want to help in defeating this virus,1,17/06/2021 12:29,17/06/2021 12:41,IP Address,For (I feel positively about the vaccines),Rarely,A few times a year,55,Female,NA,A levels,choice,3,3,For,For
35,1659960000000,08/08/2022 11:07,1659960000000,1,08/08/2022 12:07,94118,2,task-b5vt,NA,23522626,6893770,NA,complete,NA,62f0ec0aece280f438921be0,computer,Desktop or Laptop,Chromium OS 14816.131.0,Chrome 103.0.0.0,1536x864,1536x746,NA,ITT Ratings,2,against,1,NA,NA,NA,NA,NA,NA,NA,NA,NA,ACCEPT,batch1pro,batch1pro,41,33,1,Screen 1,continueButton,response_rating_scale_likert_active,3387.9,NA,NA,Strongly Disagree,1,0,1,0,NA,NA,NA,NA,1,statements,The vaccines contain trackers that allow the government to control us.,1,17/06/2021 12:35,17/06/2021 12:42,IP Address,For (I feel positively about the vaccines),Once or twice a year,A few times a year,20,Female,NA,"GCSEs,A levels",control,7,2,For,Against
36,1659960000000,08/08/2022 11:07,1659960000000,1,08/08/2022 12:07,94118,2,task-b5vt,NA,23522626,6893770,NA,complete,NA,62f0ec0aece280f438921be0,computer,Desktop or Laptop,Chromium OS 14816.131.0,Chrome 103.0.0.0,1536x864,1536x746,NA,ITT Ratings,2,against,1,NA,NA,NA,NA,NA,NA,NA,NA,NA,ACCEPT,batch1pro,batch1pro,59,34,1,Screen 1,continueButton,response_rating_scale_likert_active,6215,NA,NA,Strongly Agree,1,0,1,0,NA,NA,NA,NA,1,statements,Concerns about the truthfulness of the pandemic and the true motivations behind mass vaccination.,1,17/06/2021 13:01,17/06/2021 13:10,IP Address,For (I feel positively about the vaccines),Most months,Most weeks,35,Non-binary,NA,"Postgraduate degree (MSc, MA, MPhil)",control,10,2,For,Against
37,1659960000000,08/08/2022 11:07,1659960000000,1,08/08/2022 12:07,94118,2,task-b5vt,NA,23522626,6893770,NA,complete,NA,62f0ec0aece280f438921be0,computer,Desktop or Laptop,Chromium OS 14816.131.0,Chrome 103.0.0.0,1536x864,1536x746,NA,ITT Ratings,2,against,1,NA,NA,NA,NA,NA,NA,NA,NA,NA,ACCEPT,batch1pro,batch1pro,20,35,1,Screen 1,continueButton,response_rating_scale_likert_active,2954.2,NA,NA,Neither Agree nor Disagree,1,0,1,0,NA,NA,NA,NA,1,statements,I want to help society,1,17/06/2021 12:29,17/06/2021 12:41,IP Address,For (I feel positively about the vaccines),Rarely,A few times a year,55,Female,NA,A levels,choice,3,2,For,For
38,1659960000000,08/08/2022 11:07,1659960000000,1,08/08/2022 12:07,94118,2,task-b5vt,NA,23522626,6893770,NA,complete,NA,62f0ec0aece280f438921be0,computer,Desktop or Laptop,Chromium OS 14816.131.0,Chrome 103.0.0.0,1536x864,1536x746,NA,ITT Ratings,2,against,1,NA,NA,NA,NA,NA,NA,NA,NA,NA,ACCEPT,batch1pro,batch1pro,44,36,1,Screen 1,continueButton,response_rating_scale_likert_active,2269.2,NA,NA,Somewhat Disagree,1,0,1,0,NA,NA,NA,NA,1,statements,It will help to protect the most vulnerable groups in our society.,1,17/06/2021 12:35,17/06/2021 12:42,IP Address,For (I feel positively about the vaccines),Once or twice a year,A few times a year,20,Female,NA,"GCSEs,A levels",control,7,2,For,For
39,1659960000000,08/08/2022 11:07,1659960000000,1,08/08/2022 12:07,94118,2,task-b5vt,NA,23522626,6893770,NA,complete,NA,62f0ec0aece280f438921be0,computer,Desktop or Laptop,Chromium OS 14816.131.0,Chrome 103.0.0.0,1536x864,1536x746,NA,ITT Ratings,2,against,1,NA,NA,NA,NA,NA,NA,NA,NA,NA,ACCEPT,batch1pro,batch1pro,30,37,1,Screen 1,continueButton,response_rating_scale_likert_active,5529.1,NA,NA,Somewhat Agree,1,0,1,0,NA,NA,NA,NA,1,statements,The risks of side effects to su h as blood clots with vaccines are too high.,1,17/06/2021 12:31,17/06/2021 12:41,IP Address,For (I feel positively about the vaccines),Rarely,A few times a year,31,Female,NA,"Undergraduate degree (BSc, BA)",choice,5,3,For,Against
40,1659960000000,08/08/2022 11:07,1659960000000,1,08/08/2022 12:07,94118,2,task-b5vt,NA,23522626,6893770,NA,complete,NA,62f0ec0aece280f438921be0,computer,Desktop or Laptop,Chromium OS 14816.131.0,Chrome 103.0.0.0,1536x864,1536x746,NA,ITT Ratings,2,against,1,NA,NA,NA,NA,NA,NA,NA,NA,NA,ACCEPT,batch1pro,batch1pro,43,38,1,Screen 1,continueButton,response_rating_scale_likert_active,5096.3,NA,NA,Strongly Disagree,1,0,1,0,NA,NA,NA,NA,1,statements,It is the only way we can effectively eliminate the virus from the world.,1,17/06/2021 12:35,17/06/2021 12:42,IP Address,For (I feel positively about the vaccines),Once or twice a year,A few times a year,20,Female,NA,"GCSEs,A levels",control,7,1,For,For
41,1659960000000,08/08/2022 11:07,1659960000000,1,08/08/2022 12:07,94118,2,task-b5vt,NA,23522626,6893770,NA,complete,NA,62f0ec0aece280f438921be0,computer,Desktop or Laptop,Chromium OS 14816.131.0,Chrome 103.0.0.0,1536x864,1536x746,NA,ITT Ratings,2,against,1,NA,NA,NA,NA,NA,NA,NA,NA,NA,ACCEPT,batch1pro,batch1pro,17,39,1,Screen 1,continueButton,response_rating_scale_likert_active,2712,NA,NA,Strongly Agree,1,0,1,0,NA,NA,NA,NA,1,statements,Future side effects are unknown,1,17/06/2021 12:29,17/06/2021 12:41,IP Address,For (I feel positively about the vaccines),Rarely,A few times a year,55,Female,NA,A levels,choice,3,2,For,Against
42,1659960000000,08/08/2022 11:07,1659960000000,1,08/08/2022 12:07,94118,2,task-b5vt,NA,23522626,6893770,NA,complete,NA,62f0ec0aece280f438921be0,computer,Desktop or Laptop,Chromium OS 14816.131.0,Chrome 103.0.0.0,1536x864,1536x746,NA,ITT Ratings,2,against,1,NA,NA,NA,NA,NA,NA,NA,NA,NA,ACCEPT,batch1pro,batch1pro,46,40,1,Screen 1,continueButton,response_rating_scale_likert_active,2348.4,NA,NA,Disagree,1,0,1,0,NA,NA,NA,NA,1,statements,The government is trying to microchip me,1,17/06/2021 12:29,17/06/2021 12:42,IP Address,For (I feel positively about the vaccines),Most months,Most months,20,Male,NA,A levels,choice,8,1,For,Against
43,1659960000000,08/08/2022 11:07,1659960000000,1,08/08/2022 12:07,94118,2,task-b5vt,NA,23522626,6893770,NA,complete,NA,62f0ec0aece280f438921be0,computer,Desktop or Laptop,Chromium OS 14816.131.0,Chrome 103.0.0.0,1536x864,1536x746,NA,ITT Ratings,2,against,1,NA,NA,NA,NA,NA,NA,NA,NA,NA,ACCEPT,batch1pro,batch1pro,8,41,1,Screen 1,continueButton,response_rating_scale_likert_active,1301.6,NA,NA,Disagree,1,0,1,0,NA,NA,NA,NA,1,statements,I want to protect my family and be able to see them again,1,17/06/2021 12:34,17/06/2021 12:39,IP Address,For (I feel positively about the vaccines),Rarely,A few times a year,26,Female,NA,"Undergraduate degree (BSc, BA)",control,1,2,For,For
44,1659960000000,08/08/2022 11:07,1659960000000,1,08/08/2022 12:07,94118,2,task-b5vt,NA,23522626,6893770,NA,complete,NA,62f0ec0aece280f438921be0,computer,Desktop or Laptop,Chromium OS 14816.131.0,Chrome 103.0.0.0,1536x864,1536x746,NA,ITT Ratings,2,against,1,NA,NA,NA,NA,NA,NA,NA,NA,NA,ACCEPT,batch1pro,batch1pro,16,42,1,Screen 1,continueButton,response_rating_scale_likert_active,1866.1,NA,NA,Strongly Agree,1,0,1,0,NA,NA,NA,NA,1,statements,Hasn't been tested for long enough,1,17/06/2021 12:29,17/06/2021 12:41,IP Address,For (I feel positively about the vaccines),Rarely,A few times a year,55,Female,NA,A levels,choice,3,1,For,Against
45,1659960000000,08/08/2022 11:07,1659960000000,1,08/08/2022 12:07,94118,2,task-b5vt,NA,23522626,6893770,NA,complete,NA,62f0ec0aece280f438921be0,computer,Desktop or Laptop,Chromium OS 14816.131.0,Chrome 103.0.0.0,1536x864,1536x746,NA,ITT Ratings,2,against,1,NA,NA,NA,NA,NA,NA,NA,NA,NA,ACCEPT,batch1pro,batch1pro,50,43,1,Screen 1,continueButton,response_rating_scale_likert_active,2239.8,NA,NA,Disagree,1,0,1,0,NA,NA,NA,NA,1,statements,To protect others by giving herd immunity.,1,17/06/2021 12:29,17/06/2021 12:42,IP Address,For (I feel positively about the vaccines),Most months,Most months,20,Male,NA,A levels,choice,8,2,For,For
46,1659960000000,08/08/2022 11:07,1659960000000,1,08/08/2022 12:07,94118,2,task-b5vt,NA,23522626,6893770,NA,complete,NA,62f0ec0aece280f438921be0,computer,Desktop or Laptop,Chromium OS 14816.131.0,Chrome 103.0.0.0,1536x864,1536x746,NA,ITT Ratings,2,against,1,NA,NA,NA,NA,NA,NA,NA,NA,NA,ACCEPT,batch1pro,batch1pro,56,44,1,Screen 1,continueButton,response_rating_scale_likert_active,1775.5,NA,NA,Disagree,1,0,1,0,NA,NA,NA,NA,1,statements,The vaccines are safe enough to use,1,17/06/2021 12:36,17/06/2021 12:43,IP Address,For (I feel positively about the vaccines),Rarely,Most days,38,Male,NA,"GCSEs,Vocational Training / Apprenticeship",choice,9,2,For,For
47,1659960000000,08/08/2022 11:07,1659960000000,1,08/08/2022 12:07,94118,2,task-b5vt,NA,23522626,6893770,NA,complete,NA,62f0ec0aece280f438921be0,computer,Desktop or Laptop,Chromium OS 14816.131.0,Chrome 103.0.0.0,1536x864,1536x746,NA,ITT Ratings,2,against,1,NA,NA,NA,NA,NA,NA,NA,NA,NA,ACCEPT,batch1pro,batch1pro,42,45,1,Screen 1,continueButton,response_rating_scale_likert_active,2530.9,NA,NA,Somewhat Agree,1,0,1,0,NA,NA,NA,NA,1,statements,They are unsafe and can cause long-term effects.,1,17/06/2021 12:35,17/06/2021 12:42,IP Address,For (I feel positively about the vaccines),Once or twice a year,A few times a year,20,Female,NA,"GCSEs,A levels",control,7,3,For,Against
48,1659960000000,08/08/2022 11:07,1659960000000,1,08/08/2022 12:07,94118,2,task-b5vt,NA,23522626,6893770,NA,complete,NA,62f0ec0aece280f438921be0,computer,Desktop or Laptop,Chromium OS 14816.131.0,Chrome 103.0.0.0,1536x864,1536x746,NA,ITT Ratings,2,against,1,NA,NA,NA,NA,NA,NA,NA,NA,NA,ACCEPT,batch1pro,batch1pro,31,46,1,Screen 1,continueButton,response_rating_scale_likert_active,3627.8,NA,NA,Disagree,1,0,1,0,NA,NA,NA,NA,1,statements,They wish for life to return to normal and the best way to achieve this is maximum uptake,1,17/06/2021 12:31,17/06/2021 12:41,IP Address,For (I feel positively about the vaccines),Rarely,A few times a year,31,Female,NA,"Undergraduate degree (BSc, BA)",choice,5,1,For,For
49,1659960000000,08/08/2022 11:07,1659960000000,1,08/08/2022 12:07,94118,2,task-b5vt,NA,23522626,6893770,NA,complete,NA,62f0ec0aece280f438921be0,computer,Desktop or Laptop,Chromium OS 14816.131.0,Chrome 103.0.0.0,1536x864,1536x746,NA,ITT Ratings,2,against,1,NA,NA,NA,NA,NA,NA,NA,NA,NA,ACCEPT,batch1pro,batch1pro,52,47,1,Screen 1,continueButton,response_rating_scale_likert_active,2663.6,NA,NA,Neither Agree nor Disagree,1,0,1,0,NA,NA,NA,NA,1,statements,The covid 19 vaccines are a conspiracy,1,17/06/2021 12:36,17/06/2021 12:43,IP Address,For (I feel positively about the vaccines),Rarely,Most days,38,Male,NA,"GCSEs,Vocational Training / Apprenticeship",choice,9,1,For,Against
50,1659960000000,08/08/2022 11:07,1659960000000,1,08/08/2022 12:07,94118,2,task-b5vt,NA,23522626,6893770,NA,complete,NA,62f0ec0aece280f438921be0,computer,Desktop or Laptop,Chromium OS 14816.131.0,Chrome 103.0.0.0,1536x864,1536x746,NA,ITT Ratings,2,against,1,NA,NA,NA,NA,NA,NA,NA,NA,NA,ACCEPT,batch1pro,batch1pro,55,48,1,Screen 1,continueButton,response_rating_scale_likert_active,2459.9,NA,NA,Strongly Disagree,1,0,1,0,NA,NA,NA,NA,1,statements,It's essential to be vaccinated to regain normality.,1,17/06/2021 12:36,17/06/2021 12:43,IP Address,For (I feel positively about the vaccines),Rarely,Most days,38,Male,NA,"GCSEs,Vocational Training / Apprenticeship",choice,9,1,For,For
51,1659960000000,08/08/2022 11:08,1659960000000,1,08/08/2022 12:08,94118,2,task-b5vt,NA,23522626,6893770,NA,complete,NA,62f0ec0aece280f438921be0,computer,Desktop or Laptop,Chromium OS 14816.131.0,Chrome 103.0.0.0,1536x864,1536x746,NA,ITT Ratings,2,against,1,NA,NA,NA,NA,NA,NA,NA,NA,NA,ACCEPT,batch1pro,batch1pro,37,49,1,Screen 1,continueButton,response_rating_scale_likert_active,5511.1,NA,NA,Neither Agree nor Disagree,1,0,1,0,NA,NA,NA,NA,1,statements,I am scared and if this vaccine will help then I'll do it,1,17/06/2021 12:16,17/06/2021 12:42,IP Address,For (I feel positively about the vaccines),Rarely,Most days,34,Male,NA,GCSEs,control,6,1,For,For
52,1659960000000,08/08/2022 11:08,1659960000000,1,08/08/2022 12:08,94118,2,task-b5vt,NA,23522626,6893770,NA,complete,NA,62f0ec0aece280f438921be0,computer,Desktop or Laptop,Chromium OS 14816.131.0,Chrome 103.0.0.0,1536x864,1536x746,NA,ITT Ratings,2,against,1,NA,NA,NA,NA,NA,NA,NA,NA,NA,ACCEPT,batch1pro,batch1pro,4,50,1,Screen 1,continueButton,response_rating_scale_likert_active,1995.4,NA,NA,Strongly Agree,1,0,1,0,NA,NA,NA,NA,1,statements,"It was developed too quickly, I think they should have taken more time on it",1,17/06/2021 12:34,17/06/2021 12:39,IP Address,For (I feel positively about the vaccines),Rarely,A few times a year,26,Female,NA,"Undergraduate degree (BSc, BA)",control,1,1,For,Against
53,1659960000000,08/08/2022 11:08,1659960000000,1,08/08/2022 12:08,94118,2,task-b5vt,NA,23522626,6893770,NA,complete,NA,62f0ec0aece280f438921be0,computer,Desktop or Laptop,Chromium OS 14816.131.0,Chrome 103.0.0.0,1536x864,1536x746,NA,ITT Ratings,2,against,1,NA,NA,NA,NA,NA,NA,NA,NA,NA,ACCEPT,batch1pro,batch1pro,10,51,1,Screen 1,continueButton,response_rating_scale_likert_active,4835,NA,NA,Strongly Disagree,1,0,1,0,NA,NA,NA,NA,1,statements,I am one of those idiots who thinks I will become magnetic or have trackers in me,1,17/06/2021 12:34,17/06/2021 12:40,IP Address,For (I feel positively about the vaccines),Rarely,Most weeks,26,Female,NA,"Undergraduate degree (BSc, BA)",choice,2,1,For,Against
54,1659960000000,08/08/2022 11:08,1659960000000,1,08/08/2022 12:08,94118,2,task-b5vt,NA,23522626,6893770,NA,complete,NA,62f0ec0aece280f438921be0,computer,Desktop or Laptop,Chromium OS 14816.131.0,Chrome 103.0.0.0,1536x864,1536x746,NA,ITT Ratings,2,against,1,NA,NA,NA,NA,NA,NA,NA,NA,NA,ACCEPT,batch1pro,batch1pro,22,52,1,Screen 1,continueButton,response_rating_scale_likert_active,3395.2,NA,NA,Strongly Agree,1,0,1,0,NA,NA,NA,NA,1,statements,It's not qualified or tested enough,1,17/06/2021 12:33,17/06/2021 12:41,IP Address,For (I feel positively about the vaccines),Most months,Most months,20,Female,NA,"Undergraduate degree (BSc, BA),Postgraduate degree (MSc, MA, MPhil)",control,4,1,For,Against
55,1659960000000,08/08/2022 11:08,1659960000000,1,08/08/2022 12:08,94118,2,task-b5vt,NA,23522626,6893770,NA,complete,NA,62f0ec0aece280f438921be0,computer,Desktop or Laptop,Chromium OS 14816.131.0,Chrome 103.0.0.0,1536x864,1536x746,NA,ITT Ratings,2,against,1,NA,NA,NA,NA,NA,NA,NA,NA,NA,ACCEPT,batch1pro,batch1pro,40,53,1,Screen 1,continueButton,response_rating_scale_likert_active,2304.5,NA,NA,Strongly Agree,1,0,1,0,NA,NA,NA,NA,1,statements,They believe we have not had enough time to develop an effective vaccine.,1,17/06/2021 12:35,17/06/2021 12:42,IP Address,For (I feel positively about the vaccines),Once or twice a year,A few times a year,20,Female,NA,"GCSEs,A levels",control,7,1,For,Against
56,1659960000000,08/08/2022 11:08,1659960000000,1,08/08/2022 12:08,94118,2,task-b5vt,NA,23522626,6893770,NA,complete,NA,62f0ec0aece280f438921be0,computer,Desktop or Laptop,Chromium OS 14816.131.0,Chrome 103.0.0.0,1536x864,1536x746,NA,ITT Ratings,2,against,1,NA,NA,NA,NA,NA,NA,NA,NA,NA,ACCEPT,batch1pro,batch1pro,48,54,1,Screen 1,continueButton,response_rating_scale_likert_active,1460.4,NA,NA,Strongly Agree,1,0,1,0,NA,NA,NA,NA,1,statements,I'm young and healthy so why should I get vaccinated?,1,17/06/2021 12:29,17/06/2021 12:42,IP Address,For (I feel positively about the vaccines),Most months,Most months,20,Male,NA,A levels,choice,8,3,For,Against
57,1659960000000,08/08/2022 11:08,1659960000000,1,08/08/2022 12:08,94118,2,task-b5vt,NA,23522626,6893770,NA,complete,NA,62f0ec0aece280f438921be0,computer,Desktop or Laptop,Chromium OS 14816.131.0,Chrome 103.0.0.0,1536x864,1536x746,NA,ITT Ratings,2,against,1,NA,NA,NA,NA,NA,NA,NA,NA,NA,ACCEPT,batch1pro,batch1pro,3,55,1,Screen 1,continueButton,response_rating_scale_likert_active,5468.6,NA,NA,Somewhat Disagree,1,0,1,0,NA,NA,NA,NA,1,statements,We would like to check you are reading each argument carefully. Please select 'Somewhat Disagree' for this answer,1,NA,NA,NA,NA,NA,NA,NA,NA,NA,NA,NA,NA,check2,NA,NA
58,1659960000000,08/08/2022 11:08,1659960000000,1,08/08/2022 12:08,94118,2,task-b5vt,NA,23522626,6893770,NA,complete,NA,62f0ec0aece280f438921be0,computer,Desktop or Laptop,Chromium OS 14816.131.0,Chrome 103.0.0.0,1536x864,1536x746,NA,ITT Ratings,2,against,1,NA,NA,NA,NA,NA,NA,NA,NA,NA,ACCEPT,batch1pro,batch1pro,51,56,1,Screen 1,continueButton,response_rating_scale_likert_active,4280.6,NA,NA,Disagree,1,0,1,0,NA,NA,NA,NA,1,statements,To help end the negative social impact of the virus such as lockdowns and online education,1,17/06/2021 12:29,17/06/2021 12:42,IP Address,For (I feel positively about the vaccines),Most months,Most months,20,Male,NA,A levels,choice,8,3,For,For
59,1659960000000,08/08/2022 11:08,1659960000000,1,08/08/2022 12:08,94118,2,task-b5vt,NA,23522626,6893770,NA,complete,NA,62f0ec0aece280f438921be0,computer,Desktop or Laptop,Chromium OS 14816.131.0,Chrome 103.0.0.0,1536x864,1536x746,NA,ITT Ratings,2,against,1,NA,NA,NA,NA,NA,NA,NA,NA,NA,ACCEPT,batch1pro,batch1pro,2,57,1,Screen 1,continueButton,response_rating_scale_likert_active,4187.4,NA,NA,Somewhat Agree,1,0,1,0,NA,NA,NA,NA,1,statements,We would like to check you are reading each argument carefully. Please select 'Somewhat Agree' for this answer,1,NA,NA,NA,NA,NA,NA,NA,NA,NA,NA,NA,NA,check1,NA,NA
60,1659960000000,08/08/2022 11:08,1659960000000,1,08/08/2022 12:08,94118,2,task-b5vt,NA,23522626,6893770,NA,complete,NA,62f0ec0aece280f438921be0,computer,Desktop or Laptop,Chromium OS 14816.131.0,Chrome 103.0.0.0,1536x864,1536x746,NA,ITT Ratings,2,against,1,NA,NA,NA,NA,NA,NA,NA,NA,NA,ACCEPT,batch1pro,batch1pro,19,58,1,Screen 1,continueButton,response_rating_scale_likert_active,2311.7,NA,NA,Disagree,1,0,1,0,NA,NA,NA,NA,1,statements,I want to have it for my own and my family’s protection,1,17/06/2021 12:29,17/06/2021 12:41,IP Address,For (I feel positively about the vaccines),Rarely,A few times a year,55,Female,NA,A levels,choice,3,1,For,For
61,1659960000000,08/08/2022 11:08,1659960000000,1,08/08/2022 12:08,94118,2,task-b5vt,NA,23522626,6893770,NA,complete,NA,62f0ec0aece280f438921be0,computer,Desktop or Laptop,Chromium OS 14816.131.0,Chrome 103.0.0.0,1536x864,1536x746,NA,ITT Ratings,2,against,1,NA,NA,NA,NA,NA,NA,NA,NA,NA,ACCEPT,batch1pro,batch1pro,12,59,1,Screen 1,continueButton,response_rating_scale_likert_active,1848.1,NA,NA,Disagree,1,0,1,0,NA,NA,NA,NA,1,statements,I think that the vaccine is fake,1,17/06/2021 12:34,17/06/2021 12:40,IP Address,For (I feel positively about the vaccines),Rarely,Most weeks,26,Female,NA,"Undergraduate degree (BSc, BA)",choice,2,3,For,Against
62,1659960000000,08/08/2022 11:08,1659960000000,1,08/08/2022 12:08,94118,2,task-b5vt,NA,23522626,6893770,NA,complete,NA,62f0ec0aece280f438921be0,computer,Desktop or Laptop,Chromium OS 14816.131.0,Chrome 103.0.0.0,1536x864,1536x746,NA,ITT Ratings,2,against,1,NA,NA,NA,NA,NA,NA,NA,NA,NA,ACCEPT,batch1pro,batch1pro,15,60,1,Screen 1,continueButton,response_rating_scale_likert_active,1466.3,NA,NA,Disagree,1,0,1,0,NA,NA,NA,NA,1,statements,"Vaccines are important, they help us all live safely and healthily",1,17/06/2021 12:34,17/06/2021 12:40,IP Address,For (I feel positively about the vaccines),Rarely,Most weeks,26,Female,NA,"Undergraduate degree (BSc, BA)",choice,2,3,For,For
63,1659960000000,08/08/2022 11:08,1659960000000,1,08/08/2022 12:08,94118,2,task-b5vt,NA,23522626,6893770,NA,complete,NA,62f0ec0aece280f438921be0,computer,Desktop or Laptop,Chromium OS 14816.131.0,Chrome 103.0.0.0,1536x864,1536x746,NA,ITT Ratings,2,against,1,NA,NA,NA,NA,NA,NA,NA,NA,NA,ACCEPT,batch1pro,batch1pro,27,61,1,Screen 1,continueButton,response_rating_scale_likert_active,2401,NA,NA,Somewhat Agree,1,0,1,0,NA,NA,NA,NA,1,statements,Doctors are trying to help,1,17/06/2021 12:33,17/06/2021 12:41,IP Address,For (I feel positively about the vaccines),Most months,Most months,20,Female,NA,"Undergraduate degree (BSc, BA),Postgraduate degree (MSc, MA, MPhil)",control,4,3,For,For
64,1659960000000,08/08/2022 11:08,1659960000000,1,08/08/2022 12:08,94118,2,task-b5vt,NA,23522626,6893770,NA,complete,NA,62f0ec0aece280f438921be0,computer,Desktop or Laptop,Chromium OS 14816.131.0,Chrome 103.0.0.0,1536x864,1536x746,NA,ITT Ratings,2,against,1,NA,NA,NA,NA,NA,NA,NA,NA,NA,ACCEPT,batch1pro,batch1pro,61,62,1,Screen 1,continueButton,response_rating_scale_likert_active,1980.5,NA,NA,Somewhat Disagree,1,0,1,0,NA,NA,NA,NA,1,statements,Reduced risk of getting COVID.,1,17/06/2021 13:01,17/06/2021 13:10,IP Address,For (I feel positively about the vaccines),Most months,Most weeks,35,Non-binary,NA,"Postgraduate degree (MSc, MA, MPhil)",control,10,1,For,For
65,1659960000000,08/08/2022 11:08,1659960000000,1,08/08/2022 12:08,94118,2,task-b5vt,NA,23522626,6893770,NA,complete,NA,62f0ec0aece280f438921be0,computer,Desktop or Laptop,Chromium OS 14816.131.0,Chrome 103.0.0.0,1536x864,1536x746,NA,ITT Ratings,2,against,1,NA,NA,NA,NA,NA,NA,NA,NA,NA,ACCEPT,batch1pro,NA,NA,END TASK,NA,NA,NA,NA,193756,NA,NA,NA,NA,0,1,0,NA,NA,NA,NA,NA,NA,NA,NA,NA,NA,NA,NA,NA,NA,NA,NA,NA,NA,NA,NA,NA,NA,NA
1,1659960000000,08/08/2022 11:27,1659960000000,1,08/08/2022 12:28,94118,2,task-b5vt,NA,23522951,6893821,NA,complete,NA,62f0f053b9022afa37127e3b,mobile,Motorola moto e(6) plus,Android 9,Chrome WebView 103.0.5060.129,892x412,811x379,NA,ITT Ratings,2,against,1,NA,NA,NA,NA,NA,NA,NA,NA,NA,ACCEPT,batch1pro,NA,NA,BEGIN TASK,NA,NA,NA,NA,NA,NA,NA,NA,NA,0,1,0,NA,NA,NA,NA,NA,NA,NA,NA,NA,NA,NA,NA,NA,NA,NA,NA,NA,NA,NA,NA,NA,NA,NA
2,1659960000000,08/08/2022 11:28,1659960000000,1,08/08/2022 12:28,94118,2,task-b5vt,NA,23522951,6893821,NA,complete,NA,62f0f053b9022afa37127e3b,mobile,Motorola moto e(6) plus,Android 9,Chrome WebView 103.0.5060.129,892x412,811x379,NA,ITT Ratings,2,against,1,NA,NA,NA,NA,NA,NA,NA,NA,NA,ACCEPT,batch1pro,batch1pro,1,1,1,Screen 1,advancementZone,continue_button,31878.9,NA,NA,NA,NA,0,1,0,NA,NA,NA,NA,NA,instructions,NA,NA,NA,NA,NA,NA,NA,NA,NA,NA,NA,NA,NA,NA,NA,NA,NA
3,1659960000000,08/08/2022 11:29,1659960000000,1,08/08/2022 12:29,94118,2,task-b5vt,NA,23522951,6893821,NA,complete,NA,62f0f053b9022afa37127e3b,mobile,Motorola moto e(6) plus,Android 9,Chrome WebView 103.0.5060.129,892x412,811x379,NA,ITT Ratings,2,against,1,NA,NA,NA,NA,NA,NA,NA,NA,NA,ACCEPT,batch1pro,batch1pro,55,1,1,Screen 1,continueButton,response_rating_scale_likert_active,34224.1,NA,NA,Strongly Disagree,1,0,1,0,NA,NA,NA,NA,1,statements,It's essential to be vaccinated to regain normality.,1,17/06/2021 12:36,17/06/2021 12:43,IP Address,For (I feel positively about the vaccines),Rarely,Most days,38,Male,NA,"GCSEs,Vocational Training / Apprenticeship",choice,9,1,For,For
4,1659960000000,08/08/2022 11:29,1659960000000,1,08/08/2022 12:29,94118,2,task-b5vt,NA,23522951,6893821,NA,complete,NA,62f0f053b9022afa37127e3b,mobile,Motorola moto e(6) plus,Android 9,Chrome WebView 103.0.5060.129,892x412,811x379,NA,ITT Ratings,2,against,1,NA,NA,NA,NA,NA,NA,NA,NA,NA,ACCEPT,batch1pro,batch1pro,30,2,1,Screen 1,continueButton,response_rating_scale_likert_active,4886,NA,NA,Disagree,1,0,1,0,NA,NA,NA,NA,1,statements,The risks of side effects to su h as blood clots with vaccines are too high.,1,17/06/2021 12:31,17/06/2021 12:41,IP Address,For (I feel positively about the vaccines),Rarely,A few times a year,31,Female,NA,"Undergraduate degree (BSc, BA)",choice,5,3,For,Against
5,1659960000000,08/08/2022 11:29,1659960000000,1,08/08/2022 12:29,94118,2,task-b5vt,NA,23522951,6893821,NA,complete,NA,62f0f053b9022afa37127e3b,mobile,Motorola moto e(6) plus,Android 9,Chrome WebView 103.0.5060.129,892x412,811x379,NA,ITT Ratings,2,against,1,NA,NA,NA,NA,NA,NA,NA,NA,NA,ACCEPT,batch1pro,batch1pro,16,3,1,Screen 1,continueButton,response_rating_scale_likert_active,3748.6,NA,NA,Somewhat Agree,1,0,1,0,NA,NA,NA,NA,1,statements,Hasn't been tested for long enough,1,17/06/2021 12:29,17/06/2021 12:41,IP Address,For (I feel positively about the vaccines),Rarely,A few times a year,55,Female,NA,A levels,choice,3,1,For,Against
6,1659960000000,08/08/2022 11:29,1659960000000,1,08/08/2022 12:29,94118,2,task-b5vt,NA,23522951,6893821,NA,complete,NA,62f0f053b9022afa37127e3b,mobile,Motorola moto e(6) plus,Android 9,Chrome WebView 103.0.5060.129,892x412,811x379,NA,ITT Ratings,2,against,1,NA,NA,NA,NA,NA,NA,NA,NA,NA,ACCEPT,batch1pro,batch1pro,14,4,1,Screen 1,continueButton,response_rating_scale_likert_active,3046.1,NA,NA,Strongly Disagree,1,0,1,0,NA,NA,NA,NA,1,statements,It's one of the only ways we will return to normal life,1,17/06/2021 12:34,17/06/2021 12:40,IP Address,For (I feel positively about the vaccines),Rarely,Most weeks,26,Female,NA,"Undergraduate degree (BSc, BA)",choice,2,2,For,For
7,1659960000000,08/08/2022 11:29,1659960000000,1,08/08/2022 12:29,94118,2,task-b5vt,NA,23522951,6893821,NA,complete,NA,62f0f053b9022afa37127e3b,mobile,Motorola moto e(6) plus,Android 9,Chrome WebView 103.0.5060.129,892x412,811x379,NA,ITT Ratings,2,against,1,NA,NA,NA,NA,NA,NA,NA,NA,NA,ACCEPT,batch1pro,batch1pro,39,5,1,Screen 1,continueButton,response_rating_scale_likert_active,4390.5,NA,NA,Disagree,1,0,1,0,NA,NA,NA,NA,1,statements,Alot of people have died from getting Covid and I want to keep my self safe and I trust it,1,17/06/2021 12:16,17/06/2021 12:42,IP Address,For (I feel positively about the vaccines),Rarely,Most days,34,Male,NA,GCSEs,control,6,3,For,For
8,1659960000000,08/08/2022 11:29,1659960000000,1,08/08/2022 12:29,94118,2,task-b5vt,NA,23522951,6893821,NA,complete,NA,62f0f053b9022afa37127e3b,mobile,Motorola moto e(6) plus,Android 9,Chrome WebView 103.0.5060.129,892x412,811x379,NA,ITT Ratings,2,against,1,NA,NA,NA,NA,NA,NA,NA,NA,NA,ACCEPT,batch1pro,batch1pro,7,6,1,Screen 1,continueButton,response_rating_scale_likert_active,2551,NA,NA,Strongly Disagree,1,0,1,0,NA,NA,NA,NA,1,statements,It's the right thing to do to protect everyone else,1,17/06/2021 12:34,17/06/2021 12:39,IP Address,For (I feel positively about the vaccines),Rarely,A few times a year,26,Female,NA,"Undergraduate degree (BSc, BA)",control,1,1,For,For
9,1659960000000,08/08/2022 11:29,1659960000000,1,08/08/2022 12:29,94118,2,task-b5vt,NA,23522951,6893821,NA,complete,NA,62f0f053b9022afa37127e3b,mobile,Motorola moto e(6) plus,Android 9,Chrome WebView 103.0.5060.129,892x412,811x379,NA,ITT Ratings,2,against,1,NA,NA,NA,NA,NA,NA,NA,NA,NA,ACCEPT,batch1pro,batch1pro,58,7,1,Screen 1,continueButton,response_rating_scale_likert_active,4999.6,NA,NA,Somewhat Disagree,1,0,1,0,NA,NA,NA,NA,1,statements,"Concerns about dangerous side effects, such as blood clots and neurological damage.",1,17/06/2021 13:01,17/06/2021 13:10,IP Address,For (I feel positively about the vaccines),Most months,Most weeks,35,Non-binary,NA,"Postgraduate degree (MSc, MA, MPhil)",control,10,1,For,Against
10,1659960000000,08/08/2022 11:29,1659960000000,1,08/08/2022 12:29,94118,2,task-b5vt,NA,23522951,6893821,NA,complete,NA,62f0f053b9022afa37127e3b,mobile,Motorola moto e(6) plus,Android 9,Chrome WebView 103.0.5060.129,892x412,811x379,NA,ITT Ratings,2,against,1,NA,NA,NA,NA,NA,NA,NA,NA,NA,ACCEPT,batch1pro,batch1pro,35,8,1,Screen 1,continueButton,response_rating_scale_likert_active,4554.5,NA,NA,Agree,1,0,1,0,NA,NA,NA,NA,1,statements,Someone has told me there experience is bad which has now put me of the idear,1,17/06/2021 12:16,17/06/2021 12:42,IP Address,For (I feel positively about the vaccines),Rarely,Most days,34,Male,NA,GCSEs,control,6,2,For,Against
11,1659960000000,08/08/2022 11:29,1659960000000,1,08/08/2022 12:29,94118,2,task-b5vt,NA,23522951,6893821,NA,complete,NA,62f0f053b9022afa37127e3b,mobile,Motorola moto e(6) plus,Android 9,Chrome WebView 103.0.5060.129,892x412,811x379,NA,ITT Ratings,2,against,1,NA,NA,NA,NA,NA,NA,NA,NA,NA,ACCEPT,batch1pro,batch1pro,38,9,1,Screen 1,continueButton,response_rating_scale_likert_active,6164.8,NA,NA,Disagree,1,0,1,0,NA,NA,NA,NA,1,statements,"A member of my family can catch anything really easily , so I want to do this to help keep them safe",1,17/06/2021 12:16,17/06/2021 12:42,IP Address,For (I feel positively about the vaccines),Rarely,Most days,34,Male,NA,GCSEs,control,6,2,For,For
12,1659960000000,08/08/2022 11:29,1659960000000,1,08/08/2022 12:29,94118,2,task-b5vt,NA,23522951,6893821,NA,complete,NA,62f0f053b9022afa37127e3b,mobile,Motorola moto e(6) plus,Android 9,Chrome WebView 103.0.5060.129,892x412,811x379,NA,ITT Ratings,2,against,1,NA,NA,NA,NA,NA,NA,NA,NA,NA,ACCEPT,batch1pro,batch1pro,29,10,1,Screen 1,continueButton,response_rating_scale_likert_active,10569.6,NA,NA,Agree,1,0,1,0,NA,NA,NA,NA,1,statements,"The outcomes of the virus are not significant for that person, therefore the risk of the vaccine is greater than the risk of covid 19 side effects",1,17/06/2021 12:31,17/06/2021 12:41,IP Address,For (I feel positively about the vaccines),Rarely,A few times a year,31,Female,NA,"Undergraduate degree (BSc, BA)",choice,5,2,For,Against
13,1659960000000,08/08/2022 11:29,1659960000000,1,08/08/2022 12:29,94118,2,task-b5vt,NA,23522951,6893821,NA,complete,NA,62f0f053b9022afa37127e3b,mobile,Motorola moto e(6) plus,Android 9,Chrome WebView 103.0.5060.129,892x412,811x379,NA,ITT Ratings,2,against,1,NA,NA,NA,NA,NA,NA,NA,NA,NA,ACCEPT,batch1pro,batch1pro,17,11,1,Screen 1,continueButton,response_rating_scale_likert_active,2010.1,NA,NA,Agree,1,0,1,0,NA,NA,NA,NA,1,statements,Future side effects are unknown,1,17/06/2021 12:29,17/06/2021 12:41,IP Address,For (I feel positively about the vaccines),Rarely,A few times a year,55,Female,NA,A levels,choice,3,2,For,Against
14,1659960000000,08/08/2022 11:30,1659960000000,1,08/08/2022 12:30,94118,2,task-b5vt,NA,23522951,6893821,NA,complete,NA,62f0f053b9022afa37127e3b,mobile,Motorola moto e(6) plus,Android 9,Chrome WebView 103.0.5060.129,892x412,811x379,NA,ITT Ratings,2,against,1,NA,NA,NA,NA,NA,NA,NA,NA,NA,ACCEPT,batch1pro,batch1pro,63,12,1,Screen 1,continueButton,response_rating_scale_likert_active,26192.1,NA,NA,Disagree,1,0,1,0,NA,NA,NA,NA,1,statements,Less restrictions on behaviour due to immunity.,1,17/06/2021 13:01,17/06/2021 13:10,IP Address,For (I feel positively about the vaccines),Most months,Most weeks,35,Non-binary,NA,"Postgraduate degree (MSc, MA, MPhil)",control,10,3,For,For
15,1659960000000,08/08/2022 11:30,1659960000000,1,08/08/2022 12:30,94118,2,task-b5vt,NA,23522951,6893821,NA,complete,NA,62f0f053b9022afa37127e3b,mobile,Motorola moto e(6) plus,Android 9,Chrome WebView 103.0.5060.129,892x412,811x379,NA,ITT Ratings,2,against,1,NA,NA,NA,NA,NA,NA,NA,NA,NA,ACCEPT,batch1pro,batch1pro,59,13,1,Screen 1,continueButton,response_rating_scale_likert_active,3775.5,NA,NA,Agree,1,0,1,0,NA,NA,NA,NA,1,statements,Concerns about the truthfulness of the pandemic and the true motivations behind mass vaccination.,1,17/06/2021 13:01,17/06/2021 13:10,IP Address,For (I feel positively about the vaccines),Most months,Most weeks,35,Non-binary,NA,"Postgraduate degree (MSc, MA, MPhil)",control,10,2,For,Against
16,1659960000000,08/08/2022 11:30,1659960000000,1,08/08/2022 12:30,94118,2,task-b5vt,NA,23522951,6893821,NA,complete,NA,62f0f053b9022afa37127e3b,mobile,Motorola moto e(6) plus,Android 9,Chrome WebView 103.0.5060.129,892x412,811x379,NA,ITT Ratings,2,against,1,NA,NA,NA,NA,NA,NA,NA,NA,NA,ACCEPT,batch1pro,batch1pro,61,14,1,Screen 1,continueButton,response_rating_scale_likert_active,2120.3,NA,NA,Disagree,1,0,1,0,NA,NA,NA,NA,1,statements,Reduced risk of getting COVID.,1,17/06/2021 13:01,17/06/2021 13:10,IP Address,For (I feel positively about the vaccines),Most months,Most weeks,35,Non-binary,NA,"Postgraduate degree (MSc, MA, MPhil)",control,10,1,For,For
17,1659960000000,08/08/2022 11:30,1659960000000,1,08/08/2022 12:30,94118,2,task-b5vt,NA,23522951,6893821,NA,complete,NA,62f0f053b9022afa37127e3b,mobile,Motorola moto e(6) plus,Android 9,Chrome WebView 103.0.5060.129,892x412,811x379,NA,ITT Ratings,2,against,1,NA,NA,NA,NA,NA,NA,NA,NA,NA,ACCEPT,batch1pro,batch1pro,27,15,1,Screen 1,continueButton,response_rating_scale_likert_active,3841,NA,NA,Neither Agree nor Disagree,1,0,1,0,NA,NA,NA,NA,1,statements,Doctors are trying to help,1,17/06/2021 12:33,17/06/2021 12:41,IP Address,For (I feel positively about the vaccines),Most months,Most months,20,Female,NA,"Undergraduate degree (BSc, BA),Postgraduate degree (MSc, MA, MPhil)",control,4,3,For,For
18,1659960000000,08/08/2022 11:30,1659960000000,1,08/08/2022 12:30,94118,2,task-b5vt,NA,23522951,6893821,NA,complete,NA,62f0f053b9022afa37127e3b,mobile,Motorola moto e(6) plus,Android 9,Chrome WebView 103.0.5060.129,892x412,811x379,NA,ITT Ratings,2,against,1,NA,NA,NA,NA,NA,NA,NA,NA,NA,ACCEPT,batch1pro,batch1pro,25,16,1,Screen 1,continueButton,response_rating_scale_likert_active,6265.1,NA,NA,Somewhat Disagree,1,0,1,0,NA,NA,NA,NA,1,statements,It's been tried and tested and has been approved by many doctors around the world,1,17/06/2021 12:33,17/06/2021 12:41,IP Address,For (I feel positively about the vaccines),Most months,Most months,20,Female,NA,"Undergraduate degree (BSc, BA),Postgraduate degree (MSc, MA, MPhil)",control,4,1,For,For
19,1659960000000,08/08/2022 11:30,1659960000000,1,08/08/2022 12:30,94118,2,task-b5vt,NA,23522951,6893821,NA,complete,NA,62f0f053b9022afa37127e3b,mobile,Motorola moto e(6) plus,Android 9,Chrome WebView 103.0.5060.129,892x412,811x379,NA,ITT Ratings,2,against,1,NA,NA,NA,NA,NA,NA,NA,NA,NA,ACCEPT,batch1pro,batch1pro,13,17,1,Screen 1,continueButton,response_rating_scale_likert_active,6288.7,NA,NA,Disagree,1,0,1,0,NA,NA,NA,NA,1,statements,It's important to protect the people you love who are a higher risk than you,1,17/06/2021 12:34,17/06/2021 12:40,IP Address,For (I feel positively about the vaccines),Rarely,Most weeks,26,Female,NA,"Undergraduate degree (BSc, BA)",choice,2,1,For,For
