Event.Index,UTC.Timestamp,UTC.Date,Local.Timestamp,Local.Timezone,Local.Date,Experiment.ID,Experiment.Version,Tree.Node.Key,Repeat.Key,Schedule.ID,Participant.Private.ID,Participant.Starting.Group,Participant.Status,Participant.Completion.Code,Participant.External.Session.ID,Participant.Device.Type,Participant.Device,Participant.OS,Participant.Browser,Participant.Monitor.Size,Participant.Viewport.Size,Checkpoint,Task.Name,Task.Version,branch.69an,randomiser.8vg2,quota.bqtt,quota.rycs,quota.wtfi,quota.usve,quota.zgic,quota.f3yz,quota.r9vy,quota.tfqq,quota.3dga,quota.dtj6,Spreadsheet,Spreadsheet.Name,Spreadsheet.Row,Trial.Number,Screen.Number,Screen.Name,Zone.Name,Zone.Type,Reaction.Time,Reaction.Onset,Response.Type,Response,Attempt,Correct,Incorrect,Dishonest,X.Coordinate,Y.Coordinate,Timed.Out,randomise_blocks,randomise_trials,display,Arguments,ShowProgressBar,StartDate,EndDate,Status,prolif_check,discuss_1,read_1,age,gender,gender_4_TEXT,edu,condition,ID,arg_ID,Position,Arg_Position
1,1659954824047,08/08/2022 10:33:44,1659954823922,1,08/08/2022 11:33:43,94118,2,task-k2dt,NA,23522101,6893602,NA,complete,NA,62f0e62d6a458c5bad9f8894,computer,Desktop or Laptop,Windows 10,Chrome 103.0.0.0,1536x864,1536x721,NA,ITT Ratings,2,against,7,NA,NA,NA,NA,NA,ACCEPT,NA,NA,NA,NA,batch7pro,NA,NA,BEGIN TASK,NA,NA,NA,NA,NA,NA,NA,NA,NA,0,1,0,NA,NA,NA,NA,NA,NA,NA,NA,NA,NA,NA,NA,NA,NA,NA,NA,NA,NA,NA,NA,NA,NA,NA
2,1659954838853,08/08/2022 10:33:58,1659954838777,1,08/08/2022 11:33:58,94118,2,task-k2dt,NA,23522101,6893602,NA,complete,NA,62f0e62d6a458c5bad9f8894,computer,Desktop or Laptop,Windows 10,Chrome 103.0.0.0,1536x864,1536x721,NA,ITT Ratings,2,against,7,NA,NA,NA,NA,NA,ACCEPT,NA,NA,NA,NA,batch7pro,batch7pro,1,1,1,Screen 1,advancementZone,continue_button,14805.799999952316,NA,NA,NA,NA,0,1,0,NA,NA,NA,NA,NA,instructions,NA,NA,NA,NA,NA,NA,NA,NA,NA,NA,NA,NA,NA,NA,NA,NA,NA
3,1659954858830,08/08/2022 10:34:18,1659954858738,1,08/08/2022 11:34:18,94118,2,task-k2dt,NA,23522101,6893602,NA,complete,NA,62f0e62d6a458c5bad9f8894,computer,Desktop or Laptop,Windows 10,Chrome 103.0.0.0,1536x864,1536x721,NA,ITT Ratings,2,against,7,NA,NA,NA,NA,NA,ACCEPT,NA,NA,NA,NA,batch7pro,batch7pro,3,1,1,Screen 1,continueButton,response_rating_scale_likert_active,19939,NA,NA,Somewhat Disagree,1,0,1,0,NA,NA,NA,NA,1,statements,We would like to check you are reading each argument carefully. Please select 'Somewhat Disagree' for this answer,1,NA,NA,NA,NA,NA,NA,NA,NA,NA,NA,NA,NA,check2,NA,NA
4,1659954873477,08/08/2022 10:34:33,1659954873369,1,08/08/2022 11:34:33,94118,2,task-k2dt,NA,23522101,6893602,NA,complete,NA,62f0e62d6a458c5bad9f8894,computer,Desktop or Laptop,Windows 10,Chrome 103.0.0.0,1536x864,1536x721,NA,ITT Ratings,2,against,7,NA,NA,NA,NA,NA,ACCEPT,NA,NA,NA,NA,batch7pro,batch7pro,15,2,1,Screen 1,continueButton,response_rating_scale_likert_active,14607.900000035765,NA,NA,Strongly Disagree,1,0,1,0,NA,NA,NA,NA,1,statements,I see no reason to not get vaccinated and I have been asked to do so,1,17/06/2021 12:55,17/06/2021 13:00,IP Address,For (I feel positively about the vaccines),A few times a year,Most months,26,Female,NA,"Postgraduate degree (MSc, MA, MPhil)",control,62,3,For,For
5,1659954894132,08/08/2022 10:34:54,1659954894054,1,08/08/2022 11:34:54,94118,2,task-k2dt,NA,23522101,6893602,NA,complete,NA,62f0e62d6a458c5bad9f8894,computer,Desktop or Laptop,Windows 10,Chrome 103.0.0.0,1536x864,1536x721,NA,ITT Ratings,2,against,7,NA,NA,NA,NA,NA,ACCEPT,NA,NA,NA,NA,batch7pro,batch7pro,48,3,1,Screen 1,continueButton,response_rating_scale_likert_active,20674.80000001192,NA,NA,Somewhat Disagree,1,0,1,0,NA,NA,NA,NA,1,statements,the body needs to deal with this natural.,1,17/06/2021 12:49,17/06/2021 13:02,IP Address,For (I feel positively about the vaccines),Most months,A few times a year,35,Male,NA,Vocational Training / Apprenticeship,control,68,3,For,Against
6,1659954908929,08/08/2022 10:35:08,1659954908834,1,08/08/2022 11:35:08,94118,2,task-k2dt,NA,23522101,6893602,NA,complete,NA,62f0e62d6a458c5bad9f8894,computer,Desktop or Laptop,Windows 10,Chrome 103.0.0.0,1536x864,1536x721,NA,ITT Ratings,2,against,7,NA,NA,NA,NA,NA,ACCEPT,NA,NA,NA,NA,batch7pro,batch7pro,43,4,1,Screen 1,continueButton,response_rating_scale_likert_active,14758.80000001192,NA,NA,Disagree,1,0,1,0,NA,NA,NA,NA,1,statements,"If everyone is vaccinated, vulnerable people will be safer",1,17/06/2021 12:56,17/06/2021 13:01,IP Address,For (I feel positively about the vaccines),Rarely,A few times a year,20,Female,NA,A levels,choice,67,1,For,For
7,1659954913185,08/08/2022 10:35:13,1659954913062,1,08/08/2022 11:35:13,94118,2,task-k2dt,NA,23522101,6893602,NA,complete,NA,62f0e62d6a458c5bad9f8894,computer,Desktop or Laptop,Windows 10,Chrome 103.0.0.0,1536x864,1536x721,NA,ITT Ratings,2,against,7,NA,NA,NA,NA,NA,ACCEPT,NA,NA,NA,NA,batch7pro,batch7pro,20,5,1,Screen 1,continueButton,response_rating_scale_likert_active,4218.699999988079,NA,NA,Strongly Agree,1,0,1,0,NA,NA,NA,NA,1,statements,I want to have more freedoms again,1,17/06/2021 12:48,17/06/2021 13:00,IP Address,For (I feel positively about the vaccines),Rarely,A few times a year,38,Female,NA,"Postgraduate degree (MSc, MA, MPhil)",control,63,2,For,For
8,1659954917535,08/08/2022 10:35:17,1659954917460,1,08/08/2022 11:35:17,94118,2,task-k2dt,NA,23522101,6893602,NA,complete,NA,62f0e62d6a458c5bad9f8894,computer,Desktop or Laptop,Windows 10,Chrome 103.0.0.0,1536x864,1536x721,NA,ITT Ratings,2,against,7,NA,NA,NA,NA,NA,ACCEPT,NA,NA,NA,NA,batch7pro,batch7pro,29,6,1,Screen 1,continueButton,response_rating_scale_likert_active,4388.899999976158,NA,NA,Somewhat Agree,1,0,1,0,NA,NA,NA,NA,1,statements,It isn't necessary unless you're a vulnerable person,1,17/06/2021 12:55,17/06/2021 13:01,IP Address,For (I feel positively about the vaccines),Never,A few times a year,36,Male,NA,GCSEs,choice,65,2,For,Against
9,1659954924160,08/08/2022 10:35:24,1659954924068,1,08/08/2022 11:35:24,94118,2,task-k2dt,NA,23522101,6893602,NA,complete,NA,62f0e62d6a458c5bad9f8894,computer,Desktop or Laptop,Windows 10,Chrome 103.0.0.0,1536x864,1536x721,NA,ITT Ratings,2,against,7,NA,NA,NA,NA,NA,ACCEPT,NA,NA,NA,NA,batch7pro,batch7pro,45,7,1,Screen 1,continueButton,response_rating_scale_likert_active,6597.799999952316,NA,NA,Disagree,1,0,1,0,NA,NA,NA,NA,1,statements,"The quicker society is vaccinated, the quicker normality can return",1,17/06/2021 12:56,17/06/2021 13:01,IP Address,For (I feel positively about the vaccines),Rarely,A few times a year,20,Female,NA,A levels,choice,67,3,For,For
10,1659954929519,08/08/2022 10:35:29,1659954929448,1,08/08/2022 11:35:29,94118,2,task-k2dt,NA,23522101,6893602,NA,complete,NA,62f0e62d6a458c5bad9f8894,computer,Desktop or Laptop,Windows 10,Chrome 103.0.0.0,1536x864,1536x721,NA,ITT Ratings,2,against,7,NA,NA,NA,NA,NA,ACCEPT,NA,NA,NA,NA,batch7pro,batch7pro,49,8,1,Screen 1,continueButton,response_rating_scale_likert_active,5370.900000035763,NA,NA,Strongly Disagree,1,0,1,0,NA,NA,NA,NA,1,statements,I don't want to die so i better get one soon.,1,17/06/2021 12:49,17/06/2021 13:02,IP Address,For (I feel positively about the vaccines),Most months,A few times a year,35,Male,NA,Vocational Training / Apprenticeship,control,68,1,For,For
11,1659954934570,08/08/2022 10:35:34,1659954934500,1,08/08/2022 11:35:34,94118,2,task-k2dt,NA,23522101,6893602,NA,complete,NA,62f0e62d6a458c5bad9f8894,computer,Desktop or Laptop,Windows 10,Chrome 103.0.0.0,1536x864,1536x721,NA,ITT Ratings,2,against,7,NA,NA,NA,NA,NA,ACCEPT,NA,NA,NA,NA,batch7pro,batch7pro,63,9,1,Screen 1,continueButton,response_rating_scale_likert_active,5042.400000035763,NA,NA,Disagree,1,0,1,0,NA,NA,NA,NA,1,statements,I want to protect those who are vulnerable through herd immunity,1,17/06/2021 12:56,17/06/2021 13:02,IP Address,For (I feel positively about the vaccines),Most months,Most days,21,Female,NA,A levels,choice,70,3,For,For
12,1659954942986,08/08/2022 10:35:42,1659954942912,1,08/08/2022 11:35:42,94118,2,task-k2dt,NA,23522101,6893602,NA,complete,NA,62f0e62d6a458c5bad9f8894,computer,Desktop or Laptop,Windows 10,Chrome 103.0.0.0,1536x864,1536x721,NA,ITT Ratings,2,against,7,NA,NA,NA,NA,NA,ACCEPT,NA,NA,NA,NA,batch7pro,batch7pro,62,10,1,Screen 1,continueButton,response_rating_scale_likert_active,8402.399999976158,NA,NA,Somewhat Agree,1,0,1,0,NA,NA,NA,NA,1,statements,I want to be able to go on holiday if there are vaccine passports,1,17/06/2021 12:56,17/06/2021 13:02,IP Address,For (I feel positively about the vaccines),Most months,Most days,21,Female,NA,A levels,choice,70,2,For,For
13,1659954949010,08/08/2022 10:35:49,1659954948940,1,08/08/2022 11:35:48,94118,2,task-k2dt,NA,23522101,6893602,NA,complete,NA,62f0e62d6a458c5bad9f8894,computer,Desktop or Laptop,Windows 10,Chrome 103.0.0.0,1536x864,1536x721,NA,ITT Ratings,2,against,7,NA,NA,NA,NA,NA,ACCEPT,NA,NA,NA,NA,batch7pro,batch7pro,4,11,1,Screen 1,continueButton,response_rating_scale_likert_active,6019.100000023842,NA,NA,Disagree,1,0,1,0,NA,NA,NA,NA,1,statements,The government are putting a chip inside us,1,17/06/2021 12:49,17/06/2021 13:00,IP Address,For (I feel positively about the vaccines),Most days,Never,33,Female,NA,GCSEs,choice,61,1,For,Against
14,1659954952042,08/08/2022 10:35:52,1659954951964,1,08/08/2022 11:35:51,94118,2,task-k2dt,NA,23522101,6893602,NA,complete,NA,62f0e62d6a458c5bad9f8894,computer,Desktop or Laptop,Windows 10,Chrome 103.0.0.0,1536x864,1536x721,NA,ITT Ratings,2,against,7,NA,NA,NA,NA,NA,ACCEPT,NA,NA,NA,NA,batch7pro,batch7pro,40,12,1,Screen 1,continueButton,response_rating_scale_likert_active,3015.600000023842,NA,NA,Strongly Disagree,1,0,1,0,NA,NA,NA,NA,1,statements,The vaccine is a tracking device,1,17/06/2021 12:56,17/06/2021 13:01,IP Address,For (I feel positively about the vaccines),Rarely,A few times a year,20,Female,NA,A levels,choice,67,1,For,Against
15,1659954959110,08/08/2022 10:35:59,1659954959040,1,08/08/2022 11:35:59,94118,2,task-k2dt,NA,23522101,6893602,NA,complete,NA,62f0e62d6a458c5bad9f8894,computer,Desktop or Laptop,Windows 10,Chrome 103.0.0.0,1536x864,1536x721,NA,ITT Ratings,2,against,7,NA,NA,NA,NA,NA,ACCEPT,NA,NA,NA,NA,batch7pro,batch7pro,7,13,1,Screen 1,continueButton,response_rating_scale_likert_active,7067.5,NA,NA,Strongly Disagree,1,0,1,0,NA,NA,NA,NA,1,statements,Stops us getting covid so bad,1,17/06/2021 12:49,17/06/2021 13:00,IP Address,For (I feel positively about the vaccines),Most days,Never,33,Female,NA,GCSEs,choice,61,1,For,For
16,1659954970898,08/08/2022 10:36:10,1659954970781,1,08/08/2022 11:36:10,94118,2,task-k2dt,NA,23522101,6893602,NA,complete,NA,62f0e62d6a458c5bad9f8894,computer,Desktop or Laptop,Windows 10,Chrome 103.0.0.0,1536x864,1536x721,NA,ITT Ratings,2,against,7,NA,NA,NA,NA,NA,ACCEPT,NA,NA,NA,NA,batch7pro,batch7pro,59,14,1,Screen 1,continueButton,response_rating_scale_likert_active,11730.100000023842,NA,NA,Somewhat Agree,1,0,1,0,NA,NA,NA,NA,1,statements,Vaccines aren't effective - there's a new flu jab every year because of mutations,1,17/06/2021 12:56,17/06/2021 13:02,IP Address,For (I feel positively about the vaccines),Most months,Most days,21,Female,NA,A levels,choice,70,2,For,Against
17,1659954974113,08/08/2022 10:36:14,1659954974038,1,08/08/2022 11:36:14,94118,2,task-k2dt,NA,23522101,6893602,NA,complete,NA,62f0e62d6a458c5bad9f8894,computer,Desktop or Laptop,Windows 10,Chrome 103.0.0.0,1536x864,1536x721,NA,ITT Ratings,2,against,7,NA,NA,NA,NA,NA,ACCEPT,NA,NA,NA,NA,batch7pro,batch7pro,11,15,1,Screen 1,continueButton,response_rating_scale_likert_active,3249.600000023842,NA,NA,Strongly Agree,1,0,1,0,NA,NA,NA,NA,1,statements,I have a phobia of needles,1,17/06/2021 12:55,17/06/2021 13:00,IP Address,For (I feel positively about the vaccines),A few times a year,Most months,26,Female,NA,"Postgraduate degree (MSc, MA, MPhil)",control,62,2,For,Against
18,1659954977358,08/08/2022 10:36:17,1659954977274,1,08/08/2022 11:36:17,94118,2,task-k2dt,NA,23522101,6893602,NA,complete,NA,62f0e62d6a458c5bad9f8894,computer,Desktop or Laptop,Windows 10,Chrome 103.0.0.0,1536x864,1536x721,NA,ITT Ratings,2,against,7,NA,NA,NA,NA,NA,ACCEPT,NA,NA,NA,NA,batch7pro,batch7pro,50,16,1,Screen 1,continueButton,response_rating_scale_likert_active,3228,NA,NA,Strongly Agree,1,0,1,0,NA,NA,NA,NA,1,statements,get life back to normal,1,17/06/2021 12:49,17/06/2021 13:02,IP Address,For (I feel positively about the vaccines),Most months,A few times a year,35,Male,NA,Vocational Training / Apprenticeship,control,68,2,For,For
19,1659954983186,08/08/2022 10:36:23,1659954983101,1,08/08/2022 11:36:23,94118,2,task-k2dt,NA,23522101,6893602,NA,complete,NA,62f0e62d6a458c5bad9f8894,computer,Desktop or Laptop,Windows 10,Chrome 103.0.0.0,1536x864,1536x721,NA,ITT Ratings,2,against,7,NA,NA,NA,NA,NA,ACCEPT,NA,NA,NA,NA,batch7pro,batch7pro,46,17,1,Screen 1,continueButton,response_rating_scale_likert_active,5819,NA,NA,Agree,1,0,1,0,NA,NA,NA,NA,1,statements,I just don't want one,1,17/06/2021 12:49,17/06/2021 13:02,IP Address,For (I feel positively about the vaccines),Most months,A few times a year,35,Male,NA,Vocational Training / Apprenticeship,control,68,1,For,Against
20,1659954990367,08/08/2022 10:36:30,1659954990290,1,08/08/2022 11:36:30,94118,2,task-k2dt,NA,23522101,6893602,NA,complete,NA,62f0e62d6a458c5bad9f8894,computer,Desktop or Laptop,Windows 10,Chrome 103.0.0.0,1536x864,1536x721,NA,ITT Ratings,2,against,7,NA,NA,NA,NA,NA,ACCEPT,NA,NA,NA,NA,batch7pro,batch7pro,27,18,1,Screen 1,continueButton,response_rating_scale_likert_active,7181.5,NA,NA,Disagree,1,0,1,0,NA,NA,NA,NA,1,statements,It will help protect me and others around me,1,17/06/2021 12:48,17/06/2021 13:01,IP Address,For (I feel positively about the vaccines),Rarely,Most weeks,27,Female,NA,A levels,choice,64,3,For,For
21,1659954993971,08/08/2022 10:36:33,1659954993896,1,08/08/2022 11:36:33,94118,2,task-k2dt,NA,23522101,6893602,NA,complete,NA,62f0e62d6a458c5bad9f8894,computer,Desktop or Laptop,Windows 10,Chrome 103.0.0.0,1536x864,1536x721,NA,ITT Ratings,2,against,7,NA,NA,NA,NA,NA,ACCEPT,NA,NA,NA,NA,batch7pro,batch7pro,26,19,1,Screen 1,continueButton,response_rating_scale_likert_active,3597.599999964237,NA,NA,Strongly Disagree,1,0,1,0,NA,NA,NA,NA,1,statements,They wouldn't give it us if it wasn't safe,1,17/06/2021 12:48,17/06/2021 13:01,IP Address,For (I feel positively about the vaccines),Rarely,Most weeks,27,Female,NA,A levels,choice,64,2,For,For
22,1659955001804,08/08/2022 10:36:41,1659955001723,1,08/08/2022 11:36:41,94118,2,task-k2dt,NA,23522101,6893602,NA,complete,NA,62f0e62d6a458c5bad9f8894,computer,Desktop or Laptop,Windows 10,Chrome 103.0.0.0,1536x864,1536x721,NA,ITT Ratings,2,against,7,NA,NA,NA,NA,NA,ACCEPT,NA,NA,NA,NA,batch7pro,batch7pro,32,20,1,Screen 1,continueButton,response_rating_scale_likert_active,7820.199999988079,NA,NA,Somewhat Agree,1,0,1,0,NA,NA,NA,NA,1,statements,I want to protect vulnerable family members,1,17/06/2021 12:55,17/06/2021 13:01,IP Address,For (I feel positively about the vaccines),Never,A few times a year,36,Male,NA,GCSEs,choice,65,2,For,For
23,1659955005720,08/08/2022 10:36:45,1659955005648,1,08/08/2022 11:36:45,94118,2,task-k2dt,NA,23522101,6893602,NA,complete,NA,62f0e62d6a458c5bad9f8894,computer,Desktop or Laptop,Windows 10,Chrome 103.0.0.0,1536x864,1536x721,NA,ITT Ratings,2,against,7,NA,NA,NA,NA,NA,ACCEPT,NA,NA,NA,NA,batch7pro,batch7pro,6,21,1,Screen 1,continueButton,response_rating_scale_likert_active,3915.199999988079,NA,NA,Agree,1,0,1,0,NA,NA,NA,NA,1,statements,I think it's a scam,1,17/06/2021 12:49,17/06/2021 13:00,IP Address,For (I feel positively about the vaccines),Most days,Never,33,Female,NA,GCSEs,choice,61,3,For,Against
24,1659955013426,08/08/2022 10:36:53,1659955013355,1,08/08/2022 11:36:53,94118,2,task-k2dt,NA,23522101,6893602,NA,complete,NA,62f0e62d6a458c5bad9f8894,computer,Desktop or Laptop,Windows 10,Chrome 103.0.0.0,1536x864,1536x721,NA,ITT Ratings,2,against,7,NA,NA,NA,NA,NA,ACCEPT,NA,NA,NA,NA,batch7pro,batch7pro,5,22,1,Screen 1,continueButton,response_rating_scale_likert_active,7700.199999988079,NA,NA,Somewhat Agree,1,0,1,0,NA,NA,NA,NA,1,statements,Don't want foreign bodies in me,1,17/06/2021 12:49,17/06/2021 13:00,IP Address,For (I feel positively about the vaccines),Most days,Never,33,Female,NA,GCSEs,choice,61,2,For,Against
25,1659955016101,08/08/2022 10:36:56,1659955016026,1,08/08/2022 11:36:56,94118,2,task-k2dt,NA,23522101,6893602,NA,complete,NA,62f0e62d6a458c5bad9f8894,computer,Desktop or Laptop,Windows 10,Chrome 103.0.0.0,1536x864,1536x721,NA,ITT Ratings,2,against,7,NA,NA,NA,NA,NA,ACCEPT,NA,NA,NA,NA,batch7pro,batch7pro,41,23,1,Screen 1,continueButton,response_rating_scale_likert_active,2662.7000000476837,NA,NA,Strongly Agree,1,0,1,0,NA,NA,NA,NA,1,statements,The development has been rushed,1,17/06/2021 12:56,17/06/2021 13:01,IP Address,For (I feel positively about the vaccines),Rarely,A few times a year,20,Female,NA,A levels,choice,67,2,For,Against
26,1659955020266,08/08/2022 10:37:00,1659955020181,1,08/08/2022 11:37:00,94118,2,task-k2dt,NA,23522101,6893602,NA,complete,NA,62f0e62d6a458c5bad9f8894,computer,Desktop or Laptop,Windows 10,Chrome 103.0.0.0,1536x864,1536x721,NA,ITT Ratings,2,against,7,NA,NA,NA,NA,NA,ACCEPT,NA,NA,NA,NA,batch7pro,batch7pro,14,24,1,Screen 1,continueButton,response_rating_scale_likert_active,4142.300000011921,NA,NA,Neither Agree nor Disagree,1,0,1,0,NA,NA,NA,NA,1,statements,I want to protect others from covid,1,17/06/2021 12:55,17/06/2021 13:00,IP Address,For (I feel positively about the vaccines),A few times a year,Most months,26,Female,NA,"Postgraduate degree (MSc, MA, MPhil)",control,62,2,For,For
27,1659955025099,08/08/2022 10:37:05,1659955025024,1,08/08/2022 11:37:05,94118,2,task-k2dt,NA,23522101,6893602,NA,complete,NA,62f0e62d6a458c5bad9f8894,computer,Desktop or Laptop,Windows 10,Chrome 103.0.0.0,1536x864,1536x721,NA,ITT Ratings,2,against,7,NA,NA,NA,NA,NA,ACCEPT,NA,NA,NA,NA,batch7pro,batch7pro,9,25,1,Screen 1,continueButton,response_rating_scale_likert_active,4834.099999964237,NA,NA,Disagree,1,0,1,0,NA,NA,NA,NA,1,statements,Protecting others from the virus,1,17/06/2021 12:49,17/06/2021 13:00,IP Address,For (I feel positively about the vaccines),Most days,Never,33,Female,NA,GCSEs,choice,61,3,For,For
28,1659955028672,08/08/2022 10:37:08,1659955028596,1,08/08/2022 11:37:08,94118,2,task-k2dt,NA,23522101,6893602,NA,complete,NA,62f0e62d6a458c5bad9f8894,computer,Desktop or Laptop,Windows 10,Chrome 103.0.0.0,1536x864,1536x721,NA,ITT Ratings,2,against,7,NA,NA,NA,NA,NA,ACCEPT,NA,NA,NA,NA,batch7pro,batch7pro,19,26,1,Screen 1,continueButton,response_rating_scale_likert_active,3564.300000011921,NA,NA,Disagree,1,0,1,0,NA,NA,NA,NA,1,statements,I want to be protected,1,17/06/2021 12:48,17/06/2021 13:00,IP Address,For (I feel positively about the vaccines),Rarely,A few times a year,38,Female,NA,"Postgraduate degree (MSc, MA, MPhil)",control,63,1,For,For
29,1659955033106,08/08/2022 10:37:13,1659955032996,1,08/08/2022 11:37:12,94118,2,task-k2dt,NA,23522101,6893602,NA,complete,NA,62f0e62d6a458c5bad9f8894,computer,Desktop or Laptop,Windows 10,Chrome 103.0.0.0,1536x864,1536x721,NA,ITT Ratings,2,against,7,NA,NA,NA,NA,NA,ACCEPT,NA,NA,NA,NA,batch7pro,batch7pro,18,27,1,Screen 1,continueButton,response_rating_scale_likert_active,4392.600000023842,NA,NA,Disagree,1,0,1,0,NA,NA,NA,NA,1,statements,I don't believe in vaccinations,1,17/06/2021 12:48,17/06/2021 13:00,IP Address,For (I feel positively about the vaccines),Rarely,A few times a year,38,Female,NA,"Postgraduate degree (MSc, MA, MPhil)",control,63,3,For,Against
30,1659955039551,08/08/2022 10:37:19,1659955039471,1,08/08/2022 11:37:19,94118,2,task-k2dt,NA,23522101,6893602,NA,complete,NA,62f0e62d6a458c5bad9f8894,computer,Desktop or Laptop,Windows 10,Chrome 103.0.0.0,1536x864,1536x721,NA,ITT Ratings,2,against,7,NA,NA,NA,NA,NA,ACCEPT,NA,NA,NA,NA,batch7pro,batch7pro,52,28,1,Screen 1,continueButton,response_rating_scale_likert_active,6406.199999988079,NA,NA,Agree,1,0,1,0,NA,NA,NA,NA,1,statements,It was developed too quickly so doesn’t work well,1,17/06/2021 12:50,17/06/2021 13:02,IP Address,For (I feel positively about the vaccines),Rarely,Once or twice a year,42,Female,NA,"Undergraduate degree (BSc, BA)",choice,69,1,For,Against
31,1659955046067,08/08/2022 10:37:26,1659955045993,1,08/08/2022 11:37:25,94118,2,task-k2dt,NA,23522101,6893602,NA,complete,NA,62f0e62d6a458c5bad9f8894,computer,Desktop or Laptop,Windows 10,Chrome 103.0.0.0,1536x864,1536x721,NA,ITT Ratings,2,against,7,NA,NA,NA,NA,NA,ACCEPT,NA,NA,NA,NA,batch7pro,batch7pro,13,29,1,Screen 1,continueButton,response_rating_scale_likert_active,6510.300000011921,NA,NA,Somewhat Disagree,1,0,1,0,NA,NA,NA,NA,1,statements,I want to protect myself from covid,1,17/06/2021 12:55,17/06/2021 13:00,IP Address,For (I feel positively about the vaccines),A few times a year,Most months,26,Female,NA,"Postgraduate degree (MSc, MA, MPhil)",control,62,1,For,For
32,1659955052466,08/08/2022 10:37:32,1659955052392,1,08/08/2022 11:37:32,94118,2,task-k2dt,NA,23522101,6893602,NA,complete,NA,62f0e62d6a458c5bad9f8894,computer,Desktop or Laptop,Windows 10,Chrome 103.0.0.0,1536x864,1536x721,NA,ITT Ratings,2,against,7,NA,NA,NA,NA,NA,ACCEPT,NA,NA,NA,NA,batch7pro,batch7pro,51,30,1,Screen 1,continueButton,response_rating_scale_likert_active,6389.800000011921,NA,NA,Somewhat Agree,1,0,1,0,NA,NA,NA,NA,1,statements,social presser to get one,1,17/06/2021 12:49,17/06/2021 13:02,IP Address,For (I feel positively about the vaccines),Most months,A few times a year,35,Male,NA,Vocational Training / Apprenticeship,control,68,3,For,For
33,1659955068828,08/08/2022 10:37:48,1659955068735,1,08/08/2022 11:37:48,94118,2,task-k2dt,NA,23522101,6893602,NA,complete,NA,62f0e62d6a458c5bad9f8894,computer,Desktop or Laptop,Windows 10,Chrome 103.0.0.0,1536x864,1536x721,NA,ITT Ratings,2,against,7,NA,NA,NA,NA,NA,ACCEPT,NA,NA,NA,NA,batch7pro,batch7pro,35,31,1,Screen 1,continueButton,response_rating_scale_likert_active,16333.899999976158,NA,NA,Strongly Disagree,1,0,1,0,NA,NA,NA,NA,1,statements,Studies have shown that vaccination provides a strong boost in protection in people who have recovered from COVID-19.,1,17/06/2021 12:47,17/06/2021 13:01,IP Address,For (I feel positively about the vaccines),Most months,Most weeks,18,Male,NA,A levels,choice,66,2,For,Against
34,1659955077050,08/08/2022 10:37:57,1659955076967,1,08/08/2022 11:37:56,94118,2,task-k2dt,NA,23522101,6893602,NA,complete,NA,62f0e62d6a458c5bad9f8894,computer,Desktop or Laptop,Windows 10,Chrome 103.0.0.0,1536x864,1536x721,NA,ITT Ratings,2,against,7,NA,NA,NA,NA,NA,ACCEPT,NA,NA,NA,NA,batch7pro,batch7pro,47,32,1,Screen 1,continueButton,response_rating_scale_likert_active,8224.100000023842,NA,NA,Somewhat Agree,1,0,1,0,NA,NA,NA,NA,1,statements,i dont trust there ......,1,17/06/2021 12:49,17/06/2021 13:02,IP Address,For (I feel positively about the vaccines),Most months,A few times a year,35,Male,NA,Vocational Training / Apprenticeship,control,68,2,For,Against
35,1659955079855,08/08/2022 10:37:59,1659955079728,1,08/08/2022 11:37:59,94118,2,task-k2dt,NA,23522101,6893602,NA,complete,NA,62f0e62d6a458c5bad9f8894,computer,Desktop or Laptop,Windows 10,Chrome 103.0.0.0,1536x864,1536x721,NA,ITT Ratings,2,against,7,NA,NA,NA,NA,NA,ACCEPT,NA,NA,NA,NA,batch7pro,batch7pro,42,33,1,Screen 1,continueButton,response_rating_scale_likert_active,2753.599999964237,NA,NA,Neither Agree nor Disagree,1,0,1,0,NA,NA,NA,NA,1,statements,The vaccine is dangerous,1,17/06/2021 12:56,17/06/2021 13:01,IP Address,For (I feel positively about the vaccines),Rarely,A few times a year,20,Female,NA,A levels,choice,67,3,For,Against
36,1659955082773,08/08/2022 10:38:02,1659955082690,1,08/08/2022 11:38:02,94118,2,task-k2dt,NA,23522101,6893602,NA,complete,NA,62f0e62d6a458c5bad9f8894,computer,Desktop or Laptop,Windows 10,Chrome 103.0.0.0,1536x864,1536x721,NA,ITT Ratings,2,against,7,NA,NA,NA,NA,NA,ACCEPT,NA,NA,NA,NA,batch7pro,batch7pro,54,34,1,Screen 1,continueButton,response_rating_scale_likert_active,2952.699999988079,NA,NA,Somewhat Disagree,1,0,1,0,NA,NA,NA,NA,1,statements,I don't believe in COVID-19,1,17/06/2021 12:50,17/06/2021 13:02,IP Address,For (I feel positively about the vaccines),Rarely,Once or twice a year,42,Female,NA,"Undergraduate degree (BSc, BA)",choice,69,3,For,Against
37,1659955089600,08/08/2022 10:38:09,1659955089517,1,08/08/2022 11:38:09,94118,2,task-k2dt,NA,23522101,6893602,NA,complete,NA,62f0e62d6a458c5bad9f8894,computer,Desktop or Laptop,Windows 10,Chrome 103.0.0.0,1536x864,1536x721,NA,ITT Ratings,2,against,7,NA,NA,NA,NA,NA,ACCEPT,NA,NA,NA,NA,batch7pro,batch7pro,36,35,1,Screen 1,continueButton,response_rating_scale_likert_active,6817.600000023842,NA,NA,Strongly Disagree,1,0,1,0,NA,NA,NA,NA,1,statements,Although it seems that the vaccine making process has been rushed it has still gone through the normal rigorous testing required to make sure its safe.,1,17/06/2021 12:47,17/06/2021 13:01,IP Address,For (I feel positively about the vaccines),Most months,Most weeks,18,Male,NA,A levels,choice,66,3,For,Against
38,1659955093670,08/08/2022 10:38:13,1659955093583,1,08/08/2022 11:38:13,94118,2,task-k2dt,NA,23522101,6893602,NA,complete,NA,62f0e62d6a458c5bad9f8894,computer,Desktop or Laptop,Windows 10,Chrome 103.0.0.0,1536x864,1536x721,NA,ITT Ratings,2,against,7,NA,NA,NA,NA,NA,ACCEPT,NA,NA,NA,NA,batch7pro,batch7pro,22,36,1,Screen 1,continueButton,response_rating_scale_likert_active,4057.699999988079,NA,NA,Somewhat Agree,1,0,1,0,NA,NA,NA,NA,1,statements,It's harmful to the human body,1,17/06/2021 12:48,17/06/2021 13:01,IP Address,For (I feel positively about the vaccines),Rarely,Most weeks,27,Female,NA,A levels,choice,64,1,For,Against
39,1659955097595,08/08/2022 10:38:17,1659955097514,1,08/08/2022 11:38:17,94118,2,task-k2dt,NA,23522101,6893602,NA,complete,NA,62f0e62d6a458c5bad9f8894,computer,Desktop or Laptop,Windows 10,Chrome 103.0.0.0,1536x864,1536x721,NA,ITT Ratings,2,against,7,NA,NA,NA,NA,NA,ACCEPT,NA,NA,NA,NA,batch7pro,batch7pro,57,37,1,Screen 1,continueButton,response_rating_scale_likert_active,3923,NA,NA,Disagree,1,0,1,0,NA,NA,NA,NA,1,statements,It's safe and developed by experts,1,17/06/2021 12:50,17/06/2021 13:02,IP Address,For (I feel positively about the vaccines),Rarely,Once or twice a year,42,Female,NA,"Undergraduate degree (BSc, BA)",choice,69,3,For,For
40,1659955099805,08/08/2022 10:38:19,1659955099722,1,08/08/2022 11:38:19,94118,2,task-k2dt,NA,23522101,6893602,NA,complete,NA,62f0e62d6a458c5bad9f8894,computer,Desktop or Laptop,Windows 10,Chrome 103.0.0.0,1536x864,1536x721,NA,ITT Ratings,2,against,7,NA,NA,NA,NA,NA,ACCEPT,NA,NA,NA,NA,batch7pro,batch7pro,8,38,1,Screen 1,continueButton,response_rating_scale_likert_active,2199.699999988079,NA,NA,Somewhat Disagree,1,0,1,0,NA,NA,NA,NA,1,statements,Protect us from virus,1,17/06/2021 12:49,17/06/2021 13:00,IP Address,For (I feel positively about the vaccines),Most days,Never,33,Female,NA,GCSEs,choice,61,2,For,For
41,1659955105825,08/08/2022 10:38:25,1659955105742,1,08/08/2022 11:38:25,94118,2,task-k2dt,NA,23522101,6893602,NA,complete,NA,62f0e62d6a458c5bad9f8894,computer,Desktop or Laptop,Windows 10,Chrome 103.0.0.0,1536x864,1536x721,NA,ITT Ratings,2,against,7,NA,NA,NA,NA,NA,ACCEPT,NA,NA,NA,NA,batch7pro,batch7pro,28,39,1,Screen 1,continueButton,response_rating_scale_likert_active,6011.399999976158,NA,NA,Agree,1,0,1,0,NA,NA,NA,NA,1,statements,There hasn't been enough time to develop it safely,1,17/06/2021 12:55,17/06/2021 13:01,IP Address,For (I feel positively about the vaccines),Never,A few times a year,36,Male,NA,GCSEs,choice,65,1,For,Against
42,1659955114492,08/08/2022 10:38:34,1659955114363,1,08/08/2022 11:38:34,94118,2,task-k2dt,NA,23522101,6893602,NA,complete,NA,62f0e62d6a458c5bad9f8894,computer,Desktop or Laptop,Windows 10,Chrome 103.0.0.0,1536x864,1536x721,NA,ITT Ratings,2,against,7,NA,NA,NA,NA,NA,ACCEPT,NA,NA,NA,NA,batch7pro,batch7pro,37,40,1,Screen 1,continueButton,response_rating_scale_likert_active,8612.900000035763,NA,NA,Disagree,1,0,1,0,NA,NA,NA,NA,1,statements,I'm classed in a vulnerable category so getting the vaccine would help reduce the risk f me catching it and getting serious symptoms,1,17/06/2021 12:47,17/06/2021 13:01,IP Address,For (I feel positively about the vaccines),Most months,Most weeks,18,Male,NA,A levels,choice,66,1,For,For
43,1659955117122,08/08/2022 10:38:37,1659955117044,1,08/08/2022 11:38:37,94118,2,task-k2dt,NA,23522101,6893602,NA,complete,NA,62f0e62d6a458c5bad9f8894,computer,Desktop or Laptop,Windows 10,Chrome 103.0.0.0,1536x864,1536x721,NA,ITT Ratings,2,against,7,NA,NA,NA,NA,NA,ACCEPT,NA,NA,NA,NA,batch7pro,batch7pro,55,41,1,Screen 1,continueButton,response_rating_scale_likert_active,2673.800000011921,NA,NA,Strongly Disagree,1,0,1,0,NA,NA,NA,NA,1,statements,It protects you and your family against the virus,1,17/06/2021 12:50,17/06/2021 13:02,IP Address,For (I feel positively about the vaccines),Rarely,Once or twice a year,42,Female,NA,"Undergraduate degree (BSc, BA)",choice,69,1,For,For
44,1659955124829,08/08/2022 10:38:44,1659955124748,1,08/08/2022 11:38:44,94118,2,task-k2dt,NA,23522101,6893602,NA,complete,NA,62f0e62d6a458c5bad9f8894,computer,Desktop or Laptop,Windows 10,Chrome 103.0.0.0,1536x864,1536x721,NA,ITT Ratings,2,against,7,NA,NA,NA,NA,NA,ACCEPT,NA,NA,NA,NA,batch7pro,batch7pro,10,42,1,Screen 1,continueButton,response_rating_scale_likert_active,7694.799999952316,NA,NA,Disagree,1,0,1,0,NA,NA,NA,NA,1,statements,I've read something on social media which has told me not to,1,17/06/2021 12:55,17/06/2021 13:00,IP Address,For (I feel positively about the vaccines),A few times a year,Most months,26,Female,NA,"Postgraduate degree (MSc, MA, MPhil)",control,62,1,For,Against
45,1659955129274,08/08/2022 10:38:49,1659955129192,1,08/08/2022 11:38:49,94118,2,task-k2dt,NA,23522101,6893602,NA,complete,NA,62f0e62d6a458c5bad9f8894,computer,Desktop or Laptop,Windows 10,Chrome 103.0.0.0,1536x864,1536x721,NA,ITT Ratings,2,against,7,NA,NA,NA,NA,NA,ACCEPT,NA,NA,NA,NA,batch7pro,batch7pro,39,43,1,Screen 1,continueButton,response_rating_scale_likert_active,4435.100000023842,NA,NA,Disagree,1,0,1,0,NA,NA,NA,NA,1,statements,To contribute to herd immunity to help eradicate the virus altogether.,1,17/06/2021 12:47,17/06/2021 13:01,IP Address,For (I feel positively about the vaccines),Most months,Most weeks,18,Male,NA,A levels,choice,66,3,For,For
46,1659955134974,08/08/2022 10:38:54,1659955134892,1,08/08/2022 11:38:54,94118,2,task-k2dt,NA,23522101,6893602,NA,complete,NA,62f0e62d6a458c5bad9f8894,computer,Desktop or Laptop,Windows 10,Chrome 103.0.0.0,1536x864,1536x721,NA,ITT Ratings,2,against,7,NA,NA,NA,NA,NA,ACCEPT,NA,NA,NA,NA,batch7pro,batch7pro,60,44,1,Screen 1,continueButton,response_rating_scale_likert_active,5691.399999976158,NA,NA,Strongly Disagree,1,0,1,0,NA,NA,NA,NA,1,statements,Coronavirus doesn't exist/is a conspiracy,1,17/06/2021 12:56,17/06/2021 13:02,IP Address,For (I feel positively about the vaccines),Most months,Most days,21,Female,NA,A levels,choice,70,3,For,Against
47,1659955140764,08/08/2022 10:39:00,1659955140682,1,08/08/2022 11:39:00,94118,2,task-k2dt,NA,23522101,6893602,NA,complete,NA,62f0e62d6a458c5bad9f8894,computer,Desktop or Laptop,Windows 10,Chrome 103.0.0.0,1536x864,1536x721,NA,ITT Ratings,2,against,7,NA,NA,NA,NA,NA,ACCEPT,NA,NA,NA,NA,batch7pro,batch7pro,34,45,1,Screen 1,continueButton,response_rating_scale_likert_active,5782.199999988079,NA,NA,Strongly Disagree,1,0,1,0,NA,NA,NA,NA,1,statements,The vaccines are effective as they can keep you from getting and spreading the virus that causes COVID-19.,1,17/06/2021 12:47,17/06/2021 13:01,IP Address,For (I feel positively about the vaccines),Most months,Most weeks,18,Male,NA,A levels,choice,66,1,For,Against
48,1659955143735,08/08/2022 10:39:03,1659955143654,1,08/08/2022 11:39:03,94118,2,task-k2dt,NA,23522101,6893602,NA,complete,NA,62f0e62d6a458c5bad9f8894,computer,Desktop or Laptop,Windows 10,Chrome 103.0.0.0,1536x864,1536x721,NA,ITT Ratings,2,against,7,NA,NA,NA,NA,NA,ACCEPT,NA,NA,NA,NA,batch7pro,batch7pro,30,46,1,Screen 1,continueButton,response_rating_scale_likert_active,2964.400000035763,NA,NA,Strongly Disagree,1,0,1,0,NA,NA,NA,NA,1,statements,I believe it's a conspiracy,1,17/06/2021 12:55,17/06/2021 13:01,IP Address,For (I feel positively about the vaccines),Never,A few times a year,36,Male,NA,GCSEs,choice,65,3,For,Against
49,1659955153465,08/08/2022 10:39:13,1659955153353,1,08/08/2022 11:39:13,94118,2,task-k2dt,NA,23522101,6893602,NA,complete,NA,62f0e62d6a458c5bad9f8894,computer,Desktop or Laptop,Windows 10,Chrome 103.0.0.0,1536x864,1536x721,NA,ITT Ratings,2,against,7,NA,NA,NA,NA,NA,ACCEPT,NA,NA,NA,NA,batch7pro,batch7pro,2,47,1,Screen 1,continueButton,response_rating_scale_likert_active,9691.19999998808,NA,NA,Somewhat Agree,1,0,1,0,NA,NA,NA,NA,1,statements,We would like to check you are reading each argument carefully. Please select 'Somewhat Agree' for this answer,1,NA,NA,NA,NA,NA,NA,NA,NA,NA,NA,NA,NA,check1,NA,NA
50,1659955161944,08/08/2022 10:39:21,1659955161862,1,08/08/2022 11:39:21,94118,2,task-k2dt,NA,23522101,6893602,NA,complete,NA,62f0e62d6a458c5bad9f8894,computer,Desktop or Laptop,Windows 10,Chrome 103.0.0.0,1536x864,1536x721,NA,ITT Ratings,2,against,7,NA,NA,NA,NA,NA,ACCEPT,NA,NA,NA,NA,batch7pro,batch7pro,38,48,1,Screen 1,continueButton,response_rating_scale_likert_active,8500.5,NA,NA,Somewhat Agree,1,0,1,0,NA,NA,NA,NA,1,statements,Someone I live with is vulnerable too which gives me an incentive to get the vaccine to  keep them safe.,1,17/06/2021 12:47,17/06/2021 13:01,IP Address,For (I feel positively about the vaccines),Most months,Most weeks,18,Male,NA,A levels,choice,66,2,For,For
51,1659955167383,08/08/2022 10:39:27,1659955167304,1,08/08/2022 11:39:27,94118,2,task-k2dt,NA,23522101,6893602,NA,complete,NA,62f0e62d6a458c5bad9f8894,computer,Desktop or Laptop,Windows 10,Chrome 103.0.0.0,1536x864,1536x721,NA,ITT Ratings,2,against,7,NA,NA,NA,NA,NA,ACCEPT,NA,NA,NA,NA,batch7pro,batch7pro,23,49,1,Screen 1,continueButton,response_rating_scale_likert_active,5434.199999988079,NA,NA,Agree,1,0,1,0,NA,NA,NA,NA,1,statements,It won't work and cause damage to our insides,1,17/06/2021 12:48,17/06/2021 13:01,IP Address,For (I feel positively about the vaccines),Rarely,Most weeks,27,Female,NA,A levels,choice,64,2,For,Against
52,1659955173200,08/08/2022 10:39:33,1659955173114,1,08/08/2022 11:39:33,94118,2,task-k2dt,NA,23522101,6893602,NA,complete,NA,62f0e62d6a458c5bad9f8894,computer,Desktop or Laptop,Windows 10,Chrome 103.0.0.0,1536x864,1536x721,NA,ITT Ratings,2,against,7,NA,NA,NA,NA,NA,ACCEPT,NA,NA,NA,NA,batch7pro,batch7pro,58,50,1,Screen 1,continueButton,response_rating_scale_likert_active,5802.699999988079,NA,NA,Somewhat Agree,1,0,1,0,NA,NA,NA,NA,1,statements,I don't know whats in them - how can they produce something effective so quickly,1,17/06/2021 12:56,17/06/2021 13:02,IP Address,For (I feel positively about the vaccines),Most months,Most days,21,Female,NA,A levels,choice,70,1,For,Against
53,1659955178099,08/08/2022 10:39:38,1659955178014,1,08/08/2022 11:39:38,94118,2,task-k2dt,NA,23522101,6893602,NA,complete,NA,62f0e62d6a458c5bad9f8894,computer,Desktop or Laptop,Windows 10,Chrome 103.0.0.0,1536x864,1536x721,NA,ITT Ratings,2,against,7,NA,NA,NA,NA,NA,ACCEPT,NA,NA,NA,NA,batch7pro,batch7pro,21,51,1,Screen 1,continueButton,response_rating_scale_likert_active,4892,NA,NA,Disagree,1,0,1,0,NA,NA,NA,NA,1,statements,I want to protect my loved ones,1,17/06/2021 12:48,17/06/2021 13:00,IP Address,For (I feel positively about the vaccines),Rarely,A few times a year,38,Female,NA,"Postgraduate degree (MSc, MA, MPhil)",control,63,3,For,For
54,1659955182407,08/08/2022 10:39:42,1659955182326,1,08/08/2022 11:39:42,94118,2,task-k2dt,NA,23522101,6893602,NA,complete,NA,62f0e62d6a458c5bad9f8894,computer,Desktop or Laptop,Windows 10,Chrome 103.0.0.0,1536x864,1536x721,NA,ITT Ratings,2,against,7,NA,NA,NA,NA,NA,ACCEPT,NA,NA,NA,NA,batch7pro,batch7pro,16,52,1,Screen 1,continueButton,response_rating_scale_likert_active,4302.800000011921,NA,NA,Strongly Agree,1,0,1,0,NA,NA,NA,NA,1,statements,I don't know enough about it,1,17/06/2021 12:48,17/06/2021 13:00,IP Address,For (I feel positively about the vaccines),Rarely,A few times a year,38,Female,NA,"Postgraduate degree (MSc, MA, MPhil)",control,63,1,For,Against
55,1659955188082,08/08/2022 10:39:48,1659955187990,1,08/08/2022 11:39:47,94118,2,task-k2dt,NA,23522101,6893602,NA,complete,NA,62f0e62d6a458c5bad9f8894,computer,Desktop or Laptop,Windows 10,Chrome 103.0.0.0,1536x864,1536x721,NA,ITT Ratings,2,against,7,NA,NA,NA,NA,NA,ACCEPT,NA,NA,NA,NA,batch7pro,batch7pro,53,53,1,Screen 1,continueButton,response_rating_scale_likert_active,5656.100000023842,NA,NA,Disagree,1,0,1,0,NA,NA,NA,NA,1,statements,It's dangerous and gives you a dose of covid,1,17/06/2021 12:50,17/06/2021 13:02,IP Address,For (I feel positively about the vaccines),Rarely,Once or twice a year,42,Female,NA,"Undergraduate degree (BSc, BA)",choice,69,2,For,Against
56,1659955190294,08/08/2022 10:39:50,1659955190218,1,08/08/2022 11:39:50,94118,2,task-k2dt,NA,23522101,6893602,NA,complete,NA,62f0e62d6a458c5bad9f8894,computer,Desktop or Laptop,Windows 10,Chrome 103.0.0.0,1536x864,1536x721,NA,ITT Ratings,2,against,7,NA,NA,NA,NA,NA,ACCEPT,NA,NA,NA,NA,batch7pro,batch7pro,61,54,1,Screen 1,continueButton,response_rating_scale_likert_active,2219.900000035763,NA,NA,Strongly Agree,1,0,1,0,NA,NA,NA,NA,1,statements,I want everything to go back to normal,1,17/06/2021 12:56,17/06/2021 13:02,IP Address,For (I feel positively about the vaccines),Most months,Most days,21,Female,NA,A levels,choice,70,1,For,For
57,1659955195569,08/08/2022 10:39:55,1659955195480,1,08/08/2022 11:39:55,94118,2,task-k2dt,NA,23522101,6893602,NA,complete,NA,62f0e62d6a458c5bad9f8894,computer,Desktop or Laptop,Windows 10,Chrome 103.0.0.0,1536x864,1536x721,NA,ITT Ratings,2,against,7,NA,NA,NA,NA,NA,ACCEPT,NA,NA,NA,NA,batch7pro,batch7pro,44,55,1,Screen 1,continueButton,response_rating_scale_likert_active,5253.899999976158,NA,NA,Strongly Disagree,1,0,1,0,NA,NA,NA,NA,1,statements,It will likely reduce severity of symptoms for everyone,1,17/06/2021 12:56,17/06/2021 13:01,IP Address,For (I feel positively about the vaccines),Rarely,A few times a year,20,Female,NA,A levels,choice,67,2,For,For
58,1659955198786,08/08/2022 10:39:58,1659955198710,1,08/08/2022 11:39:58,94118,2,task-k2dt,NA,23522101,6893602,NA,complete,NA,62f0e62d6a458c5bad9f8894,computer,Desktop or Laptop,Windows 10,Chrome 103.0.0.0,1536x864,1536x721,NA,ITT Ratings,2,against,7,NA,NA,NA,NA,NA,ACCEPT,NA,NA,NA,NA,batch7pro,batch7pro,31,56,1,Screen 1,continueButton,response_rating_scale_likert_active,3222.2000000476837,NA,NA,Somewhat Agree,1,0,1,0,NA,NA,NA,NA,1,statements,I want to protect myself,1,17/06/2021 12:55,17/06/2021 13:01,IP Address,For (I feel positively about the vaccines),Never,A few times a year,36,Male,NA,GCSEs,choice,65,1,For,For
59,1659955203853,08/08/2022 10:40:03,1659955203770,1,08/08/2022 11:40:03,94118,2,task-k2dt,NA,23522101,6893602,NA,complete,NA,62f0e62d6a458c5bad9f8894,computer,Desktop or Laptop,Windows 10,Chrome 103.0.0.0,1536x864,1536x721,NA,ITT Ratings,2,against,7,NA,NA,NA,NA,NA,ACCEPT,NA,NA,NA,NA,batch7pro,batch7pro,25,57,1,Screen 1,continueButton,response_rating_scale_likert_active,5052.599999964237,NA,NA,Strongly Disagree,1,0,1,0,NA,NA,NA,NA,1,statements,Having the vaccine is less painful then the disease.,1,17/06/2021 12:48,17/06/2021 13:01,IP Address,For (I feel positively about the vaccines),Rarely,Most weeks,27,Female,NA,A levels,choice,64,1,For,For
60,1659955207768,08/08/2022 10:40:07,1659955207696,1,08/08/2022 11:40:07,94118,2,task-k2dt,NA,23522101,6893602,NA,complete,NA,62f0e62d6a458c5bad9f8894,computer,Desktop or Laptop,Windows 10,Chrome 103.0.0.0,1536x864,1536x721,NA,ITT Ratings,2,against,7,NA,NA,NA,NA,NA,ACCEPT,NA,NA,NA,NA,batch7pro,batch7pro,17,58,1,Screen 1,continueButton,response_rating_scale_likert_active,3916.699999988079,NA,NA,Strongly Agree,1,0,1,0,NA,NA,NA,NA,1,statements,I am worried about long term effects,1,17/06/2021 12:48,17/06/2021 13:00,IP Address,For (I feel positively about the vaccines),Rarely,A few times a year,38,Female,NA,"Postgraduate degree (MSc, MA, MPhil)",control,63,2,For,Against
61,1659955212345,08/08/2022 10:40:12,1659955212260,1,08/08/2022 11:40:12,94118,2,task-k2dt,NA,23522101,6893602,NA,complete,NA,62f0e62d6a458c5bad9f8894,computer,Desktop or Laptop,Windows 10,Chrome 103.0.0.0,1536x864,1536x721,NA,ITT Ratings,2,against,7,NA,NA,NA,NA,NA,ACCEPT,NA,NA,NA,NA,batch7pro,batch7pro,56,59,1,Screen 1,continueButton,response_rating_scale_likert_active,4555.899999976158,NA,NA,Somewhat Agree,1,0,1,0,NA,NA,NA,NA,1,statements,It will mean our lives can start to get back to normal,1,17/06/2021 12:50,17/06/2021 13:02,IP Address,For (I feel positively about the vaccines),Rarely,Once or twice a year,42,Female,NA,"Undergraduate degree (BSc, BA)",choice,69,2,For,For
62,1659955215876,08/08/2022 10:40:15,1659955215802,1,08/08/2022 11:40:15,94118,2,task-k2dt,NA,23522101,6893602,NA,complete,NA,62f0e62d6a458c5bad9f8894,computer,Desktop or Laptop,Windows 10,Chrome 103.0.0.0,1536x864,1536x721,NA,ITT Ratings,2,against,7,NA,NA,NA,NA,NA,ACCEPT,NA,NA,NA,NA,batch7pro,batch7pro,24,60,1,Screen 1,continueButton,response_rating_scale_likert_active,3534.199999988079,NA,NA,Disagree,1,0,1,0,NA,NA,NA,NA,1,statements,It's a government thing to track us and keep an eye on us,1,17/06/2021 12:48,17/06/2021 13:01,IP Address,For (I feel positively about the vaccines),Rarely,Most weeks,27,Female,NA,A levels,choice,64,3,For,Against
63,1659955219930,08/08/2022 10:40:19,1659955219858,1,08/08/2022 11:40:19,94118,2,task-k2dt,NA,23522101,6893602,NA,complete,NA,62f0e62d6a458c5bad9f8894,computer,Desktop or Laptop,Windows 10,Chrome 103.0.0.0,1536x864,1536x721,NA,ITT Ratings,2,against,7,NA,NA,NA,NA,NA,ACCEPT,NA,NA,NA,NA,batch7pro,batch7pro,12,61,1,Screen 1,continueButton,response_rating_scale_likert_active,4050,NA,NA,Agree,1,0,1,0,NA,NA,NA,NA,1,statements,I have been told by a medical professional not to have one,1,17/06/2021 12:55,17/06/2021 13:00,IP Address,For (I feel positively about the vaccines),A few times a year,Most months,26,Female,NA,"Postgraduate degree (MSc, MA, MPhil)",control,62,3,For,Against
64,1659955225051,08/08/2022 10:40:25,1659955224972,1,08/08/2022 11:40:24,94118,2,task-k2dt,NA,23522101,6893602,NA,complete,NA,62f0e62d6a458c5bad9f8894,computer,Desktop or Laptop,Windows 10,Chrome 103.0.0.0,1536x864,1536x721,NA,ITT Ratings,2,against,7,NA,NA,NA,NA,NA,ACCEPT,NA,NA,NA,NA,batch7pro,batch7pro,33,62,1,Screen 1,continueButton,response_rating_scale_likert_active,5108,NA,NA,Neither Agree nor Disagree,1,0,1,0,NA,NA,NA,NA,1,statements,I don't want to worry about it anymore,1,17/06/2021 12:55,17/06/2021 13:01,IP Address,For (I feel positively about the vaccines),Never,A few times a year,36,Male,NA,GCSEs,choice,65,3,For,For
65,1659955225096,08/08/2022 10:40:25,1659955224977,1,08/08/2022 11:40:24,94118,2,task-k2dt,NA,23522101,6893602,NA,complete,NA,62f0e62d6a458c5bad9f8894,computer,Desktop or Laptop,Windows 10,Chrome 103.0.0.0,1536x864,1536x721,NA,ITT Ratings,2,against,7,NA,NA,NA,NA,NA,ACCEPT,NA,NA,NA,NA,batch7pro,NA,NA,END TASK,NA,NA,NA,NA,401055,NA,NA,NA,NA,0,1,0,NA,NA,NA,NA,NA,NA,NA,NA,NA,NA,NA,NA,NA,NA,NA,NA,NA,NA,NA,NA,NA,NA,NA
1,1659956101126,08/08/2022 10:55:01,1659956101354,1,08/08/2022 11:55:01,94118,2,task-k2dt,NA,23522447,6893712,NA,complete,NA,62f0eb65a74512fb626299b0,computer,Desktop or Laptop,Windows 10,Chrome 104.0.0.0,1536x864,1536x714,NA,ITT Ratings,2,against,7,NA,NA,NA,NA,NA,ACCEPT,NA,NA,NA,NA,batch7pro,NA,NA,BEGIN TASK,NA,NA,NA,NA,NA,NA,NA,NA,NA,0,1,0,NA,NA,NA,NA,NA,NA,NA,NA,NA,NA,NA,NA,NA,NA,NA,NA,NA,NA,NA,NA,NA,NA,NA
2,1659956108048,08/08/2022 10:55:08,1659956108314,1,08/08/2022 11:55:08,94118,2,task-k2dt,NA,23522447,6893712,NA,complete,NA,62f0eb65a74512fb626299b0,computer,Desktop or Laptop,Windows 10,Chrome 104.0.0.0,1536x864,1519x714,NA,ITT Ratings,2,against,7,NA,NA,NA,NA,NA,ACCEPT,NA,NA,NA,NA,batch7pro,batch7pro,1,1,1,Screen 1,advancementZone,continue_button,6932.600000023842,NA,NA,NA,NA,0,1,0,NA,NA,NA,NA,NA,instructions,NA,NA,NA,NA,NA,NA,NA,NA,NA,NA,NA,NA,NA,NA,NA,NA,NA
3,1659956111891,08/08/2022 10:55:11,1659956112145,1,08/08/2022 11:55:12,94118,2,task-k2dt,NA,23522447,6893712,NA,complete,NA,62f0eb65a74512fb626299b0,computer,Desktop or Laptop,Windows 10,Chrome 104.0.0.0,1536x864,1519x714,NA,ITT Ratings,2,against,7,NA,NA,NA,NA,NA,ACCEPT,NA,NA,NA,NA,batch7pro,batch7pro,55,1,1,Screen 1,continueButton,response_rating_scale_likert_active,3819.599999964237,NA,NA,Somewhat Disagree,1,0,1,0,NA,NA,NA,NA,1,statements,It protects you and your family against the virus,1,17/06/2021 12:50,17/06/2021 13:02,IP Address,For (I feel positively about the vaccines),Rarely,Once or twice a year,42,Female,NA,"Undergraduate degree (BSc, BA)",choice,69,1,For,For
4,1659956118251,08/08/2022 10:55:18,1659956118530,1,08/08/2022 11:55:18,94118,2,task-k2dt,NA,23522447,6893712,NA,complete,NA,62f0eb65a74512fb626299b0,computer,Desktop or Laptop,Windows 10,Chrome 104.0.0.0,1536x864,1519x714,NA,ITT Ratings,2,against,7,NA,NA,NA,NA,NA,ACCEPT,NA,NA,NA,NA,batch7pro,batch7pro,3,2,1,Screen 1,continueButton,response_rating_scale_likert_active,6377.199999988079,NA,NA,Somewhat Disagree,1,0,1,0,NA,NA,NA,NA,1,statements,We would like to check you are reading each argument carefully. Please select 'Somewhat Disagree' for this answer,1,NA,NA,NA,NA,NA,NA,NA,NA,NA,NA,NA,NA,check2,NA,NA
5,1659956122183,08/08/2022 10:55:22,1659956122452,1,08/08/2022 11:55:22,94118,2,task-k2dt,NA,23522447,6893712,NA,complete,NA,62f0eb65a74512fb626299b0,computer,Desktop or Laptop,Windows 10,Chrome 104.0.0.0,1536x864,1519x714,NA,ITT Ratings,2,against,7,NA,NA,NA,NA,NA,ACCEPT,NA,NA,NA,NA,batch7pro,batch7pro,22,3,1,Screen 1,continueButton,response_rating_scale_likert_active,3911.5,NA,NA,Somewhat Agree,1,0,1,0,NA,NA,NA,NA,1,statements,It's harmful to the human body,1,17/06/2021 12:48,17/06/2021 13:01,IP Address,For (I feel positively about the vaccines),Rarely,Most weeks,27,Female,NA,A levels,choice,64,1,For,Against
6,1659956130136,08/08/2022 10:55:30,1659956130390,1,08/08/2022 11:55:30,94118,2,task-k2dt,NA,23522447,6893712,NA,complete,NA,62f0eb65a74512fb626299b0,computer,Desktop or Laptop,Windows 10,Chrome 104.0.0.0,1536x864,1519x714,NA,ITT Ratings,2,against,7,NA,NA,NA,NA,NA,ACCEPT,NA,NA,NA,NA,batch7pro,batch7pro,38,4,1,Screen 1,continueButton,response_rating_scale_likert_active,7930.399999976158,NA,NA,Neither Agree nor Disagree,1,0,1,0,NA,NA,NA,NA,1,statements,Someone I live with is vulnerable too which gives me an incentive to get the vaccine to  keep them safe.,1,17/06/2021 12:47,17/06/2021 13:01,IP Address,For (I feel positively about the vaccines),Most months,Most weeks,18,Male,NA,A levels,choice,66,2,For,For
7,1659956134617,08/08/2022 10:55:34,1659956134886,1,08/08/2022 11:55:34,94118,2,task-k2dt,NA,23522447,6893712,NA,complete,NA,62f0eb65a74512fb626299b0,computer,Desktop or Laptop,Windows 10,Chrome 104.0.0.0,1536x864,1519x714,NA,ITT Ratings,2,against,7,NA,NA,NA,NA,NA,ACCEPT,NA,NA,NA,NA,batch7pro,batch7pro,2,5,1,Screen 1,continueButton,response_rating_scale_likert_active,4489.399999976158,NA,NA,Somewhat Agree,1,0,1,0,NA,NA,NA,NA,1,statements,We would like to check you are reading each argument carefully. Please select 'Somewhat Agree' for this answer,1,NA,NA,NA,NA,NA,NA,NA,NA,NA,NA,NA,NA,check1,NA,NA
8,1659956143039,08/08/2022 10:55:43,1659956143290,1,08/08/2022 11:55:43,94118,2,task-k2dt,NA,23522447,6893712,NA,complete,NA,62f0eb65a74512fb626299b0,computer,Desktop or Laptop,Windows 10,Chrome 104.0.0.0,1536x864,1519x714,NA,ITT Ratings,2,against,7,NA,NA,NA,NA,NA,ACCEPT,NA,NA,NA,NA,batch7pro,batch7pro,35,6,1,Screen 1,continueButton,response_rating_scale_likert_active,8392.600000023842,NA,NA,Disagree,1,0,1,0,NA,NA,NA,NA,1,statements,Studies have shown that vaccination provides a strong boost in protection in people who have recovered from COVID-19.,1,17/06/2021 12:47,17/06/2021 13:01,IP Address,For (I feel positively about the vaccines),Most months,Most weeks,18,Male,NA,A levels,choice,66,2,For,Against
9,1659956146568,08/08/2022 10:55:46,1659956146830,1,08/08/2022 11:55:46,94118,2,task-k2dt,NA,23522447,6893712,NA,complete,NA,62f0eb65a74512fb626299b0,computer,Desktop or Laptop,Windows 10,Chrome 104.0.0.0,1536x864,1519x714,NA,ITT Ratings,2,against,7,NA,NA,NA,NA,NA,ACCEPT,NA,NA,NA,NA,batch7pro,batch7pro,32,7,1,Screen 1,continueButton,response_rating_scale_likert_active,3531.5,NA,NA,Neither Agree nor Disagree,1,0,1,0,NA,NA,NA,NA,1,statements,I want to protect vulnerable family members,1,17/06/2021 12:55,17/06/2021 13:01,IP Address,For (I feel positively about the vaccines),Never,A few times a year,36,Male,NA,GCSEs,choice,65,2,For,For
10,1659956149539,08/08/2022 10:55:49,1659956149814,1,08/08/2022 11:55:49,94118,2,task-k2dt,NA,23522447,6893712,NA,complete,NA,62f0eb65a74512fb626299b0,computer,Desktop or Laptop,Windows 10,Chrome 104.0.0.0,1536x864,1519x714,NA,ITT Ratings,2,against,7,NA,NA,NA,NA,NA,ACCEPT,NA,NA,NA,NA,batch7pro,batch7pro,26,8,1,Screen 1,continueButton,response_rating_scale_likert_active,2974.600000023842,NA,NA,Strongly Disagree,1,0,1,0,NA,NA,NA,NA,1,statements,They wouldn't give it us if it wasn't safe,1,17/06/2021 12:48,17/06/2021 13:01,IP Address,For (I feel positively about the vaccines),Rarely,Most weeks,27,Female,NA,A levels,choice,64,2,For,For
11,1659956152524,08/08/2022 10:55:52,1659956152796,1,08/08/2022 11:55:52,94118,2,task-k2dt,NA,23522447,6893712,NA,complete,NA,62f0eb65a74512fb626299b0,computer,Desktop or Laptop,Windows 10,Chrome 104.0.0.0,1536x864,1519x714,NA,ITT Ratings,2,against,7,NA,NA,NA,NA,NA,ACCEPT,NA,NA,NA,NA,batch7pro,batch7pro,45,9,1,Screen 1,continueButton,response_rating_scale_likert_active,2975.399999976158,NA,NA,Disagree,1,0,1,0,NA,NA,NA,NA,1,statements,"The quicker society is vaccinated, the quicker normality can return",1,17/06/2021 12:56,17/06/2021 13:01,IP Address,For (I feel positively about the vaccines),Rarely,A few times a year,20,Female,NA,A levels,choice,67,3,For,For
12,1659956155508,08/08/2022 10:55:55,1659956155784,1,08/08/2022 11:55:55,94118,2,task-k2dt,NA,23522447,6893712,NA,complete,NA,62f0eb65a74512fb626299b0,computer,Desktop or Laptop,Windows 10,Chrome 104.0.0.0,1536x864,1519x714,NA,ITT Ratings,2,against,7,NA,NA,NA,NA,NA,ACCEPT,NA,NA,NA,NA,batch7pro,batch7pro,60,10,1,Screen 1,continueButton,response_rating_scale_likert_active,2976.199999988079,NA,NA,Somewhat Agree,1,0,1,0,NA,NA,NA,NA,1,statements,Coronavirus doesn't exist/is a conspiracy,1,17/06/2021 12:56,17/06/2021 13:02,IP Address,For (I feel positively about the vaccines),Most months,Most days,21,Female,NA,A levels,choice,70,3,For,Against
13,1659956160300,08/08/2022 10:56:00,1659956160564,1,08/08/2022 11:56:00,94118,2,task-k2dt,NA,23522447,6893712,NA,complete,NA,62f0eb65a74512fb626299b0,computer,Desktop or Laptop,Windows 10,Chrome 104.0.0.0,1536x864,1519x714,NA,ITT Ratings,2,against,7,NA,NA,NA,NA,NA,ACCEPT,NA,NA,NA,NA,batch7pro,batch7pro,10,11,1,Screen 1,continueButton,response_rating_scale_likert_active,4773.700000047684,NA,NA,Somewhat Agree,1,0,1,0,NA,NA,NA,NA,1,statements,I've read something on social media which has told me not to,1,17/06/2021 12:55,17/06/2021 13:00,IP Address,For (I feel positively about the vaccines),A few times a year,Most months,26,Female,NA,"Postgraduate degree (MSc, MA, MPhil)",control,62,1,For,Against
14,1659956163907,08/08/2022 10:56:03,1659956164186,1,08/08/2022 11:56:04,94118,2,task-k2dt,NA,23522447,6893712,NA,complete,NA,62f0eb65a74512fb626299b0,computer,Desktop or Laptop,Windows 10,Chrome 104.0.0.0,1536x864,1519x714,NA,ITT Ratings,2,against,7,NA,NA,NA,NA,NA,ACCEPT,NA,NA,NA,NA,batch7pro,batch7pro,4,12,1,Screen 1,continueButton,response_rating_scale_likert_active,3612.199999988079,NA,NA,Strongly Disagree,1,0,1,0,NA,NA,NA,NA,1,statements,The government are putting a chip inside us,1,17/06/2021 12:49,17/06/2021 13:00,IP Address,For (I feel positively about the vaccines),Most days,Never,33,Female,NA,GCSEs,choice,61,1,For,Against
15,1659956166189,08/08/2022 10:56:06,1659956166458,1,08/08/2022 11:56:06,94118,2,task-k2dt,NA,23522447,6893712,NA,complete,NA,62f0eb65a74512fb626299b0,computer,Desktop or Laptop,Windows 10,Chrome 104.0.0.0,1536x864,1519x714,NA,ITT Ratings,2,against,7,NA,NA,NA,NA,NA,ACCEPT,NA,NA,NA,NA,batch7pro,batch7pro,24,13,1,Screen 1,continueButton,response_rating_scale_likert_active,2265.099999964237,NA,NA,Strongly Disagree,1,0,1,0,NA,NA,NA,NA,1,statements,It's a government thing to track us and keep an eye on us,1,17/06/2021 12:48,17/06/2021 13:01,IP Address,For (I feel positively about the vaccines),Rarely,Most weeks,27,Female,NA,A levels,choice,64,3,For,Against
16,1659956168987,08/08/2022 10:56:08,1659956169252,1,08/08/2022 11:56:09,94118,2,task-k2dt,NA,23522447,6893712,NA,complete,NA,62f0eb65a74512fb626299b0,computer,Desktop or Laptop,Windows 10,Chrome 104.0.0.0,1536x864,1519x714,NA,ITT Ratings,2,against,7,NA,NA,NA,NA,NA,ACCEPT,NA,NA,NA,NA,batch7pro,batch7pro,44,14,1,Screen 1,continueButton,response_rating_scale_likert_active,2784.300000011921,NA,NA,Somewhat Disagree,1,0,1,0,NA,NA,NA,NA,1,statements,It will likely reduce severity of symptoms for everyone,1,17/06/2021 12:56,17/06/2021 13:01,IP Address,For (I feel positively about the vaccines),Rarely,A few times a year,20,Female,NA,A levels,choice,67,2,For,For
17,1659956172691,08/08/2022 10:56:12,1659956172958,1,08/08/2022 11:56:12,94118,2,task-k2dt,NA,23522447,6893712,NA,complete,NA,62f0eb65a74512fb626299b0,computer,Desktop or Laptop,Windows 10,Chrome 104.0.0.0,1536x864,1519x714,NA,ITT Ratings,2,against,7,NA,NA,NA,NA,NA,ACCEPT,NA,NA,NA,NA,batch7pro,batch7pro,49,15,1,Screen 1,continueButton,response_rating_scale_likert_active,3699.5,NA,NA,Disagree,1,0,1,0,NA,NA,NA,NA,1,statements,I don't want to die so i better get one soon.,1,17/06/2021 12:49,17/06/2021 13:02,IP Address,For (I feel positively about the vaccines),Most months,A few times a year,35,Male,NA,Vocational Training / Apprenticeship,control,68,1,For,For
18,1659956175583,08/08/2022 10:56:15,1659956175846,1,08/08/2022 11:56:15,94118,2,task-k2dt,NA,23522447,6893712,NA,complete,NA,62f0eb65a74512fb626299b0,computer,Desktop or Laptop,Windows 10,Chrome 104.0.0.0,1536x864,1519x714,NA,ITT Ratings,2,against,7,NA,NA,NA,NA,NA,ACCEPT,NA,NA,NA,NA,batch7pro,batch7pro,42,16,1,Screen 1,continueButton,response_rating_scale_likert_active,2881.900000035763,NA,NA,Somewhat Agree,1,0,1,0,NA,NA,NA,NA,1,statements,The vaccine is dangerous,1,17/06/2021 12:56,17/06/2021 13:01,IP Address,For (I feel positively about the vaccines),Rarely,A few times a year,20,Female,NA,A levels,choice,67,3,For,Against
19,1659956177999,08/08/2022 10:56:17,1659956178236,1,08/08/2022 11:56:18,94118,2,task-k2dt,NA,23522447,6893712,NA,complete,NA,62f0eb65a74512fb626299b0,computer,Desktop or Laptop,Windows 10,Chrome 104.0.0.0,1536x864,1519x714,NA,ITT Ratings,2,against,7,NA,NA,NA,NA,NA,ACCEPT,NA,NA,NA,NA,batch7pro,batch7pro,52,17,1,Screen 1,continueButton,response_rating_scale_likert_active,2307.800000011921,NA,NA,Somewhat Agree,1,0,1,0,NA,NA,NA,NA,1,statements,It was developed too quickly so doesn’t work well,1,17/06/2021 12:50,17/06/2021 13:02,IP Address,For (I feel positively about the vaccines),Rarely,Once or twice a year,42,Female,NA,"Undergraduate degree (BSc, BA)",choice,69,1,For,Against
20,1659956180340,08/08/2022 10:56:20,1659956180615,1,08/08/2022 11:56:20,94118,2,task-k2dt,NA,23522447,6893712,NA,complete,NA,62f0eb65a74512fb626299b0,computer,Desktop or Laptop,Windows 10,Chrome 104.0.0.0,1536x864,1519x714,NA,ITT Ratings,2,against,7,NA,NA,NA,NA,NA,ACCEPT,NA,NA,NA,NA,batch7pro,batch7pro,46,18,1,Screen 1,continueButton,response_rating_scale_likert_active,2372.2000000476837,NA,NA,Agree,1,0,1,0,NA,NA,NA,NA,1,statements,I just don't want one,1,17/06/2021 12:49,17/06/2021 13:02,IP Address,For (I feel positively about the vaccines),Most months,A few times a year,35,Male,NA,Vocational Training / Apprenticeship,control,68,1,For,Against
21,1659956182320,08/08/2022 10:56:22,1659956182578,1,08/08/2022 11:56:22,94118,2,task-k2dt,NA,23522447,6893712,NA,complete,NA,62f0eb65a74512fb626299b0,computer,Desktop or Laptop,Windows 10,Chrome 104.0.0.0,1536x864,1519x714,NA,ITT Ratings,2,against,7,NA,NA,NA,NA,NA,ACCEPT,NA,NA,NA,NA,batch7pro,batch7pro,11,19,1,Screen 1,continueButton,response_rating_scale_likert_active,1955.399999976158,NA,NA,Strongly Disagree,1,0,1,0,NA,NA,NA,NA,1,statements,I have a phobia of needles,1,17/06/2021 12:55,17/06/2021 13:00,IP Address,For (I feel positively about the vaccines),A few times a year,Most months,26,Female,NA,"Postgraduate degree (MSc, MA, MPhil)",control,62,2,For,Against
22,1659956186606,08/08/2022 10:56:26,1659956186876,1,08/08/2022 11:56:26,94118,2,task-k2dt,NA,23522447,6893712,NA,complete,NA,62f0eb65a74512fb626299b0,computer,Desktop or Laptop,Windows 10,Chrome 104.0.0.0,1536x864,1519x714,NA,ITT Ratings,2,against,7,NA,NA,NA,NA,NA,ACCEPT,NA,NA,NA,NA,batch7pro,batch7pro,25,20,1,Screen 1,continueButton,response_rating_scale_likert_active,4291.199999988079,NA,NA,Somewhat Disagree,1,0,1,0,NA,NA,NA,NA,1,statements,Having the vaccine is less painful then the disease.,1,17/06/2021 12:48,17/06/2021 13:01,IP Address,For (I feel positively about the vaccines),Rarely,Most weeks,27,Female,NA,A levels,choice,64,1,For,For
23,1659956193969,08/08/2022 10:56:33,1659956194248,1,08/08/2022 11:56:34,94118,2,task-k2dt,NA,23522447,6893712,NA,complete,NA,62f0eb65a74512fb626299b0,computer,Desktop or Laptop,Windows 10,Chrome 104.0.0.0,1536x864,1519x714,NA,ITT Ratings,2,against,7,NA,NA,NA,NA,NA,ACCEPT,NA,NA,NA,NA,batch7pro,batch7pro,12,21,1,Screen 1,continueButton,response_rating_scale_likert_active,7364.5,NA,NA,Somewhat Disagree,1,0,1,0,NA,NA,NA,NA,1,statements,I have been told by a medical professional not to have one,1,17/06/2021 12:55,17/06/2021 13:00,IP Address,For (I feel positively about the vaccines),A few times a year,Most months,26,Female,NA,"Postgraduate degree (MSc, MA, MPhil)",control,62,3,For,Against
24,1659956197168,08/08/2022 10:56:37,1659956197428,1,08/08/2022 11:56:37,94118,2,task-k2dt,NA,23522447,6893712,NA,complete,NA,62f0eb65a74512fb626299b0,computer,Desktop or Laptop,Windows 10,Chrome 104.0.0.0,1536x864,1519x714,NA,ITT Ratings,2,against,7,NA,NA,NA,NA,NA,ACCEPT,NA,NA,NA,NA,batch7pro,batch7pro,37,22,1,Screen 1,continueButton,response_rating_scale_likert_active,3173.800000011921,NA,NA,Disagree,1,0,1,0,NA,NA,NA,NA,1,statements,I'm classed in a vulnerable category so getting the vaccine would help reduce the risk f me catching it and getting serious symptoms,1,17/06/2021 12:47,17/06/2021 13:01,IP Address,For (I feel positively about the vaccines),Most months,Most weeks,18,Male,NA,A levels,choice,66,1,For,For
25,1659956201445,08/08/2022 10:56:41,1659956201714,1,08/08/2022 11:56:41,94118,2,task-k2dt,NA,23522447,6893712,NA,complete,NA,62f0eb65a74512fb626299b0,computer,Desktop or Laptop,Windows 10,Chrome 104.0.0.0,1536x864,1519x714,NA,ITT Ratings,2,against,7,NA,NA,NA,NA,NA,ACCEPT,NA,NA,NA,NA,batch7pro,batch7pro,51,23,1,Screen 1,continueButton,response_rating_scale_likert_active,4275.899999976158,NA,NA,Somewhat Agree,1,0,1,0,NA,NA,NA,NA,1,statements,social presser to get one,1,17/06/2021 12:49,17/06/2021 13:02,IP Address,For (I feel positively about the vaccines),Most months,A few times a year,35,Male,NA,Vocational Training / Apprenticeship,control,68,3,For,For
26,1659956204273,08/08/2022 10:56:44,1659956204544,1,08/08/2022 11:56:44,94118,2,task-k2dt,NA,23522447,6893712,NA,complete,NA,62f0eb65a74512fb626299b0,computer,Desktop or Laptop,Windows 10,Chrome 104.0.0.0,1536x864,1519x714,NA,ITT Ratings,2,against,7,NA,NA,NA,NA,NA,ACCEPT,NA,NA,NA,NA,batch7pro,batch7pro,28,24,1,Screen 1,continueButton,response_rating_scale_likert_active,2823.400000035763,NA,NA,Agree,1,0,1,0,NA,NA,NA,NA,1,statements,There hasn't been enough time to develop it safely,1,17/06/2021 12:55,17/06/2021 13:01,IP Address,For (I feel positively about the vaccines),Never,A few times a year,36,Male,NA,GCSEs,choice,65,1,For,Against
27,1659956206085,08/08/2022 10:56:46,1659956206342,1,08/08/2022 11:56:46,94118,2,task-k2dt,NA,23522447,6893712,NA,complete,NA,62f0eb65a74512fb626299b0,computer,Desktop or Laptop,Windows 10,Chrome 104.0.0.0,1536x864,1519x714,NA,ITT Ratings,2,against,7,NA,NA,NA,NA,NA,ACCEPT,NA,NA,NA,NA,batch7pro,batch7pro,17,25,1,Screen 1,continueButton,response_rating_scale_likert_active,1791.800000011921,NA,NA,Agree,1,0,1,0,NA,NA,NA,NA,1,statements,I am worried about long term effects,1,17/06/2021 12:48,17/06/2021 13:00,IP Address,For (I feel positively about the vaccines),Rarely,A few times a year,38,Female,NA,"Postgraduate degree (MSc, MA, MPhil)",control,63,2,For,Against
28,1659956207947,08/08/2022 10:56:47,1659956208215,1,08/08/2022 11:56:48,94118,2,task-k2dt,NA,23522447,6893712,NA,complete,NA,62f0eb65a74512fb626299b0,computer,Desktop or Laptop,Windows 10,Chrome 104.0.0.0,1536x864,1519x714,NA,ITT Ratings,2,against,7,NA,NA,NA,NA,NA,ACCEPT,NA,NA,NA,NA,batch7pro,batch7pro,5,26,1,Screen 1,continueButton,response_rating_scale_likert_active,1866.9000000357628,NA,NA,Agree,1,0,1,0,NA,NA,NA,NA,1,statements,Don't want foreign bodies in me,1,17/06/2021 12:49,17/06/2021 13:00,IP Address,For (I feel positively about the vaccines),Most days,Never,33,Female,NA,GCSEs,choice,61,2,For,Against
29,1659956212946,08/08/2022 10:56:52,1659956213218,1,08/08/2022 11:56:53,94118,2,task-k2dt,NA,23522447,6893712,NA,complete,NA,62f0eb65a74512fb626299b0,computer,Desktop or Laptop,Windows 10,Chrome 104.0.0.0,1536x864,1519x714,NA,ITT Ratings,2,against,7,NA,NA,NA,NA,NA,ACCEPT,NA,NA,NA,NA,batch7pro,batch7pro,14,27,1,Screen 1,continueButton,response_rating_scale_likert_active,4996.5,NA,NA,Somewhat Disagree,1,0,1,0,NA,NA,NA,NA,1,statements,I want to protect others from covid,1,17/06/2021 12:55,17/06/2021 13:00,IP Address,For (I feel positively about the vaccines),A few times a year,Most months,26,Female,NA,"Postgraduate degree (MSc, MA, MPhil)",control,62,2,For,For
30,1659956217111,08/08/2022 10:56:57,1659956217392,1,08/08/2022 11:56:57,94118,2,task-k2dt,NA,23522447,6893712,NA,complete,NA,62f0eb65a74512fb626299b0,computer,Desktop or Laptop,Windows 10,Chrome 104.0.0.0,1536x864,1519x714,NA,ITT Ratings,2,against,7,NA,NA,NA,NA,NA,ACCEPT,NA,NA,NA,NA,batch7pro,batch7pro,59,28,1,Screen 1,continueButton,response_rating_scale_likert_active,4168.199999988079,NA,NA,Strongly Agree,1,0,1,0,NA,NA,NA,NA,1,statements,Vaccines aren't effective - there's a new flu jab every year because of mutations,1,17/06/2021 12:56,17/06/2021 13:02,IP Address,For (I feel positively about the vaccines),Most months,Most days,21,Female,NA,A levels,choice,70,2,For,Against
31,1659956219990,08/08/2022 10:56:59,1659956220262,1,08/08/2022 11:57:00,94118,2,task-k2dt,NA,23522447,6893712,NA,complete,NA,62f0eb65a74512fb626299b0,computer,Desktop or Laptop,Windows 10,Chrome 104.0.0.0,1536x864,1519x714,NA,ITT Ratings,2,against,7,NA,NA,NA,NA,NA,ACCEPT,NA,NA,NA,NA,batch7pro,batch7pro,21,29,1,Screen 1,continueButton,response_rating_scale_likert_active,2861.399999976158,NA,NA,Neither Agree nor Disagree,1,0,1,0,NA,NA,NA,NA,1,statements,I want to protect my loved ones,1,17/06/2021 12:48,17/06/2021 13:00,IP Address,For (I feel positively about the vaccines),Rarely,A few times a year,38,Female,NA,"Postgraduate degree (MSc, MA, MPhil)",control,63,3,For,For
32,1659956222096,08/08/2022 10:57:02,1659956222364,1,08/08/2022 11:57:02,94118,2,task-k2dt,NA,23522447,6893712,NA,complete,NA,62f0eb65a74512fb626299b0,computer,Desktop or Laptop,Windows 10,Chrome 104.0.0.0,1536x864,1519x714,NA,ITT Ratings,2,against,7,NA,NA,NA,NA,NA,ACCEPT,NA,NA,NA,NA,batch7pro,batch7pro,40,30,1,Screen 1,continueButton,response_rating_scale_likert_active,2093.900000035763,NA,NA,Disagree,1,0,1,0,NA,NA,NA,NA,1,statements,The vaccine is a tracking device,1,17/06/2021 12:56,17/06/2021 13:01,IP Address,For (I feel positively about the vaccines),Rarely,A few times a year,20,Female,NA,A levels,choice,67,1,For,Against
33,1659956226511,08/08/2022 10:57:06,1659956226780,1,08/08/2022 11:57:06,94118,2,task-k2dt,NA,23522447,6893712,NA,complete,NA,62f0eb65a74512fb626299b0,computer,Desktop or Laptop,Windows 10,Chrome 104.0.0.0,1536x864,1519x714,NA,ITT Ratings,2,against,7,NA,NA,NA,NA,NA,ACCEPT,NA,NA,NA,NA,batch7pro,batch7pro,48,31,1,Screen 1,continueButton,response_rating_scale_likert_active,4404.600000023842,NA,NA,Agree,1,0,1,0,NA,NA,NA,NA,1,statements,the body needs to deal with this natural.,1,17/06/2021 12:49,17/06/2021 13:02,IP Address,For (I feel positively about the vaccines),Most months,A few times a year,35,Male,NA,Vocational Training / Apprenticeship,control,68,3,For,Against
34,1659956228524,08/08/2022 10:57:08,1659956228800,1,08/08/2022 11:57:08,94118,2,task-k2dt,NA,23522447,6893712,NA,complete,NA,62f0eb65a74512fb626299b0,computer,Desktop or Laptop,Windows 10,Chrome 104.0.0.0,1536x864,1519x714,NA,ITT Ratings,2,against,7,NA,NA,NA,NA,NA,ACCEPT,NA,NA,NA,NA,batch7pro,batch7pro,50,32,1,Screen 1,continueButton,response_rating_scale_likert_active,2013.7999999523165,NA,NA,Strongly Agree,1,0,1,0,NA,NA,NA,NA,1,statements,get life back to normal,1,17/06/2021 12:49,17/06/2021 13:02,IP Address,For (I feel positively about the vaccines),Most months,A few times a year,35,Male,NA,Vocational Training / Apprenticeship,control,68,2,For,For
35,1659956231454,08/08/2022 10:57:11,1659956231628,1,08/08/2022 11:57:11,94118,2,task-k2dt,NA,23522447,6893712,NA,complete,NA,62f0eb65a74512fb626299b0,computer,Desktop or Laptop,Windows 10,Chrome 104.0.0.0,1536x864,1519x714,NA,ITT Ratings,2,against,7,NA,NA,NA,NA,NA,ACCEPT,NA,NA,NA,NA,batch7pro,batch7pro,29,33,1,Screen 1,continueButton,response_rating_scale_likert_active,2820.300000011921,NA,NA,Agree,1,0,1,0,NA,NA,NA,NA,1,statements,It isn't necessary unless you're a vulnerable person,1,17/06/2021 12:55,17/06/2021 13:01,IP Address,For (I feel positively about the vaccines),Never,A few times a year,36,Male,NA,GCSEs,choice,65,2,For,Against
36,1659956233153,08/08/2022 10:57:13,1659956233424,1,08/08/2022 11:57:13,94118,2,task-k2dt,NA,23522447,6893712,NA,complete,NA,62f0eb65a74512fb626299b0,computer,Desktop or Laptop,Windows 10,Chrome 104.0.0.0,1536x864,1519x714,NA,ITT Ratings,2,against,7,NA,NA,NA,NA,NA,ACCEPT,NA,NA,NA,NA,batch7pro,batch7pro,31,34,1,Screen 1,continueButton,response_rating_scale_likert_active,1786.2000000476835,NA,NA,Neither Agree nor Disagree,1,0,1,0,NA,NA,NA,NA,1,statements,I want to protect myself,1,17/06/2021 12:55,17/06/2021 13:01,IP Address,For (I feel positively about the vaccines),Never,A few times a year,36,Male,NA,GCSEs,choice,65,1,For,For
37,1659956234964,08/08/2022 10:57:14,1659956235236,1,08/08/2022 11:57:15,94118,2,task-k2dt,NA,23522447,6893712,NA,complete,NA,62f0eb65a74512fb626299b0,computer,Desktop or Laptop,Windows 10,Chrome 104.0.0.0,1536x864,1519x714,NA,ITT Ratings,2,against,7,NA,NA,NA,NA,NA,ACCEPT,NA,NA,NA,NA,batch7pro,batch7pro,61,35,1,Screen 1,continueButton,response_rating_scale_likert_active,1805.5,NA,NA,Strongly Agree,1,0,1,0,NA,NA,NA,NA,1,statements,I want everything to go back to normal,1,17/06/2021 12:56,17/06/2021 13:02,IP Address,For (I feel positively about the vaccines),Most months,Most days,21,Female,NA,A levels,choice,70,1,For,For
38,1659956237139,08/08/2022 10:57:17,1659956237386,1,08/08/2022 11:57:17,94118,2,task-k2dt,NA,23522447,6893712,NA,complete,NA,62f0eb65a74512fb626299b0,computer,Desktop or Laptop,Windows 10,Chrome 104.0.0.0,1536x864,1519x714,NA,ITT Ratings,2,against,7,NA,NA,NA,NA,NA,ACCEPT,NA,NA,NA,NA,batch7pro,batch7pro,47,36,1,Screen 1,continueButton,response_rating_scale_likert_active,2144.100000023842,NA,NA,Neither Agree nor Disagree,1,0,1,0,NA,NA,NA,NA,1,statements,i dont trust there ......,1,17/06/2021 12:49,17/06/2021 13:02,IP Address,For (I feel positively about the vaccines),Most months,A few times a year,35,Male,NA,Vocational Training / Apprenticeship,control,68,2,For,Against
39,1659956240020,08/08/2022 10:57:20,1659956240290,1,08/08/2022 11:57:20,94118,2,task-k2dt,NA,23522447,6893712,NA,complete,NA,62f0eb65a74512fb626299b0,computer,Desktop or Laptop,Windows 10,Chrome 104.0.0.0,1536x864,1519x714,NA,ITT Ratings,2,against,7,NA,NA,NA,NA,NA,ACCEPT,NA,NA,NA,NA,batch7pro,batch7pro,23,37,1,Screen 1,continueButton,response_rating_scale_likert_active,2896.899999976158,NA,NA,Somewhat Disagree,1,0,1,0,NA,NA,NA,NA,1,statements,It won't work and cause damage to our insides,1,17/06/2021 12:48,17/06/2021 13:01,IP Address,For (I feel positively about the vaccines),Rarely,Most weeks,27,Female,NA,A levels,choice,64,2,For,Against
40,1659956243510,08/08/2022 10:57:23,1659956243773,1,08/08/2022 11:57:23,94118,2,task-k2dt,NA,23522447,6893712,NA,complete,NA,62f0eb65a74512fb626299b0,computer,Desktop or Laptop,Windows 10,Chrome 104.0.0.0,1536x864,1519x714,NA,ITT Ratings,2,against,7,NA,NA,NA,NA,NA,ACCEPT,NA,NA,NA,NA,batch7pro,batch7pro,33,38,1,Screen 1,continueButton,response_rating_scale_likert_active,3472.199999988079,NA,NA,Agree,1,0,1,0,NA,NA,NA,NA,1,statements,I don't want to worry about it anymore,1,17/06/2021 12:55,17/06/2021 13:01,IP Address,For (I feel positively about the vaccines),Never,A few times a year,36,Male,NA,GCSEs,choice,65,3,For,For
41,1659956245537,08/08/2022 10:57:25,1659956245810,1,08/08/2022 11:57:25,94118,2,task-k2dt,NA,23522447,6893712,NA,complete,NA,62f0eb65a74512fb626299b0,computer,Desktop or Laptop,Windows 10,Chrome 104.0.0.0,1536x864,1519x714,NA,ITT Ratings,2,against,7,NA,NA,NA,NA,NA,ACCEPT,NA,NA,NA,NA,batch7pro,batch7pro,13,39,1,Screen 1,continueButton,response_rating_scale_likert_active,2030,NA,NA,Somewhat Disagree,1,0,1,0,NA,NA,NA,NA,1,statements,I want to protect myself from covid,1,17/06/2021 12:55,17/06/2021 13:00,IP Address,For (I feel positively about the vaccines),A few times a year,Most months,26,Female,NA,"Postgraduate degree (MSc, MA, MPhil)",control,62,1,For,For
42,1659956247653,08/08/2022 10:57:27,1659956247914,1,08/08/2022 11:57:27,94118,2,task-k2dt,NA,23522447,6893712,NA,complete,NA,62f0eb65a74512fb626299b0,computer,Desktop or Laptop,Windows 10,Chrome 104.0.0.0,1536x864,1519x714,NA,ITT Ratings,2,against,7,NA,NA,NA,NA,NA,ACCEPT,NA,NA,NA,NA,batch7pro,batch7pro,18,40,1,Screen 1,continueButton,response_rating_scale_likert_active,2097.2999999523163,NA,NA,Somewhat Agree,1,0,1,0,NA,NA,NA,NA,1,statements,I don't believe in vaccinations,1,17/06/2021 12:48,17/06/2021 13:00,IP Address,For (I feel positively about the vaccines),Rarely,A few times a year,38,Female,NA,"Postgraduate degree (MSc, MA, MPhil)",control,63,3,For,Against
43,1659956252091,08/08/2022 10:57:32,1659956252366,1,08/08/2022 11:57:32,94118,2,task-k2dt,NA,23522447,6893712,NA,complete,NA,62f0eb65a74512fb626299b0,computer,Desktop or Laptop,Windows 10,Chrome 104.0.0.0,1536x864,1519x714,NA,ITT Ratings,2,against,7,NA,NA,NA,NA,NA,ACCEPT,NA,NA,NA,NA,batch7pro,batch7pro,62,41,1,Screen 1,continueButton,response_rating_scale_likert_active,4442.599999964237,NA,NA,Agree,1,0,1,0,NA,NA,NA,NA,1,statements,I want to be able to go on holiday if there are vaccine passports,1,17/06/2021 12:56,17/06/2021 13:02,IP Address,For (I feel positively about the vaccines),Most months,Most days,21,Female,NA,A levels,choice,70,2,For,For
44,1659956255852,08/08/2022 10:57:35,1659956256019,1,08/08/2022 11:57:36,94118,2,task-k2dt,NA,23522447,6893712,NA,complete,NA,62f0eb65a74512fb626299b0,computer,Desktop or Laptop,Windows 10,Chrome 104.0.0.0,1536x864,1519x714,NA,ITT Ratings,2,against,7,NA,NA,NA,NA,NA,ACCEPT,NA,NA,NA,NA,batch7pro,batch7pro,16,42,1,Screen 1,continueButton,response_rating_scale_likert_active,3647.199999988079,NA,NA,Disagree,1,0,1,0,NA,NA,NA,NA,1,statements,I don't know enough about it,1,17/06/2021 12:48,17/06/2021 13:00,IP Address,For (I feel positively about the vaccines),Rarely,A few times a year,38,Female,NA,"Postgraduate degree (MSc, MA, MPhil)",control,63,1,For,Against
45,1659956548136,08/08/2022 11:02:28,1659956548360,1,08/08/2022 12:02:28,94118,2,task-k2dt,NA,23522447,6893712,NA,complete,NA,62f0eb65a74512fb626299b0,computer,Desktop or Laptop,Windows 10,Chrome 104.0.0.0,1536x864,1519x714,NA,ITT Ratings,2,against,7,NA,NA,NA,NA,NA,ACCEPT,NA,NA,NA,NA,batch7pro,batch7pro,36,43,1,Screen 1,continueButton,response_rating_scale_likert_active,292334.09999996424,NA,NA,Neither Agree nor Disagree,1,0,1,0,NA,NA,NA,NA,1,statements,Although it seems that the vaccine making process has been rushed it has still gone through the normal rigorous testing required to make sure its safe.,1,17/06/2021 12:47,17/06/2021 13:01,IP Address,For (I feel positively about the vaccines),Most months,Most weeks,18,Male,NA,A levels,choice,66,3,For,Against
46,1659956551404,08/08/2022 11:02:31,1659956551688,1,08/08/2022 12:02:31,94118,2,task-k2dt,NA,23522447,6893712,NA,complete,NA,62f0eb65a74512fb626299b0,computer,Desktop or Laptop,Windows 10,Chrome 104.0.0.0,1536x864,1519x714,NA,ITT Ratings,2,against,7,NA,NA,NA,NA,NA,ACCEPT,NA,NA,NA,NA,batch7pro,batch7pro,7,44,1,Screen 1,continueButton,response_rating_scale_likert_active,3310.800000011921,NA,NA,Somewhat Disagree,1,0,1,0,NA,NA,NA,NA,1,statements,Stops us getting covid so bad,1,17/06/2021 12:49,17/06/2021 13:00,IP Address,For (I feel positively about the vaccines),Most days,Never,33,Female,NA,GCSEs,choice,61,1,For,For
47,1659956555238,08/08/2022 11:02:35,1659956555512,1,08/08/2022 12:02:35,94118,2,task-k2dt,NA,23522447,6893712,NA,complete,NA,62f0eb65a74512fb626299b0,computer,Desktop or Laptop,Windows 10,Chrome 104.0.0.0,1536x864,1519x714,NA,ITT Ratings,2,against,7,NA,NA,NA,NA,NA,ACCEPT,NA,NA,NA,NA,batch7pro,batch7pro,56,45,1,Screen 1,continueButton,response_rating_scale_likert_active,3816.599999964237,NA,NA,Somewhat Disagree,1,0,1,0,NA,NA,NA,NA,1,statements,It will mean our lives can start to get back to normal,1,17/06/2021 12:50,17/06/2021 13:02,IP Address,For (I feel positively about the vaccines),Rarely,Once or twice a year,42,Female,NA,"Undergraduate degree (BSc, BA)",choice,69,2,For,For
48,1659956556952,08/08/2022 11:02:36,1659956557229,1,08/08/2022 12:02:37,94118,2,task-k2dt,NA,23522447,6893712,NA,complete,NA,62f0eb65a74512fb626299b0,computer,Desktop or Laptop,Windows 10,Chrome 104.0.0.0,1536x864,1519x714,NA,ITT Ratings,2,against,7,NA,NA,NA,NA,NA,ACCEPT,NA,NA,NA,NA,batch7pro,batch7pro,8,46,1,Screen 1,continueButton,response_rating_scale_likert_active,1707.600000023842,NA,NA,Somewhat Disagree,1,0,1,0,NA,NA,NA,NA,1,statements,Protect us from virus,1,17/06/2021 12:49,17/06/2021 13:00,IP Address,For (I feel positively about the vaccines),Most days,Never,33,Female,NA,GCSEs,choice,61,2,For,For
49,1659956559642,08/08/2022 11:02:39,1659956559912,1,08/08/2022 12:02:39,94118,2,task-k2dt,NA,23522447,6893712,NA,complete,NA,62f0eb65a74512fb626299b0,computer,Desktop or Laptop,Windows 10,Chrome 104.0.0.0,1536x864,1519x714,NA,ITT Ratings,2,against,7,NA,NA,NA,NA,NA,ACCEPT,NA,NA,NA,NA,batch7pro,batch7pro,54,47,1,Screen 1,continueButton,response_rating_scale_likert_active,2676.699999988079,NA,NA,Disagree,1,0,1,0,NA,NA,NA,NA,1,statements,I don't believe in COVID-19,1,17/06/2021 12:50,17/06/2021 13:02,IP Address,For (I feel positively about the vaccines),Rarely,Once or twice a year,42,Female,NA,"Undergraduate degree (BSc, BA)",choice,69,3,For,Against
50,1659956561599,08/08/2022 11:02:41,1659956561873,1,08/08/2022 12:02:41,94118,2,task-k2dt,NA,23522447,6893712,NA,complete,NA,62f0eb65a74512fb626299b0,computer,Desktop or Laptop,Windows 10,Chrome 104.0.0.0,1536x864,1519x714,NA,ITT Ratings,2,against,7,NA,NA,NA,NA,NA,ACCEPT,NA,NA,NA,NA,batch7pro,batch7pro,41,48,1,Screen 1,continueButton,response_rating_scale_likert_active,1953.5999999642372,NA,NA,Somewhat Agree,1,0,1,0,NA,NA,NA,NA,1,statements,The development has been rushed,1,17/06/2021 12:56,17/06/2021 13:01,IP Address,For (I feel positively about the vaccines),Rarely,A few times a year,20,Female,NA,A levels,choice,67,2,For,Against
51,1659956564022,08/08/2022 11:02:44,1659956564301,1,08/08/2022 12:02:44,94118,2,task-k2dt,NA,23522447,6893712,NA,complete,NA,62f0eb65a74512fb626299b0,computer,Desktop or Laptop,Windows 10,Chrome 104.0.0.0,1536x864,1519x714,NA,ITT Ratings,2,against,7,NA,NA,NA,NA,NA,ACCEPT,NA,NA,NA,NA,batch7pro,batch7pro,57,49,1,Screen 1,continueButton,response_rating_scale_likert_active,2415.5,NA,NA,Somewhat Disagree,1,0,1,0,NA,NA,NA,NA,1,statements,It's safe and developed by experts,1,17/06/2021 12:50,17/06/2021 13:02,IP Address,For (I feel positively about the vaccines),Rarely,Once or twice a year,42,Female,NA,"Undergraduate degree (BSc, BA)",choice,69,3,For,For
52,1659956566290,08/08/2022 11:02:46,1659956566569,1,08/08/2022 12:02:46,94118,2,task-k2dt,NA,23522447,6893712,NA,complete,NA,62f0eb65a74512fb626299b0,computer,Desktop or Laptop,Windows 10,Chrome 104.0.0.0,1536x864,1519x714,NA,ITT Ratings,2,against,7,NA,NA,NA,NA,NA,ACCEPT,NA,NA,NA,NA,batch7pro,batch7pro,15,50,1,Screen 1,continueButton,response_rating_scale_likert_active,2260.7000000476837,NA,NA,Somewhat Disagree,1,0,1,0,NA,NA,NA,NA,1,statements,I see no reason to not get vaccinated and I have been asked to do so,1,17/06/2021 12:55,17/06/2021 13:00,IP Address,For (I feel positively about the vaccines),A few times a year,Most months,26,Female,NA,"Postgraduate degree (MSc, MA, MPhil)",control,62,3,For,For
53,1659956569852,08/08/2022 11:02:49,1659956570131,1,08/08/2022 12:02:50,94118,2,task-k2dt,NA,23522447,6893712,NA,complete,NA,62f0eb65a74512fb626299b0,computer,Desktop or Laptop,Windows 10,Chrome 104.0.0.0,1536x864,1519x714,NA,ITT Ratings,2,against,7,NA,NA,NA,NA,NA,ACCEPT,NA,NA,NA,NA,batch7pro,batch7pro,20,51,1,Screen 1,continueButton,response_rating_scale_likert_active,3555.599999964237,NA,NA,Agree,1,0,1,0,NA,NA,NA,NA,1,statements,I want to have more freedoms again,1,17/06/2021 12:48,17/06/2021 13:00,IP Address,For (I feel positively about the vaccines),Rarely,A few times a year,38,Female,NA,"Postgraduate degree (MSc, MA, MPhil)",control,63,2,For,For
54,1659956571822,08/08/2022 11:02:51,1659956572097,1,08/08/2022 12:02:52,94118,2,task-k2dt,NA,23522447,6893712,NA,complete,NA,62f0eb65a74512fb626299b0,computer,Desktop or Laptop,Windows 10,Chrome 104.0.0.0,1536x864,1519x714,NA,ITT Ratings,2,against,7,NA,NA,NA,NA,NA,ACCEPT,NA,NA,NA,NA,batch7pro,batch7pro,19,52,1,Screen 1,continueButton,response_rating_scale_likert_active,1960.800000011921,NA,NA,Neither Agree nor Disagree,1,0,1,0,NA,NA,NA,NA,1,statements,I want to be protected,1,17/06/2021 12:48,17/06/2021 13:00,IP Address,For (I feel positively about the vaccines),Rarely,A few times a year,38,Female,NA,"Postgraduate degree (MSc, MA, MPhil)",control,63,1,For,For
55,1659956577134,08/08/2022 11:02:57,1659956577407,1,08/08/2022 12:02:57,94118,2,task-k2dt,NA,23522447,6893712,NA,complete,NA,62f0eb65a74512fb626299b0,computer,Desktop or Laptop,Windows 10,Chrome 104.0.0.0,1536x864,1519x714,NA,ITT Ratings,2,against,7,NA,NA,NA,NA,NA,ACCEPT,NA,NA,NA,NA,batch7pro,batch7pro,34,53,1,Screen 1,continueButton,response_rating_scale_likert_active,5303.099999964237,NA,NA,Neither Agree nor Disagree,1,0,1,0,NA,NA,NA,NA,1,statements,The vaccines are effective as they can keep you from getting and spreading the virus that causes COVID-19.,1,17/06/2021 12:47,17/06/2021 13:01,IP Address,For (I feel positively about the vaccines),Most months,Most weeks,18,Male,NA,A levels,choice,66,1,For,Against
56,1659956581414,08/08/2022 11:03:01,1659956581689,1,08/08/2022 12:03:01,94118,2,task-k2dt,NA,23522447,6893712,NA,complete,NA,62f0eb65a74512fb626299b0,computer,Desktop or Laptop,Windows 10,Chrome 104.0.0.0,1536x864,1519x714,NA,ITT Ratings,2,against,7,NA,NA,NA,NA,NA,ACCEPT,NA,NA,NA,NA,batch7pro,batch7pro,27,54,1,Screen 1,continueButton,response_rating_scale_likert_active,4274.199999988079,NA,NA,Somewhat Disagree,1,0,1,0,NA,NA,NA,NA,1,statements,It will help protect me and others around me,1,17/06/2021 12:48,17/06/2021 13:01,IP Address,For (I feel positively about the vaccines),Rarely,Most weeks,27,Female,NA,A levels,choice,64,3,For,For
57,1659956585030,08/08/2022 11:03:05,1659956585303,1,08/08/2022 12:03:05,94118,2,task-k2dt,NA,23522447,6893712,NA,complete,NA,62f0eb65a74512fb626299b0,computer,Desktop or Laptop,Windows 10,Chrome 104.0.0.0,1536x864,1519x714,NA,ITT Ratings,2,against,7,NA,NA,NA,NA,NA,ACCEPT,NA,NA,NA,NA,batch7pro,batch7pro,58,55,1,Screen 1,continueButton,response_rating_scale_likert_active,3607.899999976158,NA,NA,Somewhat Agree,1,0,1,0,NA,NA,NA,NA,1,statements,I don't know whats in them - how can they produce something effective so quickly,1,17/06/2021 12:56,17/06/2021 13:02,IP Address,For (I feel positively about the vaccines),Most months,Most days,21,Female,NA,A levels,choice,70,1,For,Against
58,1659956589421,08/08/2022 11:03:09,1659956589690,1,08/08/2022 12:03:09,94118,2,task-k2dt,NA,23522447,6893712,NA,complete,NA,62f0eb65a74512fb626299b0,computer,Desktop or Laptop,Windows 10,Chrome 104.0.0.0,1536x864,1519x714,NA,ITT Ratings,2,against,7,NA,NA,NA,NA,NA,ACCEPT,NA,NA,NA,NA,batch7pro,batch7pro,63,56,1,Screen 1,continueButton,response_rating_scale_likert_active,4377.599999964237,NA,NA,Strongly Agree,1,0,1,0,NA,NA,NA,NA,1,statements,I want to protect those who are vulnerable through herd immunity,1,17/06/2021 12:56,17/06/2021 13:02,IP Address,For (I feel positively about the vaccines),Most months,Most days,21,Female,NA,A levels,choice,70,3,For,For
59,1659956592133,08/08/2022 11:03:12,1659956592414,1,08/08/2022 12:03:12,94118,2,task-k2dt,NA,23522447,6893712,NA,complete,NA,62f0eb65a74512fb626299b0,computer,Desktop or Laptop,Windows 10,Chrome 104.0.0.0,1536x864,1519x714,NA,ITT Ratings,2,against,7,NA,NA,NA,NA,NA,ACCEPT,NA,NA,NA,NA,batch7pro,batch7pro,9,57,1,Screen 1,continueButton,response_rating_scale_likert_active,2716.699999988079,NA,NA,Somewhat Disagree,1,0,1,0,NA,NA,NA,NA,1,statements,Protecting others from the virus,1,17/06/2021 12:49,17/06/2021 13:00,IP Address,For (I feel positively about the vaccines),Most days,Never,33,Female,NA,GCSEs,choice,61,3,For,For
60,1659956595860,08/08/2022 11:03:15,1659956596101,1,08/08/2022 12:03:16,94118,2,task-k2dt,NA,23522447,6893712,NA,complete,NA,62f0eb65a74512fb626299b0,computer,Desktop or Laptop,Windows 10,Chrome 104.0.0.0,1536x864,1519x714,NA,ITT Ratings,2,against,7,NA,NA,NA,NA,NA,ACCEPT,NA,NA,NA,NA,batch7pro,batch7pro,53,58,1,Screen 1,continueButton,response_rating_scale_likert_active,3680.800000011921,NA,NA,Somewhat Agree,1,0,1,0,NA,NA,NA,NA,1,statements,It's dangerous and gives you a dose of covid,1,17/06/2021 12:50,17/06/2021 13:02,IP Address,For (I feel positively about the vaccines),Rarely,Once or twice a year,42,Female,NA,"Undergraduate degree (BSc, BA)",choice,69,2,For,Against
61,1659956597706,08/08/2022 11:03:17,1659956597974,1,08/08/2022 12:03:17,94118,2,task-k2dt,NA,23522447,6893712,NA,complete,NA,62f0eb65a74512fb626299b0,computer,Desktop or Laptop,Windows 10,Chrome 104.0.0.0,1536x864,1519x714,NA,ITT Ratings,2,against,7,NA,NA,NA,NA,NA,ACCEPT,NA,NA,NA,NA,batch7pro,batch7pro,6,59,1,Screen 1,continueButton,response_rating_scale_likert_active,1865.300000011921,NA,NA,Somewhat Disagree,1,0,1,0,NA,NA,NA,NA,1,statements,I think it's a scam,1,17/06/2021 12:49,17/06/2021 13:00,IP Address,For (I feel positively about the vaccines),Most days,Never,33,Female,NA,GCSEs,choice,61,3,For,Against
62,1659956607469,08/08/2022 11:03:27,1659956607723,1,08/08/2022 12:03:27,94118,2,task-k2dt,NA,23522447,6893712,NA,complete,NA,62f0eb65a74512fb626299b0,computer,Desktop or Laptop,Windows 10,Chrome 104.0.0.0,1536x864,1519x714,NA,ITT Ratings,2,against,7,NA,NA,NA,NA,NA,ACCEPT,NA,NA,NA,NA,batch7pro,batch7pro,39,60,1,Screen 1,continueButton,response_rating_scale_likert_active,9737.599999964235,NA,NA,Neither Agree nor Disagree,1,0,1,0,NA,NA,NA,NA,1,statements,To contribute to herd immunity to help eradicate the virus altogether.,1,17/06/2021 12:47,17/06/2021 13:01,IP Address,For (I feel positively about the vaccines),Most months,Most weeks,18,Male,NA,A levels,choice,66,3,For,For
63,1659956610290,08/08/2022 11:03:30,1659956610562,1,08/08/2022 12:03:30,94118,2,task-k2dt,NA,23522447,6893712,NA,complete,NA,62f0eb65a74512fb626299b0,computer,Desktop or Laptop,Windows 10,Chrome 104.0.0.0,1536x864,1519x714,NA,ITT Ratings,2,against,7,NA,NA,NA,NA,NA,ACCEPT,NA,NA,NA,NA,batch7pro,batch7pro,43,61,1,Screen 1,continueButton,response_rating_scale_likert_active,2833.399999976158,NA,NA,Disagree,1,0,1,0,NA,NA,NA,NA,1,statements,"If everyone is vaccinated, vulnerable people will be safer",1,17/06/2021 12:56,17/06/2021 13:01,IP Address,For (I feel positively about the vaccines),Rarely,A few times a year,20,Female,NA,A levels,choice,67,1,For,For
64,1659956612107,08/08/2022 11:03:32,1659956612384,1,08/08/2022 12:03:32,94118,2,task-k2dt,NA,23522447,6893712,NA,complete,NA,62f0eb65a74512fb626299b0,computer,Desktop or Laptop,Windows 10,Chrome 104.0.0.0,1536x864,1519x714,NA,ITT Ratings,2,against,7,NA,NA,NA,NA,NA,ACCEPT,NA,NA,NA,NA,batch7pro,batch7pro,30,62,1,Screen 1,continueButton,response_rating_scale_likert_active,1817,NA,NA,Disagree,1,0,1,0,NA,NA,NA,NA,1,statements,I believe it's a conspiracy,1,17/06/2021 12:55,17/06/2021 13:01,IP Address,For (I feel positively about the vaccines),Never,A few times a year,36,Male,NA,GCSEs,choice,65,3,For,Against
65,1659956612167,08/08/2022 11:03:32,1659956612387,1,08/08/2022 12:03:32,94118,2,task-k2dt,NA,23522447,6893712,NA,complete,NA,62f0eb65a74512fb626299b0,computer,Desktop or Laptop,Windows 10,Chrome 104.0.0.0,1536x864,1519x714,NA,ITT Ratings,2,against,7,NA,NA,NA,NA,NA,ACCEPT,NA,NA,NA,NA,batch7pro,NA,NA,END TASK,NA,NA,NA,NA,511033,NA,NA,NA,NA,0,1,0,NA,NA,NA,NA,NA,NA,NA,NA,NA,NA,NA,NA,NA,NA,NA,NA,NA,NA,NA,NA,NA,NA,NA
1,1659956949248,08/08/2022 11:09:09,1659956949189,1,08/08/2022 12:09:09,94118,2,task-k2dt,NA,23522682,6893786,NA,complete,NA,62f0eeb5e09a3fc87abfd651,computer,Desktop or Laptop,Linux x86_64,Chrome 104.0.5112.81,1920x1080,1878x903,NA,ITT Ratings,2,against,7,NA,NA,NA,NA,NA,ACCEPT,NA,NA,NA,NA,batch7pro,NA,NA,BEGIN TASK,NA,NA,NA,NA,NA,NA,NA,NA,NA,0,1,0,NA,NA,NA,NA,NA,NA,NA,NA,NA,NA,NA,NA,NA,NA,NA,NA,NA,NA,NA,NA,NA,NA,NA
2,1659956955498,08/08/2022 11:09:15,1659956955483,1,08/08/2022 12:09:15,94118,2,task-k2dt,NA,23522682,6893786,NA,complete,NA,62f0eeb5e09a3fc87abfd651,computer,Desktop or Laptop,Linux x86_64,Chrome 104.0.5112.81,1920x1080,1878x903,NA,ITT Ratings,2,against,7,NA,NA,NA,NA,NA,ACCEPT,NA,NA,NA,NA,batch7pro,batch7pro,1,1,1,Screen 1,advancementZone,continue_button,6263.69999999553,NA,NA,NA,NA,0,1,0,NA,NA,NA,NA,NA,instructions,NA,NA,NA,NA,NA,NA,NA,NA,NA,NA,NA,NA,NA,NA,NA,NA,NA
3,1659956960427,08/08/2022 11:09:20,1659956960439,1,08/08/2022 12:09:20,94118,2,task-k2dt,NA,23522682,6893786,NA,complete,NA,62f0eeb5e09a3fc87abfd651,computer,Desktop or Laptop,Linux x86_64,Chrome 104.0.5112.81,1920x1080,1878x903,NA,ITT Ratings,2,against,7,NA,NA,NA,NA,NA,ACCEPT,NA,NA,NA,NA,batch7pro,batch7pro,55,1,1,Screen 1,continueButton,response_rating_scale_likert_active,4943.79999999702,NA,NA,Disagree,1,0,1,0,NA,NA,NA,NA,1,statements,It protects you and your family against the virus,1,17/06/2021 12:50,17/06/2021 13:02,IP Address,For (I feel positively about the vaccines),Rarely,Once or twice a year,42,Female,NA,"Undergraduate degree (BSc, BA)",choice,69,1,For,For
4,1659956962810,08/08/2022 11:09:22,1659956962791,1,08/08/2022 12:09:22,94118,2,task-k2dt,NA,23522682,6893786,NA,complete,NA,62f0eeb5e09a3fc87abfd651,computer,Desktop or Laptop,Linux x86_64,Chrome 104.0.5112.81,1920x1080,1878x903,NA,ITT Ratings,2,against,7,NA,NA,NA,NA,NA,ACCEPT,NA,NA,NA,NA,batch7pro,batch7pro,17,2,1,Screen 1,continueButton,response_rating_scale_likert_active,2339.8000000044703,NA,NA,Agree,1,0,1,0,NA,NA,NA,NA,1,statements,I am worried about long term effects,1,17/06/2021 12:48,17/06/2021 13:00,IP Address,For (I feel positively about the vaccines),Rarely,A few times a year,38,Female,NA,"Postgraduate degree (MSc, MA, MPhil)",control,63,2,For,Against
5,1659956966298,08/08/2022 11:09:26,1659956966284,1,08/08/2022 12:09:26,94118,2,task-k2dt,NA,23522682,6893786,NA,complete,NA,62f0eeb5e09a3fc87abfd651,computer,Desktop or Laptop,Linux x86_64,Chrome 104.0.5112.81,1920x1080,1878x903,NA,ITT Ratings,2,against,7,NA,NA,NA,NA,NA,ACCEPT,NA,NA,NA,NA,batch7pro,batch7pro,45,3,1,Screen 1,continueButton,response_rating_scale_likert_active,3484.70000000298,NA,NA,Strongly Disagree,1,0,1,0,NA,NA,NA,NA,1,statements,"The quicker society is vaccinated, the quicker normality can return",1,17/06/2021 12:56,17/06/2021 13:01,IP Address,For (I feel positively about the vaccines),Rarely,A few times a year,20,Female,NA,A levels,choice,67,3,For,For
6,1659956969434,08/08/2022 11:09:29,1659956969424,1,08/08/2022 12:09:29,94118,2,task-k2dt,NA,23522682,6893786,NA,complete,NA,62f0eeb5e09a3fc87abfd651,computer,Desktop or Laptop,Linux x86_64,Chrome 104.0.5112.81,1920x1080,1878x903,NA,ITT Ratings,2,against,7,NA,NA,NA,NA,NA,ACCEPT,NA,NA,NA,NA,batch7pro,batch7pro,14,4,1,Screen 1,continueButton,response_rating_scale_likert_active,3131.60000000149,NA,NA,Neither Agree nor Disagree,1,0,1,0,NA,NA,NA,NA,1,statements,I want to protect others from covid,1,17/06/2021 12:55,17/06/2021 13:00,IP Address,For (I feel positively about the vaccines),A few times a year,Most months,26,Female,NA,"Postgraduate degree (MSc, MA, MPhil)",control,62,2,For,For
7,1659956972541,08/08/2022 11:09:32,1659956972537,1,08/08/2022 12:09:32,94118,2,task-k2dt,NA,23522682,6893786,NA,complete,NA,62f0eeb5e09a3fc87abfd651,computer,Desktop or Laptop,Linux x86_64,Chrome 104.0.5112.81,1920x1080,1878x903,NA,ITT Ratings,2,against,7,NA,NA,NA,NA,NA,ACCEPT,NA,NA,NA,NA,batch7pro,batch7pro,43,5,1,Screen 1,continueButton,response_rating_scale_likert_active,3082,NA,NA,Disagree,1,0,1,0,NA,NA,NA,NA,1,statements,"If everyone is vaccinated, vulnerable people will be safer",1,17/06/2021 12:56,17/06/2021 13:01,IP Address,For (I feel positively about the vaccines),Rarely,A few times a year,20,Female,NA,A levels,choice,67,1,For,For
8,1659956974886,08/08/2022 11:09:34,1659956974897,1,08/08/2022 12:09:34,94118,2,task-k2dt,NA,23522682,6893786,NA,complete,NA,62f0eeb5e09a3fc87abfd651,computer,Desktop or Laptop,Linux x86_64,Chrome 104.0.5112.81,1920x1080,1878x903,NA,ITT Ratings,2,against,7,NA,NA,NA,NA,NA,ACCEPT,NA,NA,NA,NA,batch7pro,batch7pro,5,6,1,Screen 1,continueButton,response_rating_scale_likert_active,2351.10000000149,NA,NA,Agree,1,0,1,0,NA,NA,NA,NA,1,statements,Don't want foreign bodies in me,1,17/06/2021 12:49,17/06/2021 13:00,IP Address,For (I feel positively about the vaccines),Most days,Never,33,Female,NA,GCSEs,choice,61,2,For,Against
9,1659956977720,08/08/2022 11:09:37,1659956977728,1,08/08/2022 12:09:37,94118,2,task-k2dt,NA,23522682,6893786,NA,complete,NA,62f0eeb5e09a3fc87abfd651,computer,Desktop or Laptop,Linux x86_64,Chrome 104.0.5112.81,1920x1080,1878x903,NA,ITT Ratings,2,against,7,NA,NA,NA,NA,NA,ACCEPT,NA,NA,NA,NA,batch7pro,batch7pro,4,7,1,Screen 1,continueButton,response_rating_scale_likert_active,2821.29999999702,NA,NA,Neither Agree nor Disagree,1,0,1,0,NA,NA,NA,NA,1,statements,The government are putting a chip inside us,1,17/06/2021 12:49,17/06/2021 13:00,IP Address,For (I feel positively about the vaccines),Most days,Never,33,Female,NA,GCSEs,choice,61,1,For,Against
10,1659956983682,08/08/2022 11:09:43,1659956983684,1,08/08/2022 12:09:43,94118,2,task-k2dt,NA,23522682,6893786,NA,complete,NA,62f0eeb5e09a3fc87abfd651,computer,Desktop or Laptop,Linux x86_64,Chrome 104.0.5112.81,1920x1080,1878x903,NA,ITT Ratings,2,against,7,NA,NA,NA,NA,NA,ACCEPT,NA,NA,NA,NA,batch7pro,batch7pro,59,8,1,Screen 1,continueButton,response_rating_scale_likert_active,5946.80000000447,NA,NA,Agree,1,0,1,0,NA,NA,NA,NA,1,statements,Vaccines aren't effective - there's a new flu jab every year because of mutations,1,17/06/2021 12:56,17/06/2021 13:02,IP Address,For (I feel positively about the vaccines),Most months,Most days,21,Female,NA,A levels,choice,70,2,For,Against
11,1659956986459,08/08/2022 11:09:46,1659956986470,1,08/08/2022 12:09:46,94118,2,task-k2dt,NA,23522682,6893786,NA,complete,NA,62f0eeb5e09a3fc87abfd651,computer,Desktop or Laptop,Linux x86_64,Chrome 104.0.5112.81,1920x1080,1878x903,NA,ITT Ratings,2,against,7,NA,NA,NA,NA,NA,ACCEPT,NA,NA,NA,NA,batch7pro,batch7pro,25,9,1,Screen 1,continueButton,response_rating_scale_likert_active,2765.10000000149,NA,NA,Disagree,1,0,1,0,NA,NA,NA,NA,1,statements,Having the vaccine is less painful then the disease.,1,17/06/2021 12:48,17/06/2021 13:01,IP Address,For (I feel positively about the vaccines),Rarely,Most weeks,27,Female,NA,A levels,choice,64,1,For,For
12,1659956991623,08/08/2022 11:09:51,1659956991639,1,08/08/2022 12:09:51,94118,2,task-k2dt,NA,23522682,6893786,NA,complete,NA,62f0eeb5e09a3fc87abfd651,computer,Desktop or Laptop,Linux x86_64,Chrome 104.0.5112.81,1920x1080,1878x903,NA,ITT Ratings,2,against,7,NA,NA,NA,NA,NA,ACCEPT,NA,NA,NA,NA,batch7pro,batch7pro,58,10,1,Screen 1,continueButton,response_rating_scale_likert_active,5160.60000000149,NA,NA,Somewhat Agree,1,0,1,0,NA,NA,NA,NA,1,statements,I don't know whats in them - how can they produce something effective so quickly,1,17/06/2021 12:56,17/06/2021 13:02,IP Address,For (I feel positively about the vaccines),Most months,Most days,21,Female,NA,A levels,choice,70,1,For,Against
13,1659956991685,08/08/2022 11:09:51,1659956991675,1,08/08/2022 12:09:51,94118,2,task-k2dt,NA,23522682,6893786,NA,complete,NA,62f0eeb5e09a3fc87abfd651,computer,Desktop or Laptop,Linux x86_64,Chrome 104.0.5112.81,1920x1080,1878x903,NA,ITT Ratings,2,against,7,NA,NA,NA,NA,NA,ACCEPT,NA,NA,NA,NA,batch7pro,batch7pro,12,11,1,Screen 1,continueButton,response_rating_scale_likert_active,27.400000005960464,NA,NA,Somewhat Agree,1,0,1,0,NA,NA,NA,NA,1,statements,I have been told by a medical professional not to have one,1,17/06/2021 12:55,17/06/2021 13:00,IP Address,For (I feel positively about the vaccines),A few times a year,Most months,26,Female,NA,"Postgraduate degree (MSc, MA, MPhil)",control,62,3,For,Against
14,1659956995356,08/08/2022 11:09:55,1659956995368,1,08/08/2022 12:09:55,94118,2,task-k2dt,NA,23522682,6893786,NA,complete,NA,62f0eeb5e09a3fc87abfd651,computer,Desktop or Laptop,Linux x86_64,Chrome 104.0.5112.81,1920x1080,1878x903,NA,ITT Ratings,2,against,7,NA,NA,NA,NA,NA,ACCEPT,NA,NA,NA,NA,batch7pro,batch7pro,15,12,1,Screen 1,continueButton,response_rating_scale_likert_active,3684.8000000044703,NA,NA,Strongly Disagree,1,0,1,0,NA,NA,NA,NA,1,statements,I see no reason to not get vaccinated and I have been asked to do so,1,17/06/2021 12:55,17/06/2021 13:00,IP Address,For (I feel positively about the vaccines),A few times a year,Most months,26,Female,NA,"Postgraduate degree (MSc, MA, MPhil)",control,62,3,For,For
15,1659956999724,08/08/2022 11:09:59,1659956999739,1,08/08/2022 12:09:59,94118,2,task-k2dt,NA,23522682,6893786,NA,complete,NA,62f0eeb5e09a3fc87abfd651,computer,Desktop or Laptop,Linux x86_64,Chrome 104.0.5112.81,1920x1080,1878x903,NA,ITT Ratings,2,against,7,NA,NA,NA,NA,NA,ACCEPT,NA,NA,NA,NA,batch7pro,batch7pro,62,13,1,Screen 1,continueButton,response_rating_scale_likert_active,4363,NA,NA,Neither Agree nor Disagree,1,0,1,0,NA,NA,NA,NA,1,statements,I want to be able to go on holiday if there are vaccine passports,1,17/06/2021 12:56,17/06/2021 13:02,IP Address,For (I feel positively about the vaccines),Most months,Most days,21,Female,NA,A levels,choice,70,2,For,For
16,1659957005311,08/08/2022 11:10:05,1659957005329,1,08/08/2022 12:10:05,94118,2,task-k2dt,NA,23522682,6893786,NA,complete,NA,62f0eeb5e09a3fc87abfd651,computer,Desktop or Laptop,Linux x86_64,Chrome 104.0.5112.81,1920x1080,1878x903,NA,ITT Ratings,2,against,7,NA,NA,NA,NA,NA,ACCEPT,NA,NA,NA,NA,batch7pro,batch7pro,24,14,1,Screen 1,continueButton,response_rating_scale_likert_active,5582,NA,NA,Neither Agree nor Disagree,1,0,1,0,NA,NA,NA,NA,1,statements,It's a government thing to track us and keep an eye on us,1,17/06/2021 12:48,17/06/2021 13:01,IP Address,For (I feel positively about the vaccines),Rarely,Most weeks,27,Female,NA,A levels,choice,64,3,For,Against
17,1659957010292,08/08/2022 11:10:10,1659957010308,1,08/08/2022 12:10:10,94118,2,task-k2dt,NA,23522682,6893786,NA,complete,NA,62f0eeb5e09a3fc87abfd651,computer,Desktop or Laptop,Linux x86_64,Chrome 104.0.5112.81,1920x1080,1878x903,NA,ITT Ratings,2,against,7,NA,NA,NA,NA,NA,ACCEPT,NA,NA,NA,NA,batch7pro,batch7pro,9,15,1,Screen 1,continueButton,response_rating_scale_likert_active,4969.39999999851,NA,NA,Neither Agree nor Disagree,1,0,1,0,NA,NA,NA,NA,1,statements,Protecting others from the virus,1,17/06/2021 12:49,17/06/2021 13:00,IP Address,For (I feel positively about the vaccines),Most days,Never,33,Female,NA,GCSEs,choice,61,3,For,For
18,1659957013996,08/08/2022 11:10:13,1659957014006,1,08/08/2022 12:10:14,94118,2,task-k2dt,NA,23522682,6893786,NA,complete,NA,62f0eeb5e09a3fc87abfd651,computer,Desktop or Laptop,Linux x86_64,Chrome 104.0.5112.81,1920x1080,1878x903,NA,ITT Ratings,2,against,7,NA,NA,NA,NA,NA,ACCEPT,NA,NA,NA,NA,batch7pro,batch7pro,23,16,1,Screen 1,continueButton,response_rating_scale_likert_active,3671.79999999702,NA,NA,Neither Agree nor Disagree,1,0,1,0,NA,NA,NA,NA,1,statements,It won't work and cause damage to our insides,1,17/06/2021 12:48,17/06/2021 13:01,IP Address,For (I feel positively about the vaccines),Rarely,Most weeks,27,Female,NA,A levels,choice,64,2,For,Against
19,1659957039508,08/08/2022 11:10:39,1659957039502,1,08/08/2022 12:10:39,94118,2,task-k2dt,NA,23522682,6893786,NA,complete,NA,62f0eeb5e09a3fc87abfd651,computer,Desktop or Laptop,Linux x86_64,Chrome 104.0.5112.81,1920x1080,1878x903,NA,ITT Ratings,2,against,7,NA,NA,NA,NA,NA,ACCEPT,NA,NA,NA,NA,batch7pro,batch7pro,33,17,1,Screen 1,continueButton,response_rating_scale_likert_active,25487.60000000149,NA,NA,Neither Agree nor Disagree,1,0,1,0,NA,NA,NA,NA,1,statements,I don't want to worry about it anymore,1,17/06/2021 12:55,17/06/2021 13:01,IP Address,For (I feel positively about the vaccines),Never,A few times a year,36,Male,NA,GCSEs,choice,65,3,For,For
20,1659957041933,08/08/2022 11:10:41,1659957041954,1,08/08/2022 12:10:41,94118,2,task-k2dt,NA,23522682,6893786,NA,complete,NA,62f0eeb5e09a3fc87abfd651,computer,Desktop or Laptop,Linux x86_64,Chrome 104.0.5112.81,1920x1080,1878x903,NA,ITT Ratings,2,against,7,NA,NA,NA,NA,NA,ACCEPT,NA,NA,NA,NA,batch7pro,batch7pro,49,18,1,Screen 1,continueButton,response_rating_scale_likert_active,2443.70000000298,NA,NA,Neither Agree nor Disagree,1,0,1,0,NA,NA,NA,NA,1,statements,I don't want to die so i better get one soon.,1,17/06/2021 12:49,17/06/2021 13:02,IP Address,For (I feel positively about the vaccines),Most months,A few times a year,35,Male,NA,Vocational Training / Apprenticeship,control,68,1,For,For
21,1659957044670,08/08/2022 11:10:44,1659957044692,1,08/08/2022 12:10:44,94118,2,task-k2dt,NA,23522682,6893786,NA,complete,NA,62f0eeb5e09a3fc87abfd651,computer,Desktop or Laptop,Linux x86_64,Chrome 104.0.5112.81,1920x1080,1878x903,NA,ITT Ratings,2,against,7,NA,NA,NA,NA,NA,ACCEPT,NA,NA,NA,NA,batch7pro,batch7pro,16,19,1,Screen 1,continueButton,response_rating_scale_likert_active,2730,NA,NA,Agree,1,0,1,0,NA,NA,NA,NA,1,statements,I don't know enough about it,1,17/06/2021 12:48,17/06/2021 13:00,IP Address,For (I feel positively about the vaccines),Rarely,A few times a year,38,Female,NA,"Postgraduate degree (MSc, MA, MPhil)",control,63,1,For,Against
22,1659957046556,08/08/2022 11:10:46,1659957046567,1,08/08/2022 12:10:46,94118,2,task-k2dt,NA,23522682,6893786,NA,complete,NA,62f0eeb5e09a3fc87abfd651,computer,Desktop or Laptop,Linux x86_64,Chrome 104.0.5112.81,1920x1080,1878x903,NA,ITT Ratings,2,against,7,NA,NA,NA,NA,NA,ACCEPT,NA,NA,NA,NA,batch7pro,batch7pro,52,20,1,Screen 1,continueButton,response_rating_scale_likert_active,1858.10000000149,NA,NA,Agree,1,0,1,0,NA,NA,NA,NA,1,statements,It was developed too quickly so doesn’t work well,1,17/06/2021 12:50,17/06/2021 13:02,IP Address,For (I feel positively about the vaccines),Rarely,Once or twice a year,42,Female,NA,"Undergraduate degree (BSc, BA)",choice,69,1,For,Against
