Event.Index,UTC.Timestamp,UTC.Date,Local.Timestamp,Local.Timezone,Local.Date,Experiment.ID,Experiment.Version,Tree.Node.Key,Repeat.Key,Schedule.ID,Participant.Private.ID,Participant.Starting.Group,Participant.Status,Participant.Completion.Code,Participant.External.Session.ID,Participant.Device.Type,Participant.Device,Participant.OS,Participant.Browser,Participant.Monitor.Size,Participant.Viewport.Size,Checkpoint,Task.Name,Task.Version,branch.69an,randomiser.8vg2,quota.bqtt,quota.rycs,quota.wtfi,quota.usve,quota.zgic,quota.f3yz,quota.r9vy,quota.tfqq,quota.3dga,quota.dtj6,Spreadsheet,Spreadsheet.Name,Spreadsheet.Row,Trial.Number,Screen.Number,Screen.Name,Zone.Name,Zone.Type,Reaction.Time,Reaction.Onset,Response.Type,Response,Attempt,Correct,Incorrect,Dishonest,X.Coordinate,Y.Coordinate,Timed.Out,randomise_blocks,randomise_trials,display,Arguments,ShowProgressBar,StartDate,EndDate,Status,prolif_check,discuss_1,read_1,age,gender,gender_4_TEXT,edu,condition,ID,arg_ID,Position,Arg_Position
1,1659954688149,08/08/2022 10:31:28,1659954688034,1,08/08/2022 11:31:28,94118,2,task-fbpo,NA,23522053,6893585,NA,complete,NA,62f0e5da6d46b70b0958037c,computer,Desktop or Laptop,Windows 10,Chrome 103.0.0.0,1280x720,1280x577,NA,ITT Ratings,2,against,10,NA,NA,NA,NA,NA,NA,NA,NA,ACCEPT,NA,batch10pro,NA,NA,BEGIN TASK,NA,NA,NA,NA,NA,NA,NA,NA,NA,0,1,0,NA,NA,NA,NA,NA,NA,NA,NA,NA,NA,NA,NA,NA,NA,NA,NA,NA,NA,NA,NA,NA,NA,NA
2,1659954694931,08/08/2022 10:31:34,1659954694892,1,08/08/2022 11:31:34,94118,2,task-fbpo,NA,23522053,6893585,NA,complete,NA,62f0e5da6d46b70b0958037c,computer,Desktop or Laptop,Windows 10,Chrome 103.0.0.0,1280x720,1280x577,NA,ITT Ratings,2,against,10,NA,NA,NA,NA,NA,NA,NA,NA,ACCEPT,NA,batch10pro,batch10pro,1,1,1,Screen 1,advancementZone,continue_button,6836.400000095367,NA,NA,NA,NA,0,1,0,NA,NA,NA,NA,NA,instructions,NA,NA,NA,NA,NA,NA,NA,NA,NA,NA,NA,NA,NA,NA,NA,NA,NA
3,1659954703852,08/08/2022 10:31:43,1659954703813,1,08/08/2022 11:31:43,94118,2,task-fbpo,NA,23522053,6893585,NA,complete,NA,62f0e5da6d46b70b0958037c,computer,Desktop or Laptop,Windows 10,Chrome 103.0.0.0,1280x720,1280x577,NA,ITT Ratings,2,against,10,NA,NA,NA,NA,NA,NA,NA,NA,ACCEPT,NA,batch10pro,batch10pro,40,1,1,Screen 1,continueButton,response_rating_scale_likert_active,8910.600000023842,NA,NA,Strongly Agree,1,0,1,0,NA,NA,NA,NA,1,statements,The vaccine is government controlling citizens.,1,17/06/2021 12:46,17/06/2021 13:09,IP Address,For (I feel positively about the vaccines),Most weeks,Most months,33,Male,NA,A levels,control,97,1,For,Against
4,1659954712500,08/08/2022 10:31:52,1659954712461,1,08/08/2022 11:31:52,94118,2,task-fbpo,NA,23522053,6893585,NA,complete,NA,62f0e5da6d46b70b0958037c,computer,Desktop or Laptop,Windows 10,Chrome 103.0.0.0,1280x720,1280x577,NA,ITT Ratings,2,against,10,NA,NA,NA,NA,NA,NA,NA,NA,ACCEPT,NA,batch10pro,batch10pro,38,2,1,Screen 1,continueButton,response_rating_scale_likert_active,8634.299999952316,NA,NA,Strongly Agree,1,0,1,0,NA,NA,NA,NA,1,statements,to keep those they loved who may be more at risk safe,1,17/06/2021 12:58,17/06/2021 13:09,IP Address,For (I feel positively about the vaccines),A few times a year,Rarely,28,Female,NA,"Postgraduate degree (MSc, MA, MPhil)",control,96,2,For,For
5,1659954714614,08/08/2022 10:31:54,1659954714549,1,08/08/2022 11:31:54,94118,2,task-fbpo,NA,23522053,6893585,NA,complete,NA,62f0e5da6d46b70b0958037c,computer,Desktop or Laptop,Windows 10,Chrome 103.0.0.0,1280x720,1280x577,NA,ITT Ratings,2,against,10,NA,NA,NA,NA,NA,NA,NA,NA,ACCEPT,NA,batch10pro,batch10pro,20,3,1,Screen 1,continueButton,response_rating_scale_likert_active,2074.6999999284744,NA,NA,Strongly Agree,1,0,1,0,NA,NA,NA,NA,1,statements,I want to see family,1,17/06/2021 12:59,17/06/2021 13:08,IP Address,For (I feel positively about the vaccines),Most weeks,Most days,31,Male,NA,"Undergraduate degree (BSc, BA)",control,93,2,For,For
6,1659954719223,08/08/2022 10:31:59,1659954718880,1,08/08/2022 11:31:58,94118,2,task-fbpo,NA,23522053,6893585,NA,complete,NA,62f0e5da6d46b70b0958037c,computer,Desktop or Laptop,Windows 10,Chrome 103.0.0.0,1280x720,1280x577,NA,ITT Ratings,2,against,10,NA,NA,NA,NA,NA,NA,NA,NA,ACCEPT,NA,batch10pro,batch10pro,53,4,1,Screen 1,continueButton,response_rating_scale_likert_active,4322.199999928474,NA,NA,Agree,1,0,1,0,NA,NA,NA,NA,1,statements,"It has a tracker (or some variation, 5g or something) hidden in it",1,17/06/2021 12:24,17/06/2021 13:09,IP Address,For (I feel positively about the vaccines),Rarely,Most weeks,30,Male,NA,"Postgraduate degree (MSc, MA, MPhil)",control,99,2,For,Against
7,1659954721014,08/08/2022 10:32:01,1659954720975,1,08/08/2022 11:32:00,94118,2,task-fbpo,NA,23522053,6893585,NA,complete,NA,62f0e5da6d46b70b0958037c,computer,Desktop or Laptop,Windows 10,Chrome 103.0.0.0,1280x720,1280x577,NA,ITT Ratings,2,against,10,NA,NA,NA,NA,NA,NA,NA,NA,ACCEPT,NA,batch10pro,batch10pro,63,5,1,Screen 1,continueButton,response_rating_scale_likert_active,2088.3000000715256,NA,NA,Strongly Disagree,1,0,1,0,NA,NA,NA,NA,1,statements,I don't like needles,1,17/06/2021 12:48,17/06/2021 13:10,IP Address,For (I feel positively about the vaccines),Most months,A few times a year,42,Male,NA,Vocational Training / Apprenticeship,control,100,3,For,For
8,1659954722953,08/08/2022 10:32:02,1659954722911,1,08/08/2022 11:32:02,94118,2,task-fbpo,NA,23522053,6893585,NA,complete,NA,62f0e5da6d46b70b0958037c,computer,Desktop or Laptop,Windows 10,Chrome 103.0.0.0,1280x720,1280x577,NA,ITT Ratings,2,against,10,NA,NA,NA,NA,NA,NA,NA,NA,ACCEPT,NA,batch10pro,batch10pro,34,6,1,Screen 1,continueButton,response_rating_scale_likert_active,1929.600000023842,NA,NA,Strongly Agree,1,0,1,0,NA,NA,NA,NA,1,statements,the vaccines were made too quickly,1,17/06/2021 12:58,17/06/2021 13:09,IP Address,For (I feel positively about the vaccines),A few times a year,Rarely,28,Female,NA,"Postgraduate degree (MSc, MA, MPhil)",control,96,1,For,Against
9,1659954726504,08/08/2022 10:32:06,1659954726319,1,08/08/2022 11:32:06,94118,2,task-fbpo,NA,23522053,6893585,NA,complete,NA,62f0e5da6d46b70b0958037c,computer,Desktop or Laptop,Windows 10,Chrome 103.0.0.0,1280x720,1280x577,NA,ITT Ratings,2,against,10,NA,NA,NA,NA,NA,NA,NA,NA,ACCEPT,NA,batch10pro,batch10pro,44,7,1,Screen 1,continueButton,response_rating_scale_likert_active,3403,NA,NA,Strongly Agree,1,0,1,0,NA,NA,NA,NA,1,statements,I want to ensure I don't catch it myself,1,17/06/2021 12:46,17/06/2021 13:09,IP Address,For (I feel positively about the vaccines),Most weeks,Most months,33,Male,NA,A levels,control,97,2,For,For
10,1659954730098,08/08/2022 10:32:10,1659954730040,1,08/08/2022 11:32:10,94118,2,task-fbpo,NA,23522053,6893585,NA,complete,NA,62f0e5da6d46b70b0958037c,computer,Desktop or Laptop,Windows 10,Chrome 103.0.0.0,1280x720,1280x577,NA,ITT Ratings,2,against,10,NA,NA,NA,NA,NA,NA,NA,NA,ACCEPT,NA,batch10pro,batch10pro,39,8,1,Screen 1,continueButton,response_rating_scale_likert_active,3714.700000047684,NA,NA,Strongly Agree,1,0,1,0,NA,NA,NA,NA,1,statements,because they trust science and not conspiracies,1,17/06/2021 12:58,17/06/2021 13:09,IP Address,For (I feel positively about the vaccines),A few times a year,Rarely,28,Female,NA,"Postgraduate degree (MSc, MA, MPhil)",control,96,3,For,For
11,1659954733748,08/08/2022 10:32:13,1659954733701,1,08/08/2022 11:32:13,94118,2,task-fbpo,NA,23522053,6893585,NA,complete,NA,62f0e5da6d46b70b0958037c,computer,Desktop or Laptop,Windows 10,Chrome 103.0.0.0,1280x720,1280x577,NA,ITT Ratings,2,against,10,NA,NA,NA,NA,NA,NA,NA,NA,ACCEPT,NA,batch10pro,batch10pro,13,9,1,Screen 1,continueButton,response_rating_scale_likert_active,3653.399999976158,NA,NA,Neither Agree nor Disagree,1,0,1,0,NA,NA,NA,NA,1,statements,I want life to continue like normal,1,17/06/2021 12:59,17/06/2021 13:08,IP Address,For (I feel positively about the vaccines),Rarely,A few times a year,23,Female,NA,A levels,choice,92,1,For,For
12,1659954740826,08/08/2022 10:32:20,1659954740787,1,08/08/2022 11:32:20,94118,2,task-fbpo,NA,23522053,6893585,NA,complete,NA,62f0e5da6d46b70b0958037c,computer,Desktop or Laptop,Windows 10,Chrome 103.0.0.0,1280x720,1280x577,NA,ITT Ratings,2,against,10,NA,NA,NA,NA,NA,NA,NA,NA,ACCEPT,NA,batch10pro,batch10pro,50,10,1,Screen 1,continueButton,response_rating_scale_likert_active,7079.200000047684,NA,NA,Somewhat Disagree,1,0,1,0,NA,NA,NA,NA,1,statements,"By having the vaccination I am not only protecting myself but also people I come into contact with. Hopefully, the vaccine will stop the spread of the virus.",1,17/06/2021 12:47,17/06/2021 13:09,IP Address,For (I feel positively about the vaccines),Rarely,A few times a year,54,Female,NA,GCSEs,choice,98,2,For,For
13,1659954745944,08/08/2022 10:32:25,1659954745898,1,08/08/2022 11:32:25,94118,2,task-fbpo,NA,23522053,6893585,NA,complete,NA,62f0e5da6d46b70b0958037c,computer,Desktop or Laptop,Windows 10,Chrome 103.0.0.0,1280x720,1280x577,NA,ITT Ratings,2,against,10,NA,NA,NA,NA,NA,NA,NA,NA,ACCEPT,NA,batch10pro,batch10pro,28,11,1,Screen 1,continueButton,response_rating_scale_likert_active,5103.899999976158,NA,NA,Agree,1,0,1,0,NA,NA,NA,NA,1,statements,The vaccines use new MRNA tech and are therefore unsafe.,1,17/06/2021 13:02,17/06/2021 13:09,IP Address,For (I feel positively about the vaccines),Rarely,Most months,21,Male,NA,A levels,control,95,1,For,Against
14,1659954749462,08/08/2022 10:32:29,1659954749427,1,08/08/2022 11:32:29,94118,2,task-fbpo,NA,23522053,6893585,NA,complete,NA,62f0e5da6d46b70b0958037c,computer,Desktop or Laptop,Windows 10,Chrome 103.0.0.0,1280x720,1280x577,NA,ITT Ratings,2,against,10,NA,NA,NA,NA,NA,NA,NA,NA,ACCEPT,NA,batch10pro,batch10pro,8,12,1,Screen 1,continueButton,response_rating_scale_likert_active,3523.2000000476837,NA,NA,Strongly Disagree,1,0,1,0,NA,NA,NA,NA,1,statements,"I care about people and I don't want to die, vaccination is the only option.",1,17/06/2021 12:59,17/06/2021 13:08,IP Address,For (I feel positively about the vaccines),A few times a year,Most weeks,24,Male,NA,"Postgraduate degree (MSc, MA, MPhil)",choice,91,2,For,For
15,1659954754455,08/08/2022 10:32:34,1659954754384,1,08/08/2022 11:32:34,94118,2,task-fbpo,NA,23522053,6893585,NA,complete,NA,62f0e5da6d46b70b0958037c,computer,Desktop or Laptop,Windows 10,Chrome 103.0.0.0,1280x720,1280x577,NA,ITT Ratings,2,against,10,NA,NA,NA,NA,NA,NA,NA,NA,ACCEPT,NA,batch10pro,batch10pro,6,13,1,Screen 1,continueButton,response_rating_scale_likert_active,4949.800000071526,NA,NA,Somewhat Agree,1,0,1,0,NA,NA,NA,NA,1,statements,"COVID is pretty much just a bad flu, I think I'd be fine if I caught it so why get vaccinated?",1,17/06/2021 12:59,17/06/2021 13:08,IP Address,For (I feel positively about the vaccines),A few times a year,Most weeks,24,Male,NA,"Postgraduate degree (MSc, MA, MPhil)",choice,91,3,For,Against
16,1659954756536,08/08/2022 10:32:36,1659954756498,1,08/08/2022 11:32:36,94118,2,task-fbpo,NA,23522053,6893585,NA,complete,NA,62f0e5da6d46b70b0958037c,computer,Desktop or Laptop,Windows 10,Chrome 103.0.0.0,1280x720,1280x577,NA,ITT Ratings,2,against,10,NA,NA,NA,NA,NA,NA,NA,NA,ACCEPT,NA,batch10pro,batch10pro,41,14,1,Screen 1,continueButton,response_rating_scale_likert_active,2104.5,NA,NA,Strongly Disagree,1,0,1,0,NA,NA,NA,NA,1,statements,I'm scared of needles so I can't face it.,1,17/06/2021 12:46,17/06/2021 13:09,IP Address,For (I feel positively about the vaccines),Most weeks,Most months,33,Male,NA,A levels,control,97,2,For,Against
17,1659954760315,08/08/2022 10:32:40,1659954760268,1,08/08/2022 11:32:40,94118,2,task-fbpo,NA,23522053,6893585,NA,complete,NA,62f0e5da6d46b70b0958037c,computer,Desktop or Laptop,Windows 10,Chrome 103.0.0.0,1280x720,1280x577,NA,ITT Ratings,2,against,10,NA,NA,NA,NA,NA,NA,NA,NA,ACCEPT,NA,batch10pro,batch10pro,55,15,1,Screen 1,continueButton,response_rating_scale_likert_active,3762.599999904633,NA,NA,Neither Agree nor Disagree,1,0,1,0,NA,NA,NA,NA,1,statements,It's responsible- it's about protecting others,1,17/06/2021 12:24,17/06/2021 13:09,IP Address,For (I feel positively about the vaccines),Rarely,Most weeks,30,Male,NA,"Postgraduate degree (MSc, MA, MPhil)",control,99,1,For,For
18,1659954763692,08/08/2022 10:32:43,1659954763648,1,08/08/2022 11:32:43,94118,2,task-fbpo,NA,23522053,6893585,NA,complete,NA,62f0e5da6d46b70b0958037c,computer,Desktop or Laptop,Windows 10,Chrome 103.0.0.0,1280x720,1280x577,NA,ITT Ratings,2,against,10,NA,NA,NA,NA,NA,NA,NA,NA,ACCEPT,NA,batch10pro,batch10pro,37,16,1,Screen 1,continueButton,response_rating_scale_likert_active,3373.600000023842,NA,NA,Neither Agree nor Disagree,1,0,1,0,NA,NA,NA,NA,1,statements,one step closer to things going back to normal,1,17/06/2021 12:58,17/06/2021 13:09,IP Address,For (I feel positively about the vaccines),A few times a year,Rarely,28,Female,NA,"Postgraduate degree (MSc, MA, MPhil)",control,96,1,For,For
19,1659954766067,08/08/2022 10:32:46,1659954766022,1,08/08/2022 11:32:46,94118,2,task-fbpo,NA,23522053,6893585,NA,complete,NA,62f0e5da6d46b70b0958037c,computer,Desktop or Laptop,Windows 10,Chrome 103.0.0.0,1280x720,1280x577,NA,ITT Ratings,2,against,10,NA,NA,NA,NA,NA,NA,NA,NA,ACCEPT,NA,batch10pro,batch10pro,23,17,1,Screen 1,continueButton,response_rating_scale_likert_active,2366.3000000715256,NA,NA,Strongly Agree,1,0,1,0,NA,NA,NA,NA,1,statements,I should choose what I want to put in my body,1,17/06/2021 13:01,17/06/2021 13:09,IP Address,For (I feel positively about the vaccines),Most weeks,Most weeks,38,Male,NA,A levels,choice,94,2,For,Against
20,1659954769992,08/08/2022 10:32:49,1659954769949,1,08/08/2022 11:32:49,94118,2,task-fbpo,NA,23522053,6893585,NA,complete,NA,62f0e5da6d46b70b0958037c,computer,Desktop or Laptop,Windows 10,Chrome 103.0.0.0,1280x720,1280x577,NA,ITT Ratings,2,against,10,NA,NA,NA,NA,NA,NA,NA,NA,ACCEPT,NA,batch10pro,batch10pro,2,18,1,Screen 1,continueButton,response_rating_scale_likert_active,3918.899999976158,NA,NA,Somewhat Agree,1,0,1,0,NA,NA,NA,NA,1,statements,We would like to check you are reading each argument carefully. Please select 'Somewhat Agree' for this answer,1,NA,NA,NA,NA,NA,NA,NA,NA,NA,NA,NA,NA,check1,NA,NA
21,1659954775779,08/08/2022 10:32:55,1659954775732,1,08/08/2022 11:32:55,94118,2,task-fbpo,NA,23522053,6893585,NA,complete,NA,62f0e5da6d46b70b0958037c,computer,Desktop or Laptop,Windows 10,Chrome 103.0.0.0,1280x720,1280x577,NA,ITT Ratings,2,against,10,NA,NA,NA,NA,NA,NA,NA,NA,ACCEPT,NA,batch10pro,batch10pro,33,19,1,Screen 1,continueButton,response_rating_scale_likert_active,5777.800000071526,NA,NA,Strongly Disagree,1,0,1,0,NA,NA,NA,NA,1,statements,I need to due to work,1,17/06/2021 13:02,17/06/2021 13:09,IP Address,For (I feel positively about the vaccines),Rarely,Most months,21,Male,NA,A levels,control,95,3,For,For
22,1659954777138,08/08/2022 10:32:57,1659954777082,1,08/08/2022 11:32:57,94118,2,task-fbpo,NA,23522053,6893585,NA,complete,NA,62f0e5da6d46b70b0958037c,computer,Desktop or Laptop,Windows 10,Chrome 103.0.0.0,1280x720,1280x577,NA,ITT Ratings,2,against,10,NA,NA,NA,NA,NA,NA,NA,NA,ACCEPT,NA,batch10pro,batch10pro,12,20,1,Screen 1,continueButton,response_rating_scale_likert_active,1339.899999976158,NA,NA,Strongly Disagree,1,0,1,0,NA,NA,NA,NA,1,statements,I'm too scared of needles,1,17/06/2021 12:59,17/06/2021 13:08,IP Address,For (I feel positively about the vaccines),Rarely,A few times a year,23,Female,NA,A levels,choice,92,3,For,Against
23,1659955488850,08/08/2022 10:44:48,1659955488734,1,08/08/2022 11:44:48,94118,2,task-fbpo,NA,23522053,6893585,NA,complete,NA,62f0e5da6d46b70b0958037c,computer,Desktop or Laptop,Windows 10,Chrome 103.0.0.0,1280x720,1280x577,NA,ITT Ratings,2,against,10,NA,NA,NA,NA,NA,NA,NA,NA,ACCEPT,NA,batch10pro,batch10pro,57,21,1,Screen 1,continueButton,response_rating_scale_likert_active,711625.1000000238,NA,NA,Agree,1,0,1,0,NA,NA,NA,NA,1,statements,for your own health and those arround you,1,17/06/2021 12:24,17/06/2021 13:09,IP Address,For (I feel positively about the vaccines),Rarely,Most weeks,30,Male,NA,"Postgraduate degree (MSc, MA, MPhil)",control,99,3,For,For
24,1659955490491,08/08/2022 10:44:50,1659955490481,1,08/08/2022 11:44:50,94118,2,task-fbpo,NA,23522053,6893585,NA,complete,NA,62f0e5da6d46b70b0958037c,computer,Desktop or Laptop,Windows 10,Chrome 103.0.0.0,1280x720,1280x577,NA,ITT Ratings,2,against,10,NA,NA,NA,NA,NA,NA,NA,NA,ACCEPT,NA,batch10pro,batch10pro,30,22,1,Screen 1,continueButton,response_rating_scale_likert_active,1734.5,NA,NA,Strongly Agree,1,0,1,0,NA,NA,NA,NA,1,statements,The vaccines contain a microchip,1,17/06/2021 13:02,17/06/2021 13:09,IP Address,For (I feel positively about the vaccines),Rarely,Most months,21,Male,NA,A levels,control,95,3,For,Against
25,1659955495077,08/08/2022 10:44:55,1659955495016,1,08/08/2022 11:44:55,94118,2,task-fbpo,NA,23522053,6893585,NA,complete,NA,62f0e5da6d46b70b0958037c,computer,Desktop or Laptop,Windows 10,Chrome 103.0.0.0,1280x720,1280x577,NA,ITT Ratings,2,against,10,NA,NA,NA,NA,NA,NA,NA,NA,ACCEPT,NA,batch10pro,batch10pro,59,23,1,Screen 1,continueButton,response_rating_scale_likert_active,4526.600000023842,NA,NA,Somewhat Agree,1,0,1,0,NA,NA,NA,NA,1,statements,Get life back to as normal as we can.,1,17/06/2021 12:48,17/06/2021 13:10,IP Address,For (I feel positively about the vaccines),Most months,A few times a year,42,Male,NA,Vocational Training / Apprenticeship,control,100,2,For,Against
26,1659955499891,08/08/2022 10:44:59,1659955499881,1,08/08/2022 11:44:59,94118,2,task-fbpo,NA,23522053,6893585,NA,complete,NA,62f0e5da6d46b70b0958037c,computer,Desktop or Laptop,Windows 10,Chrome 103.0.0.0,1280x720,1280x577,NA,ITT Ratings,2,against,10,NA,NA,NA,NA,NA,NA,NA,NA,ACCEPT,NA,batch10pro,batch10pro,7,24,1,Screen 1,continueButton,response_rating_scale_likert_active,4858.5,NA,NA,Somewhat Agree,1,0,1,0,NA,NA,NA,NA,1,statements,"We won't be able to get out of lockdown unless we all get vaccinated, I want to get out soon.",1,17/06/2021 12:59,17/06/2021 13:08,IP Address,For (I feel positively about the vaccines),A few times a year,Most weeks,24,Male,NA,"Postgraduate degree (MSc, MA, MPhil)",choice,91,1,For,For
27,1659955502012,08/08/2022 10:45:02,1659955501998,1,08/08/2022 11:45:01,94118,2,task-fbpo,NA,23522053,6893585,NA,complete,NA,62f0e5da6d46b70b0958037c,computer,Desktop or Laptop,Windows 10,Chrome 103.0.0.0,1280x720,1280x577,NA,ITT Ratings,2,against,10,NA,NA,NA,NA,NA,NA,NA,NA,ACCEPT,NA,batch10pro,batch10pro,36,25,1,Screen 1,continueButton,response_rating_scale_likert_active,2107.6999999284744,NA,NA,Strongly Agree,1,0,1,0,NA,NA,NA,NA,1,statements,all vaccines are damaging in the long run,1,17/06/2021 12:58,17/06/2021 13:09,IP Address,For (I feel positively about the vaccines),A few times a year,Rarely,28,Female,NA,"Postgraduate degree (MSc, MA, MPhil)",control,96,3,For,Against
28,1659955504618,08/08/2022 10:45:04,1659955504608,1,08/08/2022 11:45:04,94118,2,task-fbpo,NA,23522053,6893585,NA,complete,NA,62f0e5da6d46b70b0958037c,computer,Desktop or Laptop,Windows 10,Chrome 103.0.0.0,1280x720,1280x577,NA,ITT Ratings,2,against,10,NA,NA,NA,NA,NA,NA,NA,NA,ACCEPT,NA,batch10pro,batch10pro,4,26,1,Screen 1,continueButton,response_rating_scale_likert_active,2602.3000000715256,NA,NA,Strongly Agree,1,0,1,0,NA,NA,NA,NA,1,statements,"I don't trust the people who are making the vaccines, vaccines usually take years to develop.",1,17/06/2021 12:59,17/06/2021 13:08,IP Address,For (I feel positively about the vaccines),A few times a year,Most weeks,24,Male,NA,"Postgraduate degree (MSc, MA, MPhil)",choice,91,1,For,Against
29,1659955516101,08/08/2022 10:45:16,1659955516087,1,08/08/2022 11:45:16,94118,2,task-fbpo,NA,23522053,6893585,NA,complete,NA,62f0e5da6d46b70b0958037c,computer,Desktop or Laptop,Windows 10,Chrome 103.0.0.0,1280x720,1280x577,NA,ITT Ratings,2,against,10,NA,NA,NA,NA,NA,NA,NA,NA,ACCEPT,NA,batch10pro,batch10pro,17,27,1,Screen 1,continueButton,response_rating_scale_likert_active,11469.700000047684,NA,NA,Strongly Agree,1,0,1,0,NA,NA,NA,NA,1,statements,I have medical concerns,1,17/06/2021 12:59,17/06/2021 13:08,IP Address,For (I feel positively about the vaccines),Most weeks,Most days,31,Male,NA,"Undergraduate degree (BSc, BA)",control,93,2,For,Against
30,1659955517306,08/08/2022 10:45:17,1659955517296,1,08/08/2022 11:45:17,94118,2,task-fbpo,NA,23522053,6893585,NA,complete,NA,62f0e5da6d46b70b0958037c,computer,Desktop or Laptop,Windows 10,Chrome 103.0.0.0,1280x720,1280x577,NA,ITT Ratings,2,against,10,NA,NA,NA,NA,NA,NA,NA,NA,ACCEPT,NA,batch10pro,batch10pro,47,28,1,Screen 1,continueButton,response_rating_scale_likert_active,1200.3000000715256,NA,NA,Strongly Agree,1,0,1,0,NA,NA,NA,NA,1,statements,There might be serious side affects.,1,17/06/2021 12:47,17/06/2021 13:09,IP Address,For (I feel positively about the vaccines),Rarely,A few times a year,54,Female,NA,GCSEs,choice,98,2,For,Against
31,1659955521865,08/08/2022 10:45:21,1659955521858,1,08/08/2022 11:45:21,94118,2,task-fbpo,NA,23522053,6893585,NA,complete,NA,62f0e5da6d46b70b0958037c,computer,Desktop or Laptop,Windows 10,Chrome 103.0.0.0,1280x720,1280x577,NA,ITT Ratings,2,against,10,NA,NA,NA,NA,NA,NA,NA,NA,ACCEPT,NA,batch10pro,batch10pro,52,29,1,Screen 1,continueButton,response_rating_scale_likert_active,4555.299999952316,NA,NA,Strongly Agree,1,0,1,0,NA,NA,NA,NA,1,statements,"Our bodies will fight it off naturally, we weaken ourselves by having the vaccine just because the government tells us to.",1,17/06/2021 12:24,17/06/2021 13:09,IP Address,For (I feel positively about the vaccines),Rarely,Most weeks,30,Male,NA,"Postgraduate degree (MSc, MA, MPhil)",control,99,1,For,Against
32,1659955525589,08/08/2022 10:45:25,1659955525566,1,08/08/2022 11:45:25,94118,2,task-fbpo,NA,23522053,6893585,NA,complete,NA,62f0e5da6d46b70b0958037c,computer,Desktop or Laptop,Windows 10,Chrome 103.0.0.0,1280x720,1280x577,NA,ITT Ratings,2,against,10,NA,NA,NA,NA,NA,NA,NA,NA,ACCEPT,NA,batch10pro,batch10pro,51,30,1,Screen 1,continueButton,response_rating_scale_likert_active,3700.799999952316,NA,NA,Strongly Agree,1,0,1,0,NA,NA,NA,NA,1,statements,"Other vaccination programmes have been successful in eradicating illnesses, so why should this be any different. Having the vaccine gives us the best chance of getting back to normal.",1,17/06/2021 12:47,17/06/2021 13:09,IP Address,For (I feel positively about the vaccines),Rarely,A few times a year,54,Female,NA,GCSEs,choice,98,3,For,For
33,1659955530491,08/08/2022 10:45:30,1659955530471,1,08/08/2022 11:45:30,94118,2,task-fbpo,NA,23522053,6893585,NA,complete,NA,62f0e5da6d46b70b0958037c,computer,Desktop or Laptop,Windows 10,Chrome 103.0.0.0,1280x720,1280x577,NA,ITT Ratings,2,against,10,NA,NA,NA,NA,NA,NA,NA,NA,ACCEPT,NA,batch10pro,batch10pro,56,31,1,Screen 1,continueButton,response_rating_scale_likert_active,4899,NA,NA,Somewhat Disagree,1,0,1,0,NA,NA,NA,NA,1,statements,less worry in the long run,1,17/06/2021 12:24,17/06/2021 13:09,IP Address,For (I feel positively about the vaccines),Rarely,Most weeks,30,Male,NA,"Postgraduate degree (MSc, MA, MPhil)",control,99,2,For,For
34,1659955532516,08/08/2022 10:45:32,1659955532510,1,08/08/2022 11:45:32,94118,2,task-fbpo,NA,23522053,6893585,NA,complete,NA,62f0e5da6d46b70b0958037c,computer,Desktop or Laptop,Windows 10,Chrome 103.0.0.0,1280x720,1280x577,NA,ITT Ratings,2,against,10,NA,NA,NA,NA,NA,NA,NA,NA,ACCEPT,NA,batch10pro,batch10pro,62,32,1,Screen 1,continueButton,response_rating_scale_likert_active,2030.899999976158,NA,NA,Strongly Agree,1,0,1,0,NA,NA,NA,NA,1,statements,The government are scaring people with pumed stats,1,17/06/2021 12:48,17/06/2021 13:10,IP Address,For (I feel positively about the vaccines),Most months,A few times a year,42,Male,NA,Vocational Training / Apprenticeship,control,100,2,For,For
35,1659955537612,08/08/2022 10:45:37,1659955537595,1,08/08/2022 11:45:37,94118,2,task-fbpo,NA,23522053,6893585,NA,complete,NA,62f0e5da6d46b70b0958037c,computer,Desktop or Laptop,Windows 10,Chrome 103.0.0.0,1280x720,1280x577,NA,ITT Ratings,2,against,10,NA,NA,NA,NA,NA,NA,NA,NA,ACCEPT,NA,batch10pro,batch10pro,3,33,1,Screen 1,continueButton,response_rating_scale_likert_active,5078.099999904633,NA,NA,Somewhat Disagree,1,0,1,0,NA,NA,NA,NA,1,statements,We would like to check you are reading each argument carefully. Please select 'Somewhat Disagree' for this answer,1,NA,NA,NA,NA,NA,NA,NA,NA,NA,NA,NA,NA,check2,NA,NA
36,1659955541844,08/08/2022 10:45:41,1659955541828,1,08/08/2022 11:45:41,94118,2,task-fbpo,NA,23522053,6893585,NA,complete,NA,62f0e5da6d46b70b0958037c,computer,Desktop or Laptop,Windows 10,Chrome 103.0.0.0,1280x720,1280x577,NA,ITT Ratings,2,against,10,NA,NA,NA,NA,NA,NA,NA,NA,ACCEPT,NA,batch10pro,batch10pro,49,34,1,Screen 1,continueButton,response_rating_scale_likert_active,4225.199999928474,NA,NA,Strongly Disagree,1,0,1,0,NA,NA,NA,NA,1,statements,I really want the injection so I will be protected against the virus. I already have the influenza vaccine so I am not worried.,1,17/06/2021 12:47,17/06/2021 13:09,IP Address,For (I feel positively about the vaccines),Rarely,A few times a year,54,Female,NA,GCSEs,choice,98,1,For,For
37,1659955544181,08/08/2022 10:45:44,1659955544176,1,08/08/2022 11:45:44,94118,2,task-fbpo,NA,23522053,6893585,NA,complete,NA,62f0e5da6d46b70b0958037c,computer,Desktop or Laptop,Windows 10,Chrome 103.0.0.0,1280x720,1280x577,NA,ITT Ratings,2,against,10,NA,NA,NA,NA,NA,NA,NA,NA,ACCEPT,NA,batch10pro,batch10pro,15,35,1,Screen 1,continueButton,response_rating_scale_likert_active,2342.600000023842,NA,NA,Neither Agree nor Disagree,1,0,1,0,NA,NA,NA,NA,1,statements,I want to keep my friends and family safe,1,17/06/2021 12:59,17/06/2021 13:08,IP Address,For (I feel positively about the vaccines),Rarely,A few times a year,23,Female,NA,A levels,choice,92,3,For,For
38,1659955550360,08/08/2022 10:45:50,1659955550345,1,08/08/2022 11:45:50,94118,2,task-fbpo,NA,23522053,6893585,NA,complete,NA,62f0e5da6d46b70b0958037c,computer,Desktop or Laptop,Windows 10,Chrome 103.0.0.0,1280x720,1280x577,NA,ITT Ratings,2,against,10,NA,NA,NA,NA,NA,NA,NA,NA,ACCEPT,NA,batch10pro,batch10pro,9,36,1,Screen 1,continueButton,response_rating_scale_likert_active,6163.899999976158,NA,NA,Somewhat Agree,1,0,1,0,NA,NA,NA,NA,1,statements,I don't want to transmit COVID to my elderly relatives - vaccination seems like the best deterrent.,1,17/06/2021 12:59,17/06/2021 13:08,IP Address,For (I feel positively about the vaccines),A few times a year,Most weeks,24,Male,NA,"Postgraduate degree (MSc, MA, MPhil)",choice,91,3,For,For
39,1659955552547,08/08/2022 10:45:52,1659955552540,1,08/08/2022 11:45:52,94118,2,task-fbpo,NA,23522053,6893585,NA,complete,NA,62f0e5da6d46b70b0958037c,computer,Desktop or Laptop,Windows 10,Chrome 103.0.0.0,1280x720,1280x577,NA,ITT Ratings,2,against,10,NA,NA,NA,NA,NA,NA,NA,NA,ACCEPT,NA,batch10pro,batch10pro,25,37,1,Screen 1,continueButton,response_rating_scale_likert_active,2187.5,NA,NA,Strongly Agree,1,0,1,0,NA,NA,NA,NA,1,statements,I need to to go away on holiday,1,17/06/2021 13:01,17/06/2021 13:09,IP Address,For (I feel positively about the vaccines),Most weeks,Most weeks,38,Male,NA,A levels,choice,94,1,For,For
40,1659955555139,08/08/2022 10:45:55,1659955555120,1,08/08/2022 11:45:55,94118,2,task-fbpo,NA,23522053,6893585,NA,complete,NA,62f0e5da6d46b70b0958037c,computer,Desktop or Laptop,Windows 10,Chrome 103.0.0.0,1280x720,1280x577,NA,ITT Ratings,2,against,10,NA,NA,NA,NA,NA,NA,NA,NA,ACCEPT,NA,batch10pro,batch10pro,61,38,1,Screen 1,continueButton,response_rating_scale_likert_active,2572.399999976158,NA,NA,Strongly Agree,1,0,1,0,NA,NA,NA,NA,1,statements,Don't trust the process has been long enough,1,17/06/2021 12:48,17/06/2021 13:10,IP Address,For (I feel positively about the vaccines),Most months,A few times a year,42,Male,NA,Vocational Training / Apprenticeship,control,100,1,For,For
41,1659955562974,08/08/2022 10:46:02,1659955562967,1,08/08/2022 11:46:02,94118,2,task-fbpo,NA,23522053,6893585,NA,complete,NA,62f0e5da6d46b70b0958037c,computer,Desktop or Laptop,Windows 10,Chrome 103.0.0.0,1280x720,1280x577,NA,ITT Ratings,2,against,10,NA,NA,NA,NA,NA,NA,NA,NA,ACCEPT,NA,batch10pro,batch10pro,58,39,1,Screen 1,continueButton,response_rating_scale_likert_active,7839.100000023842,NA,NA,Somewhat Disagree,1,0,1,0,NA,NA,NA,NA,1,statements,The vaccine is safe check out the info before making a decision,1,17/06/2021 12:48,17/06/2021 13:10,IP Address,For (I feel positively about the vaccines),Most months,A few times a year,42,Male,NA,Vocational Training / Apprenticeship,control,100,1,For,Against
42,1659955565292,08/08/2022 10:46:05,1659955565289,1,08/08/2022 11:46:05,94118,2,task-fbpo,NA,23522053,6893585,NA,complete,NA,62f0e5da6d46b70b0958037c,computer,Desktop or Laptop,Windows 10,Chrome 103.0.0.0,1280x720,1280x577,NA,ITT Ratings,2,against,10,NA,NA,NA,NA,NA,NA,NA,NA,ACCEPT,NA,batch10pro,batch10pro,10,40,1,Screen 1,continueButton,response_rating_scale_likert_active,2315.7000000476837,NA,NA,Strongly Agree,1,0,1,0,NA,NA,NA,NA,1,statements,I don't trust what's in the vaccine,1,17/06/2021 12:59,17/06/2021 13:08,IP Address,For (I feel positively about the vaccines),Rarely,A few times a year,23,Female,NA,A levels,choice,92,1,For,Against
43,1659955566649,08/08/2022 10:46:06,1659955566633,1,08/08/2022 11:46:06,94118,2,task-fbpo,NA,23522053,6893585,NA,complete,NA,62f0e5da6d46b70b0958037c,computer,Desktop or Laptop,Windows 10,Chrome 103.0.0.0,1280x720,1280x577,NA,ITT Ratings,2,against,10,NA,NA,NA,NA,NA,NA,NA,NA,ACCEPT,NA,batch10pro,batch10pro,22,41,1,Screen 1,continueButton,response_rating_scale_likert_active,1338.2000000476835,NA,NA,Strongly Agree,1,0,1,0,NA,NA,NA,NA,1,statements,Not been tested not enough time,1,17/06/2021 13:01,17/06/2021 13:09,IP Address,For (I feel positively about the vaccines),Most weeks,Most weeks,38,Male,NA,A levels,choice,94,1,For,Against
44,1659955569719,08/08/2022 10:46:09,1659955569704,1,08/08/2022 11:46:09,94118,2,task-fbpo,NA,23522053,6893585,NA,complete,NA,62f0e5da6d46b70b0958037c,computer,Desktop or Laptop,Windows 10,Chrome 103.0.0.0,1280x720,1280x577,NA,ITT Ratings,2,against,10,NA,NA,NA,NA,NA,NA,NA,NA,ACCEPT,NA,batch10pro,batch10pro,5,42,1,Screen 1,continueButton,response_rating_scale_likert_active,3063.599999904633,NA,NA,Strongly Agree,1,0,1,0,NA,NA,NA,NA,1,statements,"I've heard that the COVID-19 vaccine causes blood clots, I'm young and healthy so COVID wouldn't affect me anyway.",1,17/06/2021 12:59,17/06/2021 13:08,IP Address,For (I feel positively about the vaccines),A few times a year,Most weeks,24,Male,NA,"Postgraduate degree (MSc, MA, MPhil)",choice,91,2,For,Against
45,1659955572725,08/08/2022 10:46:12,1659955572703,1,08/08/2022 11:46:12,94118,2,task-fbpo,NA,23522053,6893585,NA,complete,NA,62f0e5da6d46b70b0958037c,computer,Desktop or Laptop,Windows 10,Chrome 103.0.0.0,1280x720,1280x577,NA,ITT Ratings,2,against,10,NA,NA,NA,NA,NA,NA,NA,NA,ACCEPT,NA,batch10pro,batch10pro,42,43,1,Screen 1,continueButton,response_rating_scale_likert_active,2993,NA,NA,Strongly Agree,1,0,1,0,NA,NA,NA,NA,1,statements,Covid is a hoax and a vaccine is pointless as it's a fake disease.,1,17/06/2021 12:46,17/06/2021 13:09,IP Address,For (I feel positively about the vaccines),Most weeks,Most months,33,Male,NA,A levels,control,97,3,For,Against
46,1659955575821,08/08/2022 10:46:15,1659955575803,1,08/08/2022 11:46:15,94118,2,task-fbpo,NA,23522053,6893585,NA,complete,NA,62f0e5da6d46b70b0958037c,computer,Desktop or Laptop,Windows 10,Chrome 103.0.0.0,1280x720,1280x577,NA,ITT Ratings,2,against,10,NA,NA,NA,NA,NA,NA,NA,NA,ACCEPT,NA,batch10pro,batch10pro,16,44,1,Screen 1,continueButton,response_rating_scale_likert_active,3092.600000023842,NA,NA,Strongly Agree,1,0,1,0,NA,NA,NA,NA,1,statements,They do not trust the science,1,17/06/2021 12:59,17/06/2021 13:08,IP Address,For (I feel positively about the vaccines),Most weeks,Most days,31,Male,NA,"Undergraduate degree (BSc, BA)",control,93,1,For,Against
47,1659955577202,08/08/2022 10:46:17,1659955577186,1,08/08/2022 11:46:17,94118,2,task-fbpo,NA,23522053,6893585,NA,complete,NA,62f0e5da6d46b70b0958037c,computer,Desktop or Laptop,Windows 10,Chrome 103.0.0.0,1280x720,1280x577,NA,ITT Ratings,2,against,10,NA,NA,NA,NA,NA,NA,NA,NA,ACCEPT,NA,batch10pro,batch10pro,11,45,1,Screen 1,continueButton,response_rating_scale_likert_active,1376.600000023842,NA,NA,Strongly Agree,1,0,1,0,NA,NA,NA,NA,1,statements,I don't think they are effective,1,17/06/2021 12:59,17/06/2021 13:08,IP Address,For (I feel positively about the vaccines),Rarely,A few times a year,23,Female,NA,A levels,choice,92,2,For,Against
48,1659955578375,08/08/2022 10:46:18,1659955578353,1,08/08/2022 11:46:18,94118,2,task-fbpo,NA,23522053,6893585,NA,complete,NA,62f0e5da6d46b70b0958037c,computer,Desktop or Laptop,Windows 10,Chrome 103.0.0.0,1280x720,1280x577,NA,ITT Ratings,2,against,10,NA,NA,NA,NA,NA,NA,NA,NA,ACCEPT,NA,batch10pro,batch10pro,29,46,1,Screen 1,continueButton,response_rating_scale_likert_active,1160.2000000476835,NA,NA,Strongly Agree,1,0,1,0,NA,NA,NA,NA,1,statements,The vaccines have bad side effects,1,17/06/2021 13:02,17/06/2021 13:09,IP Address,For (I feel positively about the vaccines),Rarely,Most months,21,Male,NA,A levels,control,95,2,For,Against
49,1659955581031,08/08/2022 10:46:21,1659955581014,1,08/08/2022 11:46:21,94118,2,task-fbpo,NA,23522053,6893585,NA,complete,NA,62f0e5da6d46b70b0958037c,computer,Desktop or Laptop,Windows 10,Chrome 103.0.0.0,1280x720,1280x577,NA,ITT Ratings,2,against,10,NA,NA,NA,NA,NA,NA,NA,NA,ACCEPT,NA,batch10pro,batch10pro,32,47,1,Screen 1,continueButton,response_rating_scale_likert_active,2654.2999999523163,NA,NA,Agree,1,0,1,0,NA,NA,NA,NA,1,statements,I want to protect others,1,17/06/2021 13:02,17/06/2021 13:09,IP Address,For (I feel positively about the vaccines),Rarely,Most months,21,Male,NA,A levels,control,95,2,For,For
50,1659955585143,08/08/2022 10:46:25,1659955585127,1,08/08/2022 11:46:25,94118,2,task-fbpo,NA,23522053,6893585,NA,complete,NA,62f0e5da6d46b70b0958037c,computer,Desktop or Laptop,Windows 10,Chrome 103.0.0.0,1280x720,1280x577,NA,ITT Ratings,2,against,10,NA,NA,NA,NA,NA,NA,NA,NA,ACCEPT,NA,batch10pro,batch10pro,19,48,1,Screen 1,continueButton,response_rating_scale_likert_active,4104.800000071526,NA,NA,Agree,1,0,1,0,NA,NA,NA,NA,1,statements,I want to be able to travel internationally,1,17/06/2021 12:59,17/06/2021 13:08,IP Address,For (I feel positively about the vaccines),Most weeks,Most days,31,Male,NA,"Undergraduate degree (BSc, BA)",control,93,1,For,For
51,1659955599893,08/08/2022 10:46:39,1659955599876,1,08/08/2022 11:46:39,94118,2,task-fbpo,NA,23522053,6893585,NA,complete,NA,62f0e5da6d46b70b0958037c,computer,Desktop or Laptop,Windows 10,Chrome 103.0.0.0,1280x720,1280x577,NA,ITT Ratings,2,against,10,NA,NA,NA,NA,NA,NA,NA,NA,ACCEPT,NA,batch10pro,batch10pro,43,49,1,Screen 1,continueButton,response_rating_scale_likert_active,14741.699999928474,NA,NA,Somewhat Agree,1,0,1,0,NA,NA,NA,NA,1,statements,We need to protect our vulnerable.,1,17/06/2021 12:46,17/06/2021 13:09,IP Address,For (I feel positively about the vaccines),Most weeks,Most months,33,Male,NA,A levels,control,97,1,For,For
52,1659955602221,08/08/2022 10:46:42,1659955602208,1,08/08/2022 11:46:42,94118,2,task-fbpo,NA,23522053,6893585,NA,complete,NA,62f0e5da6d46b70b0958037c,computer,Desktop or Laptop,Windows 10,Chrome 103.0.0.0,1280x720,1280x577,NA,ITT Ratings,2,against,10,NA,NA,NA,NA,NA,NA,NA,NA,ACCEPT,NA,batch10pro,batch10pro,26,50,1,Screen 1,continueButton,response_rating_scale_likert_active,2322.399999976158,NA,NA,Agree,1,0,1,0,NA,NA,NA,NA,1,statements,I want lockdown to end,1,17/06/2021 13:01,17/06/2021 13:09,IP Address,For (I feel positively about the vaccines),Most weeks,Most weeks,38,Male,NA,A levels,choice,94,2,For,For
53,1659955607425,08/08/2022 10:46:47,1659955607412,1,08/08/2022 11:46:47,94118,2,task-fbpo,NA,23522053,6893585,NA,complete,NA,62f0e5da6d46b70b0958037c,computer,Desktop or Laptop,Windows 10,Chrome 103.0.0.0,1280x720,1280x577,NA,ITT Ratings,2,against,10,NA,NA,NA,NA,NA,NA,NA,NA,ACCEPT,NA,batch10pro,batch10pro,54,51,1,Screen 1,continueButton,response_rating_scale_likert_active,5195.5,NA,NA,Strongly Agree,1,0,1,0,NA,NA,NA,NA,1,statements,"We dont know what the long term effects of taking it could be, like the ebola vaccine",1,17/06/2021 12:24,17/06/2021 13:09,IP Address,For (I feel positively about the vaccines),Rarely,Most weeks,30,Male,NA,"Postgraduate degree (MSc, MA, MPhil)",control,99,3,For,Against
54,1659955615333,08/08/2022 10:46:55,1659955615325,1,08/08/2022 11:46:55,94118,2,task-fbpo,NA,23522053,6893585,NA,complete,NA,62f0e5da6d46b70b0958037c,computer,Desktop or Laptop,Windows 10,Chrome 103.0.0.0,1280x720,1280x577,NA,ITT Ratings,2,against,10,NA,NA,NA,NA,NA,NA,NA,NA,ACCEPT,NA,batch10pro,batch10pro,46,52,1,Screen 1,continueButton,response_rating_scale_likert_active,7907.400000095367,NA,NA,Strongly Agree,1,0,1,0,NA,NA,NA,NA,1,statements,It's been rushed through so it's not safe.,1,17/06/2021 12:47,17/06/2021 13:09,IP Address,For (I feel positively about the vaccines),Rarely,A few times a year,54,Female,NA,GCSEs,choice,98,1,For,Against
55,1659955617068,08/08/2022 10:46:57,1659955617051,1,08/08/2022 11:46:57,94118,2,task-fbpo,NA,23522053,6893585,NA,complete,NA,62f0e5da6d46b70b0958037c,computer,Desktop or Laptop,Windows 10,Chrome 103.0.0.0,1280x720,1280x577,NA,ITT Ratings,2,against,10,NA,NA,NA,NA,NA,NA,NA,NA,ACCEPT,NA,batch10pro,batch10pro,48,53,1,Screen 1,continueButton,response_rating_scale_likert_active,1720.100000023842,NA,NA,Strongly Agree,1,0,1,0,NA,NA,NA,NA,1,statements,"Not everyone will have it, so what's the point.",1,17/06/2021 12:47,17/06/2021 13:09,IP Address,For (I feel positively about the vaccines),Rarely,A few times a year,54,Female,NA,GCSEs,choice,98,3,For,Against
56,1659955619605,08/08/2022 10:46:59,1659955619593,1,08/08/2022 11:46:59,94118,2,task-fbpo,NA,23522053,6893585,NA,complete,NA,62f0e5da6d46b70b0958037c,computer,Desktop or Laptop,Windows 10,Chrome 103.0.0.0,1280x720,1280x577,NA,ITT Ratings,2,against,10,NA,NA,NA,NA,NA,NA,NA,NA,ACCEPT,NA,batch10pro,batch10pro,60,54,1,Screen 1,continueButton,response_rating_scale_likert_active,2537,NA,NA,Strongly Agree,1,0,1,0,NA,NA,NA,NA,1,statements,Help save more lives.,1,17/06/2021 12:48,17/06/2021 13:10,IP Address,For (I feel positively about the vaccines),Most months,A few times a year,42,Male,NA,Vocational Training / Apprenticeship,control,100,3,For,Against
57,1659955623818,08/08/2022 10:47:03,1659955623785,1,08/08/2022 11:47:03,94118,2,task-fbpo,NA,23522053,6893585,NA,complete,NA,62f0e5da6d46b70b0958037c,computer,Desktop or Laptop,Windows 10,Chrome 103.0.0.0,1280x720,1280x577,NA,ITT Ratings,2,against,10,NA,NA,NA,NA,NA,NA,NA,NA,ACCEPT,NA,batch10pro,batch10pro,24,55,1,Screen 1,continueButton,response_rating_scale_likert_active,4186.700000047684,NA,NA,Agree,1,0,1,0,NA,NA,NA,NA,1,statements,I have an immune system already,1,17/06/2021 13:01,17/06/2021 13:09,IP Address,For (I feel positively about the vaccines),Most weeks,Most weeks,38,Male,NA,A levels,choice,94,3,For,Against
58,1659955628477,08/08/2022 10:47:08,1659955628463,1,08/08/2022 11:47:08,94118,2,task-fbpo,NA,23522053,6893585,NA,complete,NA,62f0e5da6d46b70b0958037c,computer,Desktop or Laptop,Windows 10,Chrome 103.0.0.0,1280x720,1280x577,NA,ITT Ratings,2,against,10,NA,NA,NA,NA,NA,NA,NA,NA,ACCEPT,NA,batch10pro,batch10pro,45,56,1,Screen 1,continueButton,response_rating_scale_likert_active,4672,NA,NA,Disagree,1,0,1,0,NA,NA,NA,NA,1,statements,The vaccines are reliable and there's no reason not to.,1,17/06/2021 12:46,17/06/2021 13:09,IP Address,For (I feel positively about the vaccines),Most weeks,Most months,33,Male,NA,A levels,control,97,3,For,For
59,1659955632481,08/08/2022 10:47:12,1659955632470,1,08/08/2022 11:47:12,94118,2,task-fbpo,NA,23522053,6893585,NA,complete,NA,62f0e5da6d46b70b0958037c,computer,Desktop or Laptop,Windows 10,Chrome 103.0.0.0,1280x720,1280x577,NA,ITT Ratings,2,against,10,NA,NA,NA,NA,NA,NA,NA,NA,ACCEPT,NA,batch10pro,batch10pro,14,57,1,Screen 1,continueButton,response_rating_scale_likert_active,4000.099999904633,NA,NA,Agree,1,0,1,0,NA,NA,NA,NA,1,statements,I want to protect myself,1,17/06/2021 12:59,17/06/2021 13:08,IP Address,For (I feel positively about the vaccines),Rarely,A few times a year,23,Female,NA,A levels,choice,92,2,For,For
60,1659955635040,08/08/2022 10:47:15,1659955635028,1,08/08/2022 11:47:15,94118,2,task-fbpo,NA,23522053,6893585,NA,complete,NA,62f0e5da6d46b70b0958037c,computer,Desktop or Laptop,Windows 10,Chrome 103.0.0.0,1280x720,1280x577,NA,ITT Ratings,2,against,10,NA,NA,NA,NA,NA,NA,NA,NA,ACCEPT,NA,batch10pro,batch10pro,35,58,1,Screen 1,continueButton,response_rating_scale_likert_active,2549.3000000715256,NA,NA,Strongly Agree,1,0,1,0,NA,NA,NA,NA,1,statements,the vaccines are full of bad things,1,17/06/2021 12:58,17/06/2021 13:09,IP Address,For (I feel positively about the vaccines),A few times a year,Rarely,28,Female,NA,"Postgraduate degree (MSc, MA, MPhil)",control,96,2,For,Against
61,1659955640347,08/08/2022 10:47:20,1659955640335,1,08/08/2022 11:47:20,94118,2,task-fbpo,NA,23522053,6893585,NA,complete,NA,62f0e5da6d46b70b0958037c,computer,Desktop or Laptop,Windows 10,Chrome 103.0.0.0,1280x720,1280x577,NA,ITT Ratings,2,against,10,NA,NA,NA,NA,NA,NA,NA,NA,ACCEPT,NA,batch10pro,batch10pro,18,59,1,Screen 1,continueButton,response_rating_scale_likert_active,5300.100000023842,NA,NA,Disagree,1,0,1,0,NA,NA,NA,NA,1,statements,I am easily led by people in the media,1,17/06/2021 12:59,17/06/2021 13:08,IP Address,For (I feel positively about the vaccines),Most weeks,Most days,31,Male,NA,"Undergraduate degree (BSc, BA)",control,93,3,For,Against
62,1659955642158,08/08/2022 10:47:22,1659955642144,1,08/08/2022 11:47:22,94118,2,task-fbpo,NA,23522053,6893585,NA,complete,NA,62f0e5da6d46b70b0958037c,computer,Desktop or Laptop,Windows 10,Chrome 103.0.0.0,1280x720,1280x577,NA,ITT Ratings,2,against,10,NA,NA,NA,NA,NA,NA,NA,NA,ACCEPT,NA,batch10pro,batch10pro,21,60,1,Screen 1,continueButton,response_rating_scale_likert_active,1803,NA,NA,Agree,1,0,1,0,NA,NA,NA,NA,1,statements,I want to be safe from this virus,1,17/06/2021 12:59,17/06/2021 13:08,IP Address,For (I feel positively about the vaccines),Most weeks,Most days,31,Male,NA,"Undergraduate degree (BSc, BA)",control,93,3,For,For
63,1659955647423,08/08/2022 10:47:27,1659955647406,1,08/08/2022 11:47:27,94118,2,task-fbpo,NA,23522053,6893585,NA,complete,NA,62f0e5da6d46b70b0958037c,computer,Desktop or Laptop,Windows 10,Chrome 103.0.0.0,1280x720,1280x577,NA,ITT Ratings,2,against,10,NA,NA,NA,NA,NA,NA,NA,NA,ACCEPT,NA,batch10pro,batch10pro,31,61,1,Screen 1,continueButton,response_rating_scale_likert_active,5258.800000071526,NA,NA,Neither Agree nor Disagree,1,0,1,0,NA,NA,NA,NA,1,statements,The side effects of COVID are worse,1,17/06/2021 13:02,17/06/2021 13:09,IP Address,For (I feel positively about the vaccines),Rarely,Most months,21,Male,NA,A levels,control,95,1,For,For
64,1659955707120,08/08/2022 10:48:27,1659955707116,1,08/08/2022 11:48:27,94118,2,task-fbpo,NA,23522053,6893585,NA,complete,NA,62f0e5da6d46b70b0958037c,computer,Desktop or Laptop,Windows 10,Chrome 103.0.0.0,1280x720,1280x577,NA,ITT Ratings,2,against,10,NA,NA,NA,NA,NA,NA,NA,NA,ACCEPT,NA,batch10pro,batch10pro,27,62,1,Screen 1,continueButton,response_rating_scale_likert_active,59705.10000002384,NA,NA,Neither Agree nor Disagree,1,0,1,0,NA,NA,NA,NA,1,statements,So I don't catch it again,1,17/06/2021 13:01,17/06/2021 13:09,IP Address,For (I feel positively about the vaccines),Most weeks,Most weeks,38,Male,NA,A levels,choice,94,3,For,For
65,1659955707182,08/08/2022 10:48:27,1659955707120,1,08/08/2022 11:48:27,94118,2,task-fbpo,NA,23522053,6893585,NA,complete,NA,62f0e5da6d46b70b0958037c,computer,Desktop or Laptop,Windows 10,Chrome 103.0.0.0,1280x720,1280x577,NA,ITT Ratings,2,against,10,NA,NA,NA,NA,NA,NA,NA,NA,ACCEPT,NA,batch10pro,NA,NA,END TASK,NA,NA,NA,NA,1019086,NA,NA,NA,NA,0,1,0,NA,NA,NA,NA,NA,NA,NA,NA,NA,NA,NA,NA,NA,NA,NA,NA,NA,NA,NA,NA,NA,NA,NA
1,1659955693231,08/08/2022 10:48:13,1659955693913,1,08/08/2022 11:48:13,94118,2,task-fbpo,NA,23522323,6893679,NA,complete,NA,62f0e9b0adea7f0f8ca10518,computer,Desktop or Laptop,Windows 10,Chrome 104.0.0.0,1920x1080,1920x975,NA,ITT Ratings,2,against,10,NA,NA,NA,NA,NA,NA,NA,NA,ACCEPT,NA,batch10pro,NA,NA,BEGIN TASK,NA,NA,NA,NA,NA,NA,NA,NA,NA,0,1,0,NA,NA,NA,NA,NA,NA,NA,NA,NA,NA,NA,NA,NA,NA,NA,NA,NA,NA,NA,NA,NA,NA,NA
2,1659955696346,08/08/2022 10:48:16,1659955697096,1,08/08/2022 11:48:17,94118,2,task-fbpo,NA,23522323,6893679,NA,complete,NA,62f0e9b0adea7f0f8ca10518,computer,Desktop or Laptop,Windows 10,Chrome 104.0.0.0,1920x1080,1920x975,NA,ITT Ratings,2,against,10,NA,NA,NA,NA,NA,NA,NA,NA,ACCEPT,NA,batch10pro,batch10pro,1,1,1,Screen 1,advancementZone,continue_button,3144.399999976158,NA,NA,NA,NA,0,1,0,NA,NA,NA,NA,NA,instructions,NA,NA,NA,NA,NA,NA,NA,NA,NA,NA,NA,NA,NA,NA,NA,NA,NA
3,1659955700775,08/08/2022 10:48:20,1659955701507,1,08/08/2022 11:48:21,94118,2,task-fbpo,NA,23522323,6893679,NA,complete,NA,62f0e9b0adea7f0f8ca10518,computer,Desktop or Laptop,Windows 10,Chrome 104.0.0.0,1920x1080,1920x975,NA,ITT Ratings,2,against,10,NA,NA,NA,NA,NA,NA,NA,NA,ACCEPT,NA,batch10pro,batch10pro,34,1,1,Screen 1,continueButton,response_rating_scale_likert_active,4395.899999976158,NA,NA,Agree,1,0,1,0,NA,NA,NA,NA,1,statements,the vaccines were made too quickly,1,17/06/2021 12:58,17/06/2021 13:09,IP Address,For (I feel positively about the vaccines),A few times a year,Rarely,28,Female,NA,"Postgraduate degree (MSc, MA, MPhil)",control,96,1,For,Against
4,1659955709586,08/08/2022 10:48:29,1659955710336,1,08/08/2022 11:48:30,94118,2,task-fbpo,NA,23522323,6893679,NA,complete,NA,62f0e9b0adea7f0f8ca10518,computer,Desktop or Laptop,Windows 10,Chrome 104.0.0.0,1920x1080,1920x975,NA,ITT Ratings,2,against,10,NA,NA,NA,NA,NA,NA,NA,NA,ACCEPT,NA,batch10pro,batch10pro,37,2,1,Screen 1,continueButton,response_rating_scale_likert_active,8818,NA,NA,Neither Agree nor Disagree,1,0,1,0,NA,NA,NA,NA,1,statements,one step closer to things going back to normal,1,17/06/2021 12:58,17/06/2021 13:09,IP Address,For (I feel positively about the vaccines),A few times a year,Rarely,28,Female,NA,"Postgraduate degree (MSc, MA, MPhil)",control,96,1,For,For
5,1659955715355,08/08/2022 10:48:35,1659955716063,1,08/08/2022 11:48:36,94118,2,task-fbpo,NA,23522323,6893679,NA,complete,NA,62f0e9b0adea7f0f8ca10518,computer,Desktop or Laptop,Windows 10,Chrome 104.0.0.0,1920x1080,1920x975,NA,ITT Ratings,2,against,10,NA,NA,NA,NA,NA,NA,NA,NA,ACCEPT,NA,batch10pro,batch10pro,5,3,1,Screen 1,continueButton,response_rating_scale_likert_active,5715.399999976158,NA,NA,Agree,1,0,1,0,NA,NA,NA,NA,1,statements,"I've heard that the COVID-19 vaccine causes blood clots, I'm young and healthy so COVID wouldn't affect me anyway.",1,17/06/2021 12:59,17/06/2021 13:08,IP Address,For (I feel positively about the vaccines),A few times a year,Most weeks,24,Male,NA,"Postgraduate degree (MSc, MA, MPhil)",choice,91,2,For,Against
6,1659955720517,08/08/2022 10:48:40,1659955721267,1,08/08/2022 11:48:41,94118,2,task-fbpo,NA,23522323,6893679,NA,complete,NA,62f0e9b0adea7f0f8ca10518,computer,Desktop or Laptop,Windows 10,Chrome 104.0.0.0,1920x1080,1920x975,NA,ITT Ratings,2,against,10,NA,NA,NA,NA,NA,NA,NA,NA,ACCEPT,NA,batch10pro,batch10pro,59,4,1,Screen 1,continueButton,response_rating_scale_likert_active,5193.700000047684,NA,NA,Strongly Agree,1,0,1,0,NA,NA,NA,NA,1,statements,Get life back to as normal as we can.,1,17/06/2021 12:48,17/06/2021 13:10,IP Address,For (I feel positively about the vaccines),Most months,A few times a year,42,Male,NA,Vocational Training / Apprenticeship,control,100,2,For,Against
7,1659955725351,08/08/2022 10:48:45,1659955726101,1,08/08/2022 11:48:46,94118,2,task-fbpo,NA,23522323,6893679,NA,complete,NA,62f0e9b0adea7f0f8ca10518,computer,Desktop or Laptop,Windows 10,Chrome 104.0.0.0,1920x1080,1920x975,NA,ITT Ratings,2,against,10,NA,NA,NA,NA,NA,NA,NA,NA,ACCEPT,NA,batch10pro,batch10pro,12,5,1,Screen 1,continueButton,response_rating_scale_likert_active,4820.100000023842,NA,NA,Strongly Disagree,1,0,1,0,NA,NA,NA,NA,1,statements,I'm too scared of needles,1,17/06/2021 12:59,17/06/2021 13:08,IP Address,For (I feel positively about the vaccines),Rarely,A few times a year,23,Female,NA,A levels,choice,92,3,For,Against
8,1659955729459,08/08/2022 10:48:49,1659955730180,1,08/08/2022 11:48:50,94118,2,task-fbpo,NA,23522323,6893679,NA,complete,NA,62f0e9b0adea7f0f8ca10518,computer,Desktop or Laptop,Windows 10,Chrome 104.0.0.0,1920x1080,1920x975,NA,ITT Ratings,2,against,10,NA,NA,NA,NA,NA,NA,NA,NA,ACCEPT,NA,batch10pro,batch10pro,4,6,1,Screen 1,continueButton,response_rating_scale_likert_active,4068.800000011921,NA,NA,Agree,1,0,1,0,NA,NA,NA,NA,1,statements,"I don't trust the people who are making the vaccines, vaccines usually take years to develop.",1,17/06/2021 12:59,17/06/2021 13:08,IP Address,For (I feel positively about the vaccines),A few times a year,Most weeks,24,Male,NA,"Postgraduate degree (MSc, MA, MPhil)",choice,91,1,For,Against
9,1659955734512,08/08/2022 10:48:54,1659955735251,1,08/08/2022 11:48:55,94118,2,task-fbpo,NA,23522323,6893679,NA,complete,NA,62f0e9b0adea7f0f8ca10518,computer,Desktop or Laptop,Windows 10,Chrome 104.0.0.0,1920x1080,1920x975,NA,ITT Ratings,2,against,10,NA,NA,NA,NA,NA,NA,NA,NA,ACCEPT,NA,batch10pro,batch10pro,42,7,1,Screen 1,continueButton,response_rating_scale_likert_active,5060.400000035763,NA,NA,Disagree,1,0,1,0,NA,NA,NA,NA,1,statements,Covid is a hoax and a vaccine is pointless as it's a fake disease.,1,17/06/2021 12:46,17/06/2021 13:09,IP Address,For (I feel positively about the vaccines),Most weeks,Most months,33,Male,NA,A levels,control,97,3,For,Against
10,1659955737319,08/08/2022 10:48:57,1659955738072,1,08/08/2022 11:48:58,94118,2,task-fbpo,NA,23522323,6893679,NA,complete,NA,62f0e9b0adea7f0f8ca10518,computer,Desktop or Laptop,Windows 10,Chrome 104.0.0.0,1920x1080,1920x975,NA,ITT Ratings,2,against,10,NA,NA,NA,NA,NA,NA,NA,NA,ACCEPT,NA,batch10pro,batch10pro,25,8,1,Screen 1,continueButton,response_rating_scale_likert_active,2811.7000000476837,NA,NA,Neither Agree nor Disagree,1,0,1,0,NA,NA,NA,NA,1,statements,I need to to go away on holiday,1,17/06/2021 13:01,17/06/2021 13:09,IP Address,For (I feel positively about the vaccines),Most weeks,Most weeks,38,Male,NA,A levels,choice,94,1,For,For
11,1659955745842,08/08/2022 10:49:05,1659955746593,1,08/08/2022 11:49:06,94118,2,task-fbpo,NA,23522323,6893679,NA,complete,NA,62f0e9b0adea7f0f8ca10518,computer,Desktop or Laptop,Windows 10,Chrome 104.0.0.0,1920x1080,1920x975,NA,ITT Ratings,2,against,10,NA,NA,NA,NA,NA,NA,NA,NA,ACCEPT,NA,batch10pro,batch10pro,32,9,1,Screen 1,continueButton,response_rating_scale_likert_active,8510.800000011921,NA,NA,Neither Agree nor Disagree,1,0,1,0,NA,NA,NA,NA,1,statements,I want to protect others,1,17/06/2021 13:02,17/06/2021 13:09,IP Address,For (I feel positively about the vaccines),Rarely,Most months,21,Male,NA,A levels,control,95,2,For,For
12,1659955748815,08/08/2022 10:49:08,1659955749473,1,08/08/2022 11:49:09,94118,2,task-fbpo,NA,23522323,6893679,NA,complete,NA,62f0e9b0adea7f0f8ca10518,computer,Desktop or Laptop,Windows 10,Chrome 104.0.0.0,1920x1080,1920x975,NA,ITT Ratings,2,against,10,NA,NA,NA,NA,NA,NA,NA,NA,ACCEPT,NA,batch10pro,batch10pro,40,10,1,Screen 1,continueButton,response_rating_scale_likert_active,2871.2999999523163,NA,NA,Somewhat Agree,1,0,1,0,NA,NA,NA,NA,1,statements,The vaccine is government controlling citizens.,1,17/06/2021 12:46,17/06/2021 13:09,IP Address,For (I feel positively about the vaccines),Most weeks,Most months,33,Male,NA,A levels,control,97,1,For,Against
13,1659955751995,08/08/2022 10:49:11,1659955752748,1,08/08/2022 11:49:12,94118,2,task-fbpo,NA,23522323,6893679,NA,complete,NA,62f0e9b0adea7f0f8ca10518,computer,Desktop or Laptop,Windows 10,Chrome 104.0.0.0,1920x1080,1920x975,NA,ITT Ratings,2,against,10,NA,NA,NA,NA,NA,NA,NA,NA,ACCEPT,NA,batch10pro,batch10pro,44,11,1,Screen 1,continueButton,response_rating_scale_likert_active,3265.5,NA,NA,Neither Agree nor Disagree,1,0,1,0,NA,NA,NA,NA,1,statements,I want to ensure I don't catch it myself,1,17/06/2021 12:46,17/06/2021 13:09,IP Address,For (I feel positively about the vaccines),Most weeks,Most months,33,Male,NA,A levels,control,97,2,For,For
14,1659955754254,08/08/2022 10:49:14,1659955755008,1,08/08/2022 11:49:15,94118,2,task-fbpo,NA,23522323,6893679,NA,complete,NA,62f0e9b0adea7f0f8ca10518,computer,Desktop or Laptop,Windows 10,Chrome 104.0.0.0,1920x1080,1920x975,NA,ITT Ratings,2,against,10,NA,NA,NA,NA,NA,NA,NA,NA,ACCEPT,NA,batch10pro,batch10pro,46,12,1,Screen 1,continueButton,response_rating_scale_likert_active,2251.100000023842,NA,NA,Somewhat Agree,1,0,1,0,NA,NA,NA,NA,1,statements,It's been rushed through so it's not safe.,1,17/06/2021 12:47,17/06/2021 13:09,IP Address,For (I feel positively about the vaccines),Rarely,A few times a year,54,Female,NA,GCSEs,choice,98,1,For,Against
15,1659955758244,08/08/2022 10:49:18,1659955758969,1,08/08/2022 11:49:18,94118,2,task-fbpo,NA,23522323,6893679,NA,complete,NA,62f0e9b0adea7f0f8ca10518,computer,Desktop or Laptop,Windows 10,Chrome 104.0.0.0,1920x1080,1920x975,NA,ITT Ratings,2,against,10,NA,NA,NA,NA,NA,NA,NA,NA,ACCEPT,NA,batch10pro,batch10pro,9,13,1,Screen 1,continueButton,response_rating_scale_likert_active,3950.699999988079,NA,NA,Neither Agree nor Disagree,1,0,1,0,NA,NA,NA,NA,1,statements,I don't want to transmit COVID to my elderly relatives - vaccination seems like the best deterrent.,1,17/06/2021 12:59,17/06/2021 13:08,IP Address,For (I feel positively about the vaccines),A few times a year,Most weeks,24,Male,NA,"Postgraduate degree (MSc, MA, MPhil)",choice,91,3,For,For
16,1659955761327,08/08/2022 10:49:21,1659955762069,1,08/08/2022 11:49:22,94118,2,task-fbpo,NA,23522323,6893679,NA,complete,NA,62f0e9b0adea7f0f8ca10518,computer,Desktop or Laptop,Windows 10,Chrome 104.0.0.0,1920x1080,1920x975,NA,ITT Ratings,2,against,10,NA,NA,NA,NA,NA,NA,NA,NA,ACCEPT,NA,batch10pro,batch10pro,22,14,1,Screen 1,continueButton,response_rating_scale_likert_active,3090.199999988079,NA,NA,Somewhat Agree,1,0,1,0,NA,NA,NA,NA,1,statements,Not been tested not enough time,1,17/06/2021 13:01,17/06/2021 13:09,IP Address,For (I feel positively about the vaccines),Most weeks,Most weeks,38,Male,NA,A levels,choice,94,1,For,Against
17,1659955766039,08/08/2022 10:49:26,1659955766792,1,08/08/2022 11:49:26,94118,2,task-fbpo,NA,23522323,6893679,NA,complete,NA,62f0e9b0adea7f0f8ca10518,computer,Desktop or Laptop,Windows 10,Chrome 104.0.0.0,1920x1080,1920x975,NA,ITT Ratings,2,against,10,NA,NA,NA,NA,NA,NA,NA,NA,ACCEPT,NA,batch10pro,batch10pro,2,15,1,Screen 1,continueButton,response_rating_scale_likert_active,4712,NA,NA,Somewhat Agree,1,0,1,0,NA,NA,NA,NA,1,statements,We would like to check you are reading each argument carefully. Please select 'Somewhat Agree' for this answer,1,NA,NA,NA,NA,NA,NA,NA,NA,NA,NA,NA,NA,check1,NA,NA
18,1659955771412,08/08/2022 10:49:31,1659955772155,1,08/08/2022 11:49:32,94118,2,task-fbpo,NA,23522323,6893679,NA,complete,NA,62f0e9b0adea7f0f8ca10518,computer,Desktop or Laptop,Windows 10,Chrome 104.0.0.0,1920x1080,1920x975,NA,ITT Ratings,2,against,10,NA,NA,NA,NA,NA,NA,NA,NA,ACCEPT,NA,batch10pro,batch10pro,49,16,1,Screen 1,continueButton,response_rating_scale_likert_active,5354.699999988079,NA,NA,Strongly Disagree,1,0,1,0,NA,NA,NA,NA,1,statements,I really want the injection so I will be protected against the virus. I already have the influenza vaccine so I am not worried.,1,17/06/2021 12:47,17/06/2021 13:09,IP Address,For (I feel positively about the vaccines),Rarely,A few times a year,54,Female,NA,GCSEs,choice,98,1,For,For
19,1659955775122,08/08/2022 10:49:35,1659955775879,1,08/08/2022 11:49:35,94118,2,task-fbpo,NA,23522323,6893679,NA,complete,NA,62f0e9b0adea7f0f8ca10518,computer,Desktop or Laptop,Windows 10,Chrome 104.0.0.0,1920x1080,1920x975,NA,ITT Ratings,2,against,10,NA,NA,NA,NA,NA,NA,NA,NA,ACCEPT,NA,batch10pro,batch10pro,20,17,1,Screen 1,continueButton,response_rating_scale_likert_active,3715,NA,NA,Neither Agree nor Disagree,1,0,1,0,NA,NA,NA,NA,1,statements,I want to see family,1,17/06/2021 12:59,17/06/2021 13:08,IP Address,For (I feel positively about the vaccines),Most weeks,Most days,31,Male,NA,"Undergraduate degree (BSc, BA)",control,93,2,For,For
20,1659955777777,08/08/2022 10:49:37,1659955778536,1,08/08/2022 11:49:38,94118,2,task-fbpo,NA,23522323,6893679,NA,complete,NA,62f0e9b0adea7f0f8ca10518,computer,Desktop or Laptop,Windows 10,Chrome 104.0.0.0,1920x1080,1920x975,NA,ITT Ratings,2,against,10,NA,NA,NA,NA,NA,NA,NA,NA,ACCEPT,NA,batch10pro,batch10pro,61,18,1,Screen 1,continueButton,response_rating_scale_likert_active,2643.699999988079,NA,NA,Agree,1,0,1,0,NA,NA,NA,NA,1,statements,Don't trust the process has been long enough,1,17/06/2021 12:48,17/06/2021 13:10,IP Address,For (I feel positively about the vaccines),Most months,A few times a year,42,Male,NA,Vocational Training / Apprenticeship,control,100,1,For,For
21,1659955783691,08/08/2022 10:49:43,1659955784432,1,08/08/2022 11:49:44,94118,2,task-fbpo,NA,23522323,6893679,NA,complete,NA,62f0e9b0adea7f0f8ca10518,computer,Desktop or Laptop,Windows 10,Chrome 104.0.0.0,1920x1080,1920x975,NA,ITT Ratings,2,against,10,NA,NA,NA,NA,NA,NA,NA,NA,ACCEPT,NA,batch10pro,batch10pro,3,19,1,Screen 1,continueButton,response_rating_scale_likert_active,5886.899999976158,NA,NA,Somewhat Disagree,1,0,1,0,NA,NA,NA,NA,1,statements,We would like to check you are reading each argument carefully. Please select 'Somewhat Disagree' for this answer,1,NA,NA,NA,NA,NA,NA,NA,NA,NA,NA,NA,NA,check2,NA,NA
22,1659955786897,08/08/2022 10:49:46,1659955787649,1,08/08/2022 11:49:47,94118,2,task-fbpo,NA,23522323,6893679,NA,complete,NA,62f0e9b0adea7f0f8ca10518,computer,Desktop or Laptop,Windows 10,Chrome 104.0.0.0,1920x1080,1920x975,NA,ITT Ratings,2,against,10,NA,NA,NA,NA,NA,NA,NA,NA,ACCEPT,NA,batch10pro,batch10pro,36,20,1,Screen 1,continueButton,response_rating_scale_likert_active,3208.399999976158,NA,NA,Disagree,1,0,1,0,NA,NA,NA,NA,1,statements,all vaccines are damaging in the long run,1,17/06/2021 12:58,17/06/2021 13:09,IP Address,For (I feel positively about the vaccines),A few times a year,Rarely,28,Female,NA,"Postgraduate degree (MSc, MA, MPhil)",control,96,3,For,Against
23,1659955790245,08/08/2022 10:49:50,1659955790816,1,08/08/2022 11:49:50,94118,2,task-fbpo,NA,23522323,6893679,NA,complete,NA,62f0e9b0adea7f0f8ca10518,computer,Desktop or Laptop,Windows 10,Chrome 104.0.0.0,1920x1080,1920x975,NA,ITT Ratings,2,against,10,NA,NA,NA,NA,NA,NA,NA,NA,ACCEPT,NA,batch10pro,batch10pro,62,21,1,Screen 1,continueButton,response_rating_scale_likert_active,3157.900000035763,NA,NA,Somewhat Agree,1,0,1,0,NA,NA,NA,NA,1,statements,The government are scaring people with pumed stats,1,17/06/2021 12:48,17/06/2021 13:10,IP Address,For (I feel positively about the vaccines),Most months,A few times a year,42,Male,NA,Vocational Training / Apprenticeship,control,100,2,For,For
24,1659955793464,08/08/2022 10:49:53,1659955794205,1,08/08/2022 11:49:54,94118,2,task-fbpo,NA,23522323,6893679,NA,complete,NA,62f0e9b0adea7f0f8ca10518,computer,Desktop or Laptop,Windows 10,Chrome 104.0.0.0,1920x1080,1920x975,NA,ITT Ratings,2,against,10,NA,NA,NA,NA,NA,NA,NA,NA,ACCEPT,NA,batch10pro,batch10pro,18,22,1,Screen 1,continueButton,response_rating_scale_likert_active,3380.600000023842,NA,NA,Disagree,1,0,1,0,NA,NA,NA,NA,1,statements,I am easily led by people in the media,1,17/06/2021 12:59,17/06/2021 13:08,IP Address,For (I feel positively about the vaccines),Most weeks,Most days,31,Male,NA,"Undergraduate degree (BSc, BA)",control,93,3,For,Against
25,1659955798123,08/08/2022 10:49:58,1659955798870,1,08/08/2022 11:49:58,94118,2,task-fbpo,NA,23522323,6893679,NA,complete,NA,62f0e9b0adea7f0f8ca10518,computer,Desktop or Laptop,Windows 10,Chrome 104.0.0.0,1920x1080,1920x975,NA,ITT Ratings,2,against,10,NA,NA,NA,NA,NA,NA,NA,NA,ACCEPT,NA,batch10pro,batch10pro,8,23,1,Screen 1,continueButton,response_rating_scale_likert_active,4655.199999988079,NA,NA,Strongly Disagree,1,0,1,0,NA,NA,NA,NA,1,statements,"I care about people and I don't want to die, vaccination is the only option.",1,17/06/2021 12:59,17/06/2021 13:08,IP Address,For (I feel positively about the vaccines),A few times a year,Most weeks,24,Male,NA,"Postgraduate degree (MSc, MA, MPhil)",choice,91,2,For,For
26,1659955802531,08/08/2022 10:50:02,1659955803274,1,08/08/2022 11:50:03,94118,2,task-fbpo,NA,23522323,6893679,NA,complete,NA,62f0e9b0adea7f0f8ca10518,computer,Desktop or Laptop,Windows 10,Chrome 104.0.0.0,1920x1080,1920x975,NA,ITT Ratings,2,against,10,NA,NA,NA,NA,NA,NA,NA,NA,ACCEPT,NA,batch10pro,batch10pro,10,24,1,Screen 1,continueButton,response_rating_scale_likert_active,4395.699999988079,NA,NA,Somewhat Agree,1,0,1,0,NA,NA,NA,NA,1,statements,I don't trust what's in the vaccine,1,17/06/2021 12:59,17/06/2021 13:08,IP Address,For (I feel positively about the vaccines),Rarely,A few times a year,23,Female,NA,A levels,choice,92,1,For,Against
27,1659955806266,08/08/2022 10:50:06,1659955807009,1,08/08/2022 11:50:07,94118,2,task-fbpo,NA,23522323,6893679,NA,complete,NA,62f0e9b0adea7f0f8ca10518,computer,Desktop or Laptop,Windows 10,Chrome 104.0.0.0,1920x1080,1920x975,NA,ITT Ratings,2,against,10,NA,NA,NA,NA,NA,NA,NA,NA,ACCEPT,NA,batch10pro,batch10pro,14,25,1,Screen 1,continueButton,response_rating_scale_likert_active,3727,NA,NA,Neither Agree nor Disagree,1,0,1,0,NA,NA,NA,NA,1,statements,I want to protect myself,1,17/06/2021 12:59,17/06/2021 13:08,IP Address,For (I feel positively about the vaccines),Rarely,A few times a year,23,Female,NA,A levels,choice,92,2,For,For
28,1659955808244,08/08/2022 10:50:08,1659955808978,1,08/08/2022 11:50:08,94118,2,task-fbpo,NA,23522323,6893679,NA,complete,NA,62f0e9b0adea7f0f8ca10518,computer,Desktop or Laptop,Windows 10,Chrome 104.0.0.0,1920x1080,1920x975,NA,ITT Ratings,2,against,10,NA,NA,NA,NA,NA,NA,NA,NA,ACCEPT,NA,batch10pro,batch10pro,26,26,1,Screen 1,continueButton,response_rating_scale_likert_active,1960.800000011921,NA,NA,Strongly Agree,1,0,1,0,NA,NA,NA,NA,1,statements,I want lockdown to end,1,17/06/2021 13:01,17/06/2021 13:09,IP Address,For (I feel positively about the vaccines),Most weeks,Most weeks,38,Male,NA,A levels,choice,94,2,For,For
29,1659955813328,08/08/2022 10:50:13,1659955814036,1,08/08/2022 11:50:14,94118,2,task-fbpo,NA,23522323,6893679,NA,complete,NA,62f0e9b0adea7f0f8ca10518,computer,Desktop or Laptop,Windows 10,Chrome 104.0.0.0,1920x1080,1920x975,NA,ITT Ratings,2,against,10,NA,NA,NA,NA,NA,NA,NA,NA,ACCEPT,NA,batch10pro,batch10pro,7,27,1,Screen 1,continueButton,response_rating_scale_likert_active,5048.599999964237,NA,NA,Strongly Disagree,1,0,1,0,NA,NA,NA,NA,1,statements,"We won't be able to get out of lockdown unless we all get vaccinated, I want to get out soon.",1,17/06/2021 12:59,17/06/2021 13:08,IP Address,For (I feel positively about the vaccines),A few times a year,Most weeks,24,Male,NA,"Postgraduate degree (MSc, MA, MPhil)",choice,91,1,For,For
30,1659955815476,08/08/2022 10:50:15,1659955816232,1,08/08/2022 11:50:16,94118,2,task-fbpo,NA,23522323,6893679,NA,complete,NA,62f0e9b0adea7f0f8ca10518,computer,Desktop or Laptop,Windows 10,Chrome 104.0.0.0,1920x1080,1920x975,NA,ITT Ratings,2,against,10,NA,NA,NA,NA,NA,NA,NA,NA,ACCEPT,NA,batch10pro,batch10pro,56,28,1,Screen 1,continueButton,response_rating_scale_likert_active,2187.900000035763,NA,NA,Neither Agree nor Disagree,1,0,1,0,NA,NA,NA,NA,1,statements,less worry in the long run,1,17/06/2021 12:24,17/06/2021 13:09,IP Address,For (I feel positively about the vaccines),Rarely,Most weeks,30,Male,NA,"Postgraduate degree (MSc, MA, MPhil)",control,99,2,For,For
31,1659955828377,08/08/2022 10:50:28,1659955829119,1,08/08/2022 11:50:29,94118,2,task-fbpo,NA,23522323,6893679,NA,complete,NA,62f0e9b0adea7f0f8ca10518,computer,Desktop or Laptop,Windows 10,Chrome 104.0.0.0,1920x1080,1920x975,NA,ITT Ratings,2,against,10,NA,NA,NA,NA,NA,NA,NA,NA,ACCEPT,NA,batch10pro,batch10pro,58,29,1,Screen 1,continueButton,response_rating_scale_likert_active,12878.599999964235,NA,NA,Disagree,1,0,1,0,NA,NA,NA,NA,1,statements,The vaccine is safe check out the info before making a decision,1,17/06/2021 12:48,17/06/2021 13:10,IP Address,For (I feel positively about the vaccines),Most months,A few times a year,42,Male,NA,Vocational Training / Apprenticeship,control,100,1,For,Against
32,1659955831088,08/08/2022 10:50:31,1659955831832,1,08/08/2022 11:50:31,94118,2,task-fbpo,NA,23522323,6893679,NA,complete,NA,62f0e9b0adea7f0f8ca10518,computer,Desktop or Laptop,Windows 10,Chrome 104.0.0.0,1920x1080,1920x975,NA,ITT Ratings,2,against,10,NA,NA,NA,NA,NA,NA,NA,NA,ACCEPT,NA,batch10pro,batch10pro,41,30,1,Screen 1,continueButton,response_rating_scale_likert_active,2703.599999964237,NA,NA,Strongly Disagree,1,0,1,0,NA,NA,NA,NA,1,statements,I'm scared of needles so I can't face it.,1,17/06/2021 12:46,17/06/2021 13:09,IP Address,For (I feel positively about the vaccines),Most weeks,Most months,33,Male,NA,A levels,control,97,2,For,Against
33,1659955833751,08/08/2022 10:50:33,1659955834497,1,08/08/2022 11:50:34,94118,2,task-fbpo,NA,23522323,6893679,NA,complete,NA,62f0e9b0adea7f0f8ca10518,computer,Desktop or Laptop,Windows 10,Chrome 104.0.0.0,1920x1080,1920x975,NA,ITT Ratings,2,against,10,NA,NA,NA,NA,NA,NA,NA,NA,ACCEPT,NA,batch10pro,batch10pro,30,31,1,Screen 1,continueButton,response_rating_scale_likert_active,2655.199999988079,NA,NA,Strongly Disagree,1,0,1,0,NA,NA,NA,NA,1,statements,The vaccines contain a microchip,1,17/06/2021 13:02,17/06/2021 13:09,IP Address,For (I feel positively about the vaccines),Rarely,Most months,21,Male,NA,A levels,control,95,3,For,Against
34,1659955837357,08/08/2022 10:50:37,1659955838115,1,08/08/2022 11:50:38,94118,2,task-fbpo,NA,23522323,6893679,NA,complete,NA,62f0e9b0adea7f0f8ca10518,computer,Desktop or Laptop,Windows 10,Chrome 104.0.0.0,1920x1080,1920x975,NA,ITT Ratings,2,against,10,NA,NA,NA,NA,NA,NA,NA,NA,ACCEPT,NA,batch10pro,batch10pro,15,32,1,Screen 1,continueButton,response_rating_scale_likert_active,3608.5,NA,NA,Neither Agree nor Disagree,1,0,1,0,NA,NA,NA,NA,1,statements,I want to keep my friends and family safe,1,17/06/2021 12:59,17/06/2021 13:08,IP Address,For (I feel positively about the vaccines),Rarely,A few times a year,23,Female,NA,A levels,choice,92,3,For,For
35,1659955841008,08/08/2022 10:50:41,1659955841674,1,08/08/2022 11:50:41,94118,2,task-fbpo,NA,23522323,6893679,NA,complete,NA,62f0e9b0adea7f0f8ca10518,computer,Desktop or Laptop,Windows 10,Chrome 104.0.0.0,1920x1080,1920x975,NA,ITT Ratings,2,against,10,NA,NA,NA,NA,NA,NA,NA,NA,ACCEPT,NA,batch10pro,batch10pro,16,33,1,Screen 1,continueButton,response_rating_scale_likert_active,3550.399999976158,NA,NA,Neither Agree nor Disagree,1,0,1,0,NA,NA,NA,NA,1,statements,They do not trust the science,1,17/06/2021 12:59,17/06/2021 13:08,IP Address,For (I feel positively about the vaccines),Most weeks,Most days,31,Male,NA,"Undergraduate degree (BSc, BA)",control,93,1,For,Against
36,1659955843558,08/08/2022 10:50:43,1659955844285,1,08/08/2022 11:50:44,94118,2,task-fbpo,NA,23522323,6893679,NA,complete,NA,62f0e9b0adea7f0f8ca10518,computer,Desktop or Laptop,Windows 10,Chrome 104.0.0.0,1920x1080,1920x975,NA,ITT Ratings,2,against,10,NA,NA,NA,NA,NA,NA,NA,NA,ACCEPT,NA,batch10pro,batch10pro,24,34,1,Screen 1,continueButton,response_rating_scale_likert_active,2602.5,NA,NA,Agree,1,0,1,0,NA,NA,NA,NA,1,statements,I have an immune system already,1,17/06/2021 13:01,17/06/2021 13:09,IP Address,For (I feel positively about the vaccines),Most weeks,Most weeks,38,Male,NA,A levels,choice,94,3,For,Against
37,1659955845574,08/08/2022 10:50:45,1659955846325,1,08/08/2022 11:50:46,94118,2,task-fbpo,NA,23522323,6893679,NA,complete,NA,62f0e9b0adea7f0f8ca10518,computer,Desktop or Laptop,Windows 10,Chrome 104.0.0.0,1920x1080,1920x975,NA,ITT Ratings,2,against,10,NA,NA,NA,NA,NA,NA,NA,NA,ACCEPT,NA,batch10pro,batch10pro,11,35,1,Screen 1,continueButton,response_rating_scale_likert_active,2032.300000011921,NA,NA,Agree,1,0,1,0,NA,NA,NA,NA,1,statements,I don't think they are effective,1,17/06/2021 12:59,17/06/2021 13:08,IP Address,For (I feel positively about the vaccines),Rarely,A few times a year,23,Female,NA,A levels,choice,92,2,For,Against
38,1659955847923,08/08/2022 10:50:47,1659955848650,1,08/08/2022 11:50:48,94118,2,task-fbpo,NA,23522323,6893679,NA,complete,NA,62f0e9b0adea7f0f8ca10518,computer,Desktop or Laptop,Windows 10,Chrome 104.0.0.0,1920x1080,1920x975,NA,ITT Ratings,2,against,10,NA,NA,NA,NA,NA,NA,NA,NA,ACCEPT,NA,batch10pro,batch10pro,19,36,1,Screen 1,continueButton,response_rating_scale_likert_active,2316.5,NA,NA,Neither Agree nor Disagree,1,0,1,0,NA,NA,NA,NA,1,statements,I want to be able to travel internationally,1,17/06/2021 12:59,17/06/2021 13:08,IP Address,For (I feel positively about the vaccines),Most weeks,Most days,31,Male,NA,"Undergraduate degree (BSc, BA)",control,93,1,For,For
39,1659955850181,08/08/2022 10:50:50,1659955850934,1,08/08/2022 11:50:50,94118,2,task-fbpo,NA,23522323,6893679,NA,complete,NA,62f0e9b0adea7f0f8ca10518,computer,Desktop or Laptop,Windows 10,Chrome 104.0.0.0,1920x1080,1920x975,NA,ITT Ratings,2,against,10,NA,NA,NA,NA,NA,NA,NA,NA,ACCEPT,NA,batch10pro,batch10pro,27,37,1,Screen 1,continueButton,response_rating_scale_likert_active,2276.199999988079,NA,NA,Neither Agree nor Disagree,1,0,1,0,NA,NA,NA,NA,1,statements,So I don't catch it again,1,17/06/2021 13:01,17/06/2021 13:09,IP Address,For (I feel positively about the vaccines),Most weeks,Most weeks,38,Male,NA,A levels,choice,94,3,For,For
40,1659955851733,08/08/2022 10:50:51,1659955852472,1,08/08/2022 11:50:52,94118,2,task-fbpo,NA,23522323,6893679,NA,complete,NA,62f0e9b0adea7f0f8ca10518,computer,Desktop or Laptop,Windows 10,Chrome 104.0.0.0,1920x1080,1920x975,NA,ITT Ratings,2,against,10,NA,NA,NA,NA,NA,NA,NA,NA,ACCEPT,NA,batch10pro,batch10pro,33,38,1,Screen 1,continueButton,response_rating_scale_likert_active,1528.4000000357628,NA,NA,Neither Agree nor Disagree,1,0,1,0,NA,NA,NA,NA,1,statements,I need to due to work,1,17/06/2021 13:02,17/06/2021 13:09,IP Address,For (I feel positively about the vaccines),Rarely,Most months,21,Male,NA,A levels,control,95,3,For,For
41,1659955858023,08/08/2022 10:50:58,1659955858771,1,08/08/2022 11:50:58,94118,2,task-fbpo,NA,23522323,6893679,NA,complete,NA,62f0e9b0adea7f0f8ca10518,computer,Desktop or Laptop,Windows 10,Chrome 104.0.0.0,1920x1080,1920x975,NA,ITT Ratings,2,against,10,NA,NA,NA,NA,NA,NA,NA,NA,ACCEPT,NA,batch10pro,batch10pro,51,39,1,Screen 1,continueButton,response_rating_scale_likert_active,6290.5,NA,NA,Disagree,1,0,1,0,NA,NA,NA,NA,1,statements,"Other vaccination programmes have been successful in eradicating illnesses, so why should this be any different. Having the vaccine gives us the best chance of getting back to normal.",1,17/06/2021 12:47,17/06/2021 13:09,IP Address,For (I feel positively about the vaccines),Rarely,A few times a year,54,Female,NA,GCSEs,choice,98,3,For,For
42,1659955862332,08/08/2022 10:51:02,1659955863076,1,08/08/2022 11:51:03,94118,2,task-fbpo,NA,23522323,6893679,NA,complete,NA,62f0e9b0adea7f0f8ca10518,computer,Desktop or Laptop,Windows 10,Chrome 104.0.0.0,1920x1080,1920x975,NA,ITT Ratings,2,against,10,NA,NA,NA,NA,NA,NA,NA,NA,ACCEPT,NA,batch10pro,batch10pro,35,40,1,Screen 1,continueButton,response_rating_scale_likert_active,4297.099999964237,NA,NA,Somewhat Agree,1,0,1,0,NA,NA,NA,NA,1,statements,the vaccines are full of bad things,1,17/06/2021 12:58,17/06/2021 13:09,IP Address,For (I feel positively about the vaccines),A few times a year,Rarely,28,Female,NA,"Postgraduate degree (MSc, MA, MPhil)",control,96,2,For,Against
43,1659955866045,08/08/2022 10:51:06,1659955866800,1,08/08/2022 11:51:06,94118,2,task-fbpo,NA,23522323,6893679,NA,complete,NA,62f0e9b0adea7f0f8ca10518,computer,Desktop or Laptop,Windows 10,Chrome 104.0.0.0,1920x1080,1920x975,NA,ITT Ratings,2,against,10,NA,NA,NA,NA,NA,NA,NA,NA,ACCEPT,NA,batch10pro,batch10pro,45,41,1,Screen 1,continueButton,response_rating_scale_likert_active,3715.599999964237,NA,NA,Disagree,1,0,1,0,NA,NA,NA,NA,1,statements,The vaccines are reliable and there's no reason not to.,1,17/06/2021 12:46,17/06/2021 13:09,IP Address,For (I feel positively about the vaccines),Most weeks,Most months,33,Male,NA,A levels,control,97,3,For,For
44,1659955870018,08/08/2022 10:51:10,1659955870751,1,08/08/2022 11:51:10,94118,2,task-fbpo,NA,23522323,6893679,NA,complete,NA,62f0e9b0adea7f0f8ca10518,computer,Desktop or Laptop,Windows 10,Chrome 104.0.0.0,1920x1080,1920x975,NA,ITT Ratings,2,against,10,NA,NA,NA,NA,NA,NA,NA,NA,ACCEPT,NA,batch10pro,batch10pro,48,42,1,Screen 1,continueButton,response_rating_scale_likert_active,3940.800000011921,NA,NA,Neither Agree nor Disagree,1,0,1,0,NA,NA,NA,NA,1,statements,"Not everyone will have it, so what's the point.",1,17/06/2021 12:47,17/06/2021 13:09,IP Address,For (I feel positively about the vaccines),Rarely,A few times a year,54,Female,NA,GCSEs,choice,98,3,For,Against
45,1659955874490,08/08/2022 10:51:14,1659955875232,1,08/08/2022 11:51:15,94118,2,task-fbpo,NA,23522323,6893679,NA,complete,NA,62f0e9b0adea7f0f8ca10518,computer,Desktop or Laptop,Windows 10,Chrome 104.0.0.0,1920x1080,1920x975,NA,ITT Ratings,2,against,10,NA,NA,NA,NA,NA,NA,NA,NA,ACCEPT,NA,batch10pro,batch10pro,13,43,1,Screen 1,continueButton,response_rating_scale_likert_active,4471.599999964237,NA,NA,Agree,1,0,1,0,NA,NA,NA,NA,1,statements,I want life to continue like normal,1,17/06/2021 12:59,17/06/2021 13:08,IP Address,For (I feel positively about the vaccines),Rarely,A few times a year,23,Female,NA,A levels,choice,92,1,For,For
46,1659955877696,08/08/2022 10:51:17,1659955878446,1,08/08/2022 11:51:18,94118,2,task-fbpo,NA,23522323,6893679,NA,complete,NA,62f0e9b0adea7f0f8ca10518,computer,Desktop or Laptop,Windows 10,Chrome 104.0.0.0,1920x1080,1920x975,NA,ITT Ratings,2,against,10,NA,NA,NA,NA,NA,NA,NA,NA,ACCEPT,NA,batch10pro,batch10pro,28,44,1,Screen 1,continueButton,response_rating_scale_likert_active,3206.099999964237,NA,NA,Somewhat Agree,1,0,1,0,NA,NA,NA,NA,1,statements,The vaccines use new MRNA tech and are therefore unsafe.,1,17/06/2021 13:02,17/06/2021 13:09,IP Address,For (I feel positively about the vaccines),Rarely,Most months,21,Male,NA,A levels,control,95,1,For,Against
47,1659955883219,08/08/2022 10:51:23,1659955883980,1,08/08/2022 11:51:23,94118,2,task-fbpo,NA,23522323,6893679,NA,complete,NA,62f0e9b0adea7f0f8ca10518,computer,Desktop or Laptop,Windows 10,Chrome 104.0.0.0,1920x1080,1920x975,NA,ITT Ratings,2,against,10,NA,NA,NA,NA,NA,NA,NA,NA,ACCEPT,NA,batch10pro,batch10pro,54,45,1,Screen 1,continueButton,response_rating_scale_likert_active,5524.099999964237,NA,NA,Strongly Agree,1,0,1,0,NA,NA,NA,NA,1,statements,"We dont know what the long term effects of taking it could be, like the ebola vaccine",1,17/06/2021 12:24,17/06/2021 13:09,IP Address,For (I feel positively about the vaccines),Rarely,Most weeks,30,Male,NA,"Postgraduate degree (MSc, MA, MPhil)",control,99,3,For,Against
48,1659955885006,08/08/2022 10:51:25,1659955885765,1,08/08/2022 11:51:25,94118,2,task-fbpo,NA,23522323,6893679,NA,complete,NA,62f0e9b0adea7f0f8ca10518,computer,Desktop or Laptop,Windows 10,Chrome 104.0.0.0,1920x1080,1920x975,NA,ITT Ratings,2,against,10,NA,NA,NA,NA,NA,NA,NA,NA,ACCEPT,NA,batch10pro,batch10pro,57,46,1,Screen 1,continueButton,response_rating_scale_likert_active,1773.600000023842,NA,NA,Neither Agree nor Disagree,1,0,1,0,NA,NA,NA,NA,1,statements,for your own health and those arround you,1,17/06/2021 12:24,17/06/2021 13:09,IP Address,For (I feel positively about the vaccines),Rarely,Most weeks,30,Male,NA,"Postgraduate degree (MSc, MA, MPhil)",control,99,3,For,For
49,1659955887413,08/08/2022 10:51:27,1659955888170,1,08/08/2022 11:51:28,94118,2,task-fbpo,NA,23522323,6893679,NA,complete,NA,62f0e9b0adea7f0f8ca10518,computer,Desktop or Laptop,Windows 10,Chrome 104.0.0.0,1920x1080,1920x975,NA,ITT Ratings,2,against,10,NA,NA,NA,NA,NA,NA,NA,NA,ACCEPT,NA,batch10pro,batch10pro,43,47,1,Screen 1,continueButton,response_rating_scale_likert_active,2396.900000035763,NA,NA,Somewhat Agree,1,0,1,0,NA,NA,NA,NA,1,statements,We need to protect our vulnerable.,1,17/06/2021 12:46,17/06/2021 13:09,IP Address,For (I feel positively about the vaccines),Most weeks,Most months,33,Male,NA,A levels,control,97,1,For,For
50,1659955890597,08/08/2022 10:51:30,1659955891353,1,08/08/2022 11:51:31,94118,2,task-fbpo,NA,23522323,6893679,NA,complete,NA,62f0e9b0adea7f0f8ca10518,computer,Desktop or Laptop,Windows 10,Chrome 104.0.0.0,1920x1080,1920x975,NA,ITT Ratings,2,against,10,NA,NA,NA,NA,NA,NA,NA,NA,ACCEPT,NA,batch10pro,batch10pro,53,48,1,Screen 1,continueButton,response_rating_scale_likert_active,3174.5,NA,NA,Strongly Disagree,1,0,1,0,NA,NA,NA,NA,1,statements,"It has a tracker (or some variation, 5g or something) hidden in it",1,17/06/2021 12:24,17/06/2021 13:09,IP Address,For (I feel positively about the vaccines),Rarely,Most weeks,30,Male,NA,"Postgraduate degree (MSc, MA, MPhil)",control,99,2,For,Against
51,1659955896396,08/08/2022 10:51:36,1659955897157,1,08/08/2022 11:51:37,94118,2,task-fbpo,NA,23522323,6893679,NA,complete,NA,62f0e9b0adea7f0f8ca10518,computer,Desktop or Laptop,Windows 10,Chrome 104.0.0.0,1920x1080,1920x975,NA,ITT Ratings,2,against,10,NA,NA,NA,NA,NA,NA,NA,NA,ACCEPT,NA,batch10pro,batch10pro,63,49,1,Screen 1,continueButton,response_rating_scale_likert_active,5795.600000023842,NA,NA,Strongly Disagree,1,0,1,0,NA,NA,NA,NA,1,statements,I don't like needles,1,17/06/2021 12:48,17/06/2021 13:10,IP Address,For (I feel positively about the vaccines),Most months,A few times a year,42,Male,NA,Vocational Training / Apprenticeship,control,100,3,For,For
52,1659955898488,08/08/2022 10:51:38,1659955899242,1,08/08/2022 11:51:39,94118,2,task-fbpo,NA,23522323,6893679,NA,complete,NA,62f0e9b0adea7f0f8ca10518,computer,Desktop or Laptop,Windows 10,Chrome 104.0.0.0,1920x1080,1920x975,NA,ITT Ratings,2,against,10,NA,NA,NA,NA,NA,NA,NA,NA,ACCEPT,NA,batch10pro,batch10pro,21,50,1,Screen 1,continueButton,response_rating_scale_likert_active,2076.399999976158,NA,NA,Neither Agree nor Disagree,1,0,1,0,NA,NA,NA,NA,1,statements,I want to be safe from this virus,1,17/06/2021 12:59,17/06/2021 13:08,IP Address,For (I feel positively about the vaccines),Most weeks,Most days,31,Male,NA,"Undergraduate degree (BSc, BA)",control,93,3,For,For
53,1659955902538,08/08/2022 10:51:42,1659955903249,1,08/08/2022 11:51:43,94118,2,task-fbpo,NA,23522323,6893679,NA,complete,NA,62f0e9b0adea7f0f8ca10518,computer,Desktop or Laptop,Windows 10,Chrome 104.0.0.0,1920x1080,1920x975,NA,ITT Ratings,2,against,10,NA,NA,NA,NA,NA,NA,NA,NA,ACCEPT,NA,batch10pro,batch10pro,55,51,1,Screen 1,continueButton,response_rating_scale_likert_active,3998.5,NA,NA,Somewhat Disagree,1,0,1,0,NA,NA,NA,NA,1,statements,It's responsible- it's about protecting others,1,17/06/2021 12:24,17/06/2021 13:09,IP Address,For (I feel positively about the vaccines),Rarely,Most weeks,30,Male,NA,"Postgraduate degree (MSc, MA, MPhil)",control,99,1,For,For
54,1659955905317,08/08/2022 10:51:45,1659955906021,1,08/08/2022 11:51:46,94118,2,task-fbpo,NA,23522323,6893679,NA,complete,NA,62f0e9b0adea7f0f8ca10518,computer,Desktop or Laptop,Windows 10,Chrome 104.0.0.0,1920x1080,1920x975,NA,ITT Ratings,2,against,10,NA,NA,NA,NA,NA,NA,NA,NA,ACCEPT,NA,batch10pro,batch10pro,23,52,1,Screen 1,continueButton,response_rating_scale_likert_active,2764,NA,NA,Strongly Agree,1,0,1,0,NA,NA,NA,NA,1,statements,I should choose what I want to put in my body,1,17/06/2021 13:01,17/06/2021 13:09,IP Address,For (I feel positively about the vaccines),Most weeks,Most weeks,38,Male,NA,A levels,choice,94,2,For,Against
55,1659955908111,08/08/2022 10:51:48,1659955908872,1,08/08/2022 11:51:48,94118,2,task-fbpo,NA,23522323,6893679,NA,complete,NA,62f0e9b0adea7f0f8ca10518,computer,Desktop or Laptop,Windows 10,Chrome 104.0.0.0,1920x1080,1920x975,NA,ITT Ratings,2,against,10,NA,NA,NA,NA,NA,NA,NA,NA,ACCEPT,NA,batch10pro,batch10pro,39,53,1,Screen 1,continueButton,response_rating_scale_likert_active,2841.699999988079,NA,NA,Neither Agree nor Disagree,1,0,1,0,NA,NA,NA,NA,1,statements,because they trust science and not conspiracies,1,17/06/2021 12:58,17/06/2021 13:09,IP Address,For (I feel positively about the vaccines),A few times a year,Rarely,28,Female,NA,"Postgraduate degree (MSc, MA, MPhil)",control,96,3,For,For
56,1659955909459,08/08/2022 10:51:49,1659955910209,1,08/08/2022 11:51:50,94118,2,task-fbpo,NA,23522323,6893679,NA,complete,NA,62f0e9b0adea7f0f8ca10518,computer,Desktop or Laptop,Windows 10,Chrome 104.0.0.0,1920x1080,1920x975,NA,ITT Ratings,2,against,10,NA,NA,NA,NA,NA,NA,NA,NA,ACCEPT,NA,batch10pro,batch10pro,60,54,1,Screen 1,continueButton,response_rating_scale_likert_active,1328.0999999642372,NA,NA,Neither Agree nor Disagree,1,0,1,0,NA,NA,NA,NA,1,statements,Help save more lives.,1,17/06/2021 12:48,17/06/2021 13:10,IP Address,For (I feel positively about the vaccines),Most months,A few times a year,42,Male,NA,Vocational Training / Apprenticeship,control,100,3,For,Against
57,1659955911290,08/08/2022 10:51:51,1659955912050,1,08/08/2022 11:51:52,94118,2,task-fbpo,NA,23522323,6893679,NA,complete,NA,62f0e9b0adea7f0f8ca10518,computer,Desktop or Laptop,Windows 10,Chrome 104.0.0.0,1920x1080,1920x975,NA,ITT Ratings,2,against,10,NA,NA,NA,NA,NA,NA,NA,NA,ACCEPT,NA,batch10pro,batch10pro,38,55,1,Screen 1,continueButton,response_rating_scale_likert_active,1832.300000011921,NA,NA,Neither Agree nor Disagree,1,0,1,0,NA,NA,NA,NA,1,statements,to keep those they loved who may be more at risk safe,1,17/06/2021 12:58,17/06/2021 13:09,IP Address,For (I feel positively about the vaccines),A few times a year,Rarely,28,Female,NA,"Postgraduate degree (MSc, MA, MPhil)",control,96,2,For,For
58,1659955915919,08/08/2022 10:51:55,1659955916675,1,08/08/2022 11:51:56,94118,2,task-fbpo,NA,23522323,6893679,NA,complete,NA,62f0e9b0adea7f0f8ca10518,computer,Desktop or Laptop,Windows 10,Chrome 104.0.0.0,1920x1080,1920x975,NA,ITT Ratings,2,against,10,NA,NA,NA,NA,NA,NA,NA,NA,ACCEPT,NA,batch10pro,batch10pro,52,56,1,Screen 1,continueButton,response_rating_scale_likert_active,4617.199999988079,NA,NA,Somewhat Agree,1,0,1,0,NA,NA,NA,NA,1,statements,"Our bodies will fight it off naturally, we weaken ourselves by having the vaccine just because the government tells us to.",1,17/06/2021 12:24,17/06/2021 13:09,IP Address,For (I feel positively about the vaccines),Rarely,Most weeks,30,Male,NA,"Postgraduate degree (MSc, MA, MPhil)",control,99,1,For,Against
59,1659955920133,08/08/2022 10:52:00,1659955920888,1,08/08/2022 11:52:00,94118,2,task-fbpo,NA,23522323,6893679,NA,complete,NA,62f0e9b0adea7f0f8ca10518,computer,Desktop or Laptop,Windows 10,Chrome 104.0.0.0,1920x1080,1920x975,NA,ITT Ratings,2,against,10,NA,NA,NA,NA,NA,NA,NA,NA,ACCEPT,NA,batch10pro,batch10pro,31,57,1,Screen 1,continueButton,response_rating_scale_likert_active,4203.899999976158,NA,NA,Neither Agree nor Disagree,1,0,1,0,NA,NA,NA,NA,1,statements,The side effects of COVID are worse,1,17/06/2021 13:02,17/06/2021 13:09,IP Address,For (I feel positively about the vaccines),Rarely,Most months,21,Male,NA,A levels,control,95,1,For,For
60,1659955922506,08/08/2022 10:52:02,1659955923266,1,08/08/2022 11:52:03,94118,2,task-fbpo,NA,23522323,6893679,NA,complete,NA,62f0e9b0adea7f0f8ca10518,computer,Desktop or Laptop,Windows 10,Chrome 104.0.0.0,1920x1080,1920x975,NA,ITT Ratings,2,against,10,NA,NA,NA,NA,NA,NA,NA,NA,ACCEPT,NA,batch10pro,batch10pro,29,58,1,Screen 1,continueButton,response_rating_scale_likert_active,2369.699999988079,NA,NA,Neither Agree nor Disagree,1,0,1,0,NA,NA,NA,NA,1,statements,The vaccines have bad side effects,1,17/06/2021 13:02,17/06/2021 13:09,IP Address,For (I feel positively about the vaccines),Rarely,Most months,21,Male,NA,A levels,control,95,2,For,Against
61,1659955923818,08/08/2022 10:52:03,1659955924530,1,08/08/2022 11:52:04,94118,2,task-fbpo,NA,23522323,6893679,NA,complete,NA,62f0e9b0adea7f0f8ca10518,computer,Desktop or Laptop,Windows 10,Chrome 104.0.0.0,1920x1080,1920x975,NA,ITT Ratings,2,against,10,NA,NA,NA,NA,NA,NA,NA,NA,ACCEPT,NA,batch10pro,batch10pro,17,59,1,Screen 1,continueButton,response_rating_scale_likert_active,1255.199999988079,NA,NA,Neither Agree nor Disagree,1,0,1,0,NA,NA,NA,NA,1,statements,I have medical concerns,1,17/06/2021 12:59,17/06/2021 13:08,IP Address,For (I feel positively about the vaccines),Most weeks,Most days,31,Male,NA,"Undergraduate degree (BSc, BA)",control,93,2,For,Against
62,1659955926469,08/08/2022 10:52:06,1659955927230,1,08/08/2022 11:52:07,94118,2,task-fbpo,NA,23522323,6893679,NA,complete,NA,62f0e9b0adea7f0f8ca10518,computer,Desktop or Laptop,Windows 10,Chrome 104.0.0.0,1920x1080,1920x975,NA,ITT Ratings,2,against,10,NA,NA,NA,NA,NA,NA,NA,NA,ACCEPT,NA,batch10pro,batch10pro,47,60,1,Screen 1,continueButton,response_rating_scale_likert_active,2692.399999976158,NA,NA,Agree,1,0,1,0,NA,NA,NA,NA,1,statements,There might be serious side affects.,1,17/06/2021 12:47,17/06/2021 13:09,IP Address,For (I feel positively about the vaccines),Rarely,A few times a year,54,Female,NA,GCSEs,choice,98,2,For,Against
63,1659955931306,08/08/2022 10:52:11,1659955932061,1,08/08/2022 11:52:12,94118,2,task-fbpo,NA,23522323,6893679,NA,complete,NA,62f0e9b0adea7f0f8ca10518,computer,Desktop or Laptop,Windows 10,Chrome 104.0.0.0,1920x1080,1920x975,NA,ITT Ratings,2,against,10,NA,NA,NA,NA,NA,NA,NA,NA,ACCEPT,NA,batch10pro,batch10pro,6,61,1,Screen 1,continueButton,response_rating_scale_likert_active,4823.300000011921,NA,NA,Somewhat Agree,1,0,1,0,NA,NA,NA,NA,1,statements,"COVID is pretty much just a bad flu, I think I'd be fine if I caught it so why get vaccinated?",1,17/06/2021 12:59,17/06/2021 13:08,IP Address,For (I feel positively about the vaccines),A few times a year,Most weeks,24,Male,NA,"Postgraduate degree (MSc, MA, MPhil)",choice,91,3,For,Against
64,1659955934822,08/08/2022 10:52:14,1659955935573,1,08/08/2022 11:52:15,94118,2,task-fbpo,NA,23522323,6893679,NA,complete,NA,62f0e9b0adea7f0f8ca10518,computer,Desktop or Laptop,Windows 10,Chrome 104.0.0.0,1920x1080,1920x975,NA,ITT Ratings,2,against,10,NA,NA,NA,NA,NA,NA,NA,NA,ACCEPT,NA,batch10pro,batch10pro,50,62,1,Screen 1,continueButton,response_rating_scale_likert_active,3505.100000023842,NA,NA,Neither Agree nor Disagree,1,0,1,0,NA,NA,NA,NA,1,statements,"By having the vaccination I am not only protecting myself but also people I come into contact with. Hopefully, the vaccine will stop the spread of the virus.",1,17/06/2021 12:47,17/06/2021 13:09,IP Address,For (I feel positively about the vaccines),Rarely,A few times a year,54,Female,NA,GCSEs,choice,98,2,For,For
65,1659955934873,08/08/2022 10:52:14,1659955935577,1,08/08/2022 11:52:15,94118,2,task-fbpo,NA,23522323,6893679,NA,complete,NA,62f0e9b0adea7f0f8ca10518,computer,Desktop or Laptop,Windows 10,Chrome 104.0.0.0,1920x1080,1920x975,NA,ITT Ratings,2,against,10,NA,NA,NA,NA,NA,NA,NA,NA,ACCEPT,NA,batch10pro,NA,NA,END TASK,NA,NA,NA,NA,241665,NA,NA,NA,NA,0,1,0,NA,NA,NA,NA,NA,NA,NA,NA,NA,NA,NA,NA,NA,NA,NA,NA,NA,NA,NA,NA,NA,NA,NA
1,1659956086165,08/08/2022 10:54:46,1659956095004,1,08/08/2022 11:54:55,94118,2,task-fbpo,NA,23522442,6893706,NA,complete,NA,62f0eafd4cf64e75bf127e92,computer,Desktop or Laptop,Mac OS 10.13.6,Chrome 103.0.0.0,1440x900,1230x773,NA,ITT Ratings,2,against,10,NA,NA,NA,NA,NA,NA,NA,NA,ACCEPT,NA,batch10pro,NA,NA,BEGIN TASK,NA,NA,NA,NA,NA,NA,NA,NA,NA,0,1,0,NA,NA,NA,NA,NA,NA,NA,NA,NA,NA,NA,NA,NA,NA,NA,NA,NA,NA,NA,NA,NA,NA,NA
2,1659956100063,08/08/2022 10:55:00,1659956108936,1,08/08/2022 11:55:08,94118,2,task-fbpo,NA,23522442,6893706,NA,complete,NA,62f0eafd4cf64e75bf127e92,computer,Desktop or Laptop,Mac OS 10.13.6,Chrome 103.0.0.0,1440x900,1230x773,NA,ITT Ratings,2,against,10,NA,NA,NA,NA,NA,NA,NA,NA,ACCEPT,NA,batch10pro,batch10pro,1,1,1,Screen 1,advancementZone,continue_button,13886,NA,NA,NA,NA,0,1,0,NA,NA,NA,NA,NA,instructions,NA,NA,NA,NA,NA,NA,NA,NA,NA,NA,NA,NA,NA,NA,NA,NA,NA
3,1659956108907,08/08/2022 10:55:08,1659956117786,1,08/08/2022 11:55:17,94118,2,task-fbpo,NA,23522442,6893706,NA,complete,NA,62f0eafd4cf64e75bf127e92,computer,Desktop or Laptop,Mac OS 10.13.6,Chrome 103.0.0.0,1440x900,1230x773,NA,ITT Ratings,2,against,10,NA,NA,NA,NA,NA,NA,NA,NA,ACCEPT,NA,batch10pro,batch10pro,50,1,1,Screen 1,continueButton,response_rating_scale_likert_active,8832.399999976158,NA,NA,Strongly Disagree,1,0,1,0,NA,NA,NA,NA,1,statements,"By having the vaccination I am not only protecting myself but also people I come into contact with. Hopefully, the vaccine will stop the spread of the virus.",1,17/06/2021 12:47,17/06/2021 13:09,IP Address,For (I feel positively about the vaccines),Rarely,A few times a year,54,Female,NA,GCSEs,choice,98,2,For,For
4,1659956112940,08/08/2022 10:55:12,1659956121797,1,08/08/2022 11:55:21,94118,2,task-fbpo,NA,23522442,6893706,NA,complete,NA,62f0eafd4cf64e75bf127e92,computer,Desktop or Laptop,Mac OS 10.13.6,Chrome 103.0.0.0,1440x900,1230x773,NA,ITT Ratings,2,against,10,NA,NA,NA,NA,NA,NA,NA,NA,ACCEPT,NA,batch10pro,batch10pro,33,2,1,Screen 1,continueButton,response_rating_scale_likert_active,3994.300000011921,NA,NA,Neither Agree nor Disagree,1,0,1,0,NA,NA,NA,NA,1,statements,I need to due to work,1,17/06/2021 13:02,17/06/2021 13:09,IP Address,For (I feel positively about the vaccines),Rarely,Most months,21,Male,NA,A levels,control,95,3,For,For
5,1659956115493,08/08/2022 10:55:15,1659956124351,1,08/08/2022 11:55:24,94118,2,task-fbpo,NA,23522442,6893706,NA,complete,NA,62f0eafd4cf64e75bf127e92,computer,Desktop or Laptop,Mac OS 10.13.6,Chrome 103.0.0.0,1440x900,1230x773,NA,ITT Ratings,2,against,10,NA,NA,NA,NA,NA,NA,NA,NA,ACCEPT,NA,batch10pro,batch10pro,29,3,1,Screen 1,continueButton,response_rating_scale_likert_active,2534.199999988079,NA,NA,Disagree,1,0,1,0,NA,NA,NA,NA,1,statements,The vaccines have bad side effects,1,17/06/2021 13:02,17/06/2021 13:09,IP Address,For (I feel positively about the vaccines),Rarely,Most months,21,Male,NA,A levels,control,95,2,For,Against
6,1659956125201,08/08/2022 10:55:25,1659956134060,1,08/08/2022 11:55:34,94118,2,task-fbpo,NA,23522442,6893706,NA,complete,NA,62f0eafd4cf64e75bf127e92,computer,Desktop or Laptop,Mac OS 10.13.6,Chrome 103.0.0.0,1440x900,1230x773,NA,ITT Ratings,2,against,10,NA,NA,NA,NA,NA,NA,NA,NA,ACCEPT,NA,batch10pro,batch10pro,16,4,1,Screen 1,continueButton,response_rating_scale_likert_active,9689.399999976158,NA,NA,Agree,1,0,1,0,NA,NA,NA,NA,1,statements,They do not trust the science,1,17/06/2021 12:59,17/06/2021 13:08,IP Address,For (I feel positively about the vaccines),Most weeks,Most days,31,Male,NA,"Undergraduate degree (BSc, BA)",control,93,1,For,Against
7,1659956128202,08/08/2022 10:55:28,1659956137079,1,08/08/2022 11:55:37,94118,2,task-fbpo,NA,23522442,6893706,NA,complete,NA,62f0eafd4cf64e75bf127e92,computer,Desktop or Laptop,Mac OS 10.13.6,Chrome 103.0.0.0,1440x900,1230x773,NA,ITT Ratings,2,against,10,NA,NA,NA,NA,NA,NA,NA,NA,ACCEPT,NA,batch10pro,batch10pro,62,5,1,Screen 1,continueButton,response_rating_scale_likert_active,2994.199999988079,NA,NA,Agree,1,0,1,0,NA,NA,NA,NA,1,statements,The government are scaring people with pumed stats,1,17/06/2021 12:48,17/06/2021 13:10,IP Address,For (I feel positively about the vaccines),Most months,A few times a year,42,Male,NA,Vocational Training / Apprenticeship,control,100,2,For,For
8,1659956134839,08/08/2022 10:55:34,1659956143704,1,08/08/2022 11:55:43,94118,2,task-fbpo,NA,23522442,6893706,NA,complete,NA,62f0eafd4cf64e75bf127e92,computer,Desktop or Laptop,Mac OS 10.13.6,Chrome 103.0.0.0,1440x900,1230x773,NA,ITT Ratings,2,against,10,NA,NA,NA,NA,NA,NA,NA,NA,ACCEPT,NA,batch10pro,batch10pro,58,6,1,Screen 1,continueButton,response_rating_scale_likert_active,6608.100000023842,NA,NA,Disagree,1,0,1,0,NA,NA,NA,NA,1,statements,The vaccine is safe check out the info before making a decision,1,17/06/2021 12:48,17/06/2021 13:10,IP Address,For (I feel positively about the vaccines),Most months,A few times a year,42,Male,NA,Vocational Training / Apprenticeship,control,100,1,For,Against
9,1659956138174,08/08/2022 10:55:38,1659956147020,1,08/08/2022 11:55:47,94118,2,task-fbpo,NA,23522442,6893706,NA,complete,NA,62f0eafd4cf64e75bf127e92,computer,Desktop or Laptop,Mac OS 10.13.6,Chrome 103.0.0.0,1440x900,1230x773,NA,ITT Ratings,2,against,10,NA,NA,NA,NA,NA,NA,NA,NA,ACCEPT,NA,batch10pro,batch10pro,30,7,1,Screen 1,continueButton,response_rating_scale_likert_active,3285.5,NA,NA,Strongly Disagree,1,0,1,0,NA,NA,NA,NA,1,statements,The vaccines contain a microchip,1,17/06/2021 13:02,17/06/2021 13:09,IP Address,For (I feel positively about the vaccines),Rarely,Most months,21,Male,NA,A levels,control,95,3,For,Against
10,1659956141460,08/08/2022 10:55:41,1659956150335,1,08/08/2022 11:55:50,94118,2,task-fbpo,NA,23522442,6893706,NA,complete,NA,62f0eafd4cf64e75bf127e92,computer,Desktop or Laptop,Mac OS 10.13.6,Chrome 103.0.0.0,1440x900,1230x773,NA,ITT Ratings,2,against,10,NA,NA,NA,NA,NA,NA,NA,NA,ACCEPT,NA,batch10pro,batch10pro,23,8,1,Screen 1,continueButton,response_rating_scale_likert_active,3298.699999988079,NA,NA,Strongly Agree,1,0,1,0,NA,NA,NA,NA,1,statements,I should choose what I want to put in my body,1,17/06/2021 13:01,17/06/2021 13:09,IP Address,For (I feel positively about the vaccines),Most weeks,Most weeks,38,Male,NA,A levels,choice,94,2,For,Against
11,1659956146034,08/08/2022 10:55:46,1659956154911,1,08/08/2022 11:55:54,94118,2,task-fbpo,NA,23522442,6893706,NA,complete,NA,62f0eafd4cf64e75bf127e92,computer,Desktop or Laptop,Mac OS 10.13.6,Chrome 103.0.0.0,1440x900,1230x773,NA,ITT Ratings,2,against,10,NA,NA,NA,NA,NA,NA,NA,NA,ACCEPT,NA,batch10pro,batch10pro,44,9,1,Screen 1,continueButton,response_rating_scale_likert_active,4555.899999976158,NA,NA,Neither Agree nor Disagree,1,0,1,0,NA,NA,NA,NA,1,statements,I want to ensure I don't catch it myself,1,17/06/2021 12:46,17/06/2021 13:09,IP Address,For (I feel positively about the vaccines),Most weeks,Most months,33,Male,NA,A levels,control,97,2,For,For
12,1659956148278,08/08/2022 10:55:48,1659956157143,1,08/08/2022 11:55:57,94118,2,task-fbpo,NA,23522442,6893706,NA,complete,NA,62f0eafd4cf64e75bf127e92,computer,Desktop or Laptop,Mac OS 10.13.6,Chrome 103.0.0.0,1440x900,1230x773,NA,ITT Ratings,2,against,10,NA,NA,NA,NA,NA,NA,NA,NA,ACCEPT,NA,batch10pro,batch10pro,24,10,1,Screen 1,continueButton,response_rating_scale_likert_active,2214.899999976158,NA,NA,Strongly Agree,1,0,1,0,NA,NA,NA,NA,1,statements,I have an immune system already,1,17/06/2021 13:01,17/06/2021 13:09,IP Address,For (I feel positively about the vaccines),Most weeks,Most weeks,38,Male,NA,A levels,choice,94,3,For,Against
13,1659956150767,08/08/2022 10:55:50,1659956159637,1,08/08/2022 11:55:59,94118,2,task-fbpo,NA,23522442,6893706,NA,complete,NA,62f0eafd4cf64e75bf127e92,computer,Desktop or Laptop,Mac OS 10.13.6,Chrome 103.0.0.0,1440x900,1230x773,NA,ITT Ratings,2,against,10,NA,NA,NA,NA,NA,NA,NA,NA,ACCEPT,NA,batch10pro,batch10pro,13,11,1,Screen 1,continueButton,response_rating_scale_likert_active,2476,NA,NA,Neither Agree nor Disagree,1,0,1,0,NA,NA,NA,NA,1,statements,I want life to continue like normal,1,17/06/2021 12:59,17/06/2021 13:08,IP Address,For (I feel positively about the vaccines),Rarely,A few times a year,23,Female,NA,A levels,choice,92,1,For,For
14,1659956152299,08/08/2022 10:55:52,1659956161166,1,08/08/2022 11:56:01,94118,2,task-fbpo,NA,23522442,6893706,NA,complete,NA,62f0eafd4cf64e75bf127e92,computer,Desktop or Laptop,Mac OS 10.13.6,Chrome 103.0.0.0,1440x900,1230x773,NA,ITT Ratings,2,against,10,NA,NA,NA,NA,NA,NA,NA,NA,ACCEPT,NA,batch10pro,batch10pro,25,12,1,Screen 1,continueButton,response_rating_scale_likert_active,1511.300000011921,NA,NA,Neither Agree nor Disagree,1,0,1,0,NA,NA,NA,NA,1,statements,I need to to go away on holiday,1,17/06/2021 13:01,17/06/2021 13:09,IP Address,For (I feel positively about the vaccines),Most weeks,Most weeks,38,Male,NA,A levels,choice,94,1,For,For
15,1659956154986,08/08/2022 10:55:54,1659956163848,1,08/08/2022 11:56:03,94118,2,task-fbpo,NA,23522442,6893706,NA,complete,NA,62f0eafd4cf64e75bf127e92,computer,Desktop or Laptop,Mac OS 10.13.6,Chrome 103.0.0.0,1440x900,1230x773,NA,ITT Ratings,2,against,10,NA,NA,NA,NA,NA,NA,NA,NA,ACCEPT,NA,batch10pro,batch10pro,47,13,1,Screen 1,continueButton,response_rating_scale_likert_active,2663.399999976158,NA,NA,Agree,1,0,1,0,NA,NA,NA,NA,1,statements,There might be serious side affects.,1,17/06/2021 12:47,17/06/2021 13:09,IP Address,For (I feel positively about the vaccines),Rarely,A few times a year,54,Female,NA,GCSEs,choice,98,2,For,Against
16,1659956158239,08/08/2022 10:55:58,1659956167109,1,08/08/2022 11:56:07,94118,2,task-fbpo,NA,23522442,6893706,NA,complete,NA,62f0eafd4cf64e75bf127e92,computer,Desktop or Laptop,Mac OS 10.13.6,Chrome 103.0.0.0,1440x900,1230x773,NA,ITT Ratings,2,against,10,NA,NA,NA,NA,NA,NA,NA,NA,ACCEPT,NA,batch10pro,batch10pro,60,14,1,Screen 1,continueButton,response_rating_scale_likert_active,3243.399999976158,NA,NA,Somewhat Disagree,1,0,1,0,NA,NA,NA,NA,1,statements,Help save more lives.,1,17/06/2021 12:48,17/06/2021 13:10,IP Address,For (I feel positively about the vaccines),Most months,A few times a year,42,Male,NA,Vocational Training / Apprenticeship,control,100,3,For,Against
17,1659956162668,08/08/2022 10:56:02,1659956171545,1,08/08/2022 11:56:11,94118,2,task-fbpo,NA,23522442,6893706,NA,complete,NA,62f0eafd4cf64e75bf127e92,computer,Desktop or Laptop,Mac OS 10.13.6,Chrome 103.0.0.0,1440x900,1230x773,NA,ITT Ratings,2,against,10,NA,NA,NA,NA,NA,NA,NA,NA,ACCEPT,NA,batch10pro,batch10pro,48,15,1,Screen 1,continueButton,response_rating_scale_likert_active,4419,NA,NA,Somewhat Disagree,1,0,1,0,NA,NA,NA,NA,1,statements,"Not everyone will have it, so what's the point.",1,17/06/2021 12:47,17/06/2021 13:09,IP Address,For (I feel positively about the vaccines),Rarely,A few times a year,54,Female,NA,GCSEs,choice,98,3,For,Against
18,1659956181370,08/08/2022 10:56:21,1659956190223,1,08/08/2022 11:56:30,94118,2,task-fbpo,NA,23522442,6893706,NA,complete,NA,62f0eafd4cf64e75bf127e92,computer,Desktop or Laptop,Mac OS 10.13.6,Chrome 103.0.0.0,1440x900,1230x773,NA,ITT Ratings,2,against,10,NA,NA,NA,NA,NA,NA,NA,NA,ACCEPT,NA,batch10pro,batch10pro,3,16,1,Screen 1,continueButton,response_rating_scale_likert_active,18661.30000001192,NA,NA,Somewhat Disagree,1,0,1,0,NA,NA,NA,NA,1,statements,We would like to check you are reading each argument carefully. Please select 'Somewhat Disagree' for this answer,1,NA,NA,NA,NA,NA,NA,NA,NA,NA,NA,NA,NA,check2,NA,NA
19,1659956183214,08/08/2022 10:56:23,1659956192076,1,08/08/2022 11:56:32,94118,2,task-fbpo,NA,23522442,6893706,NA,complete,NA,62f0eafd4cf64e75bf127e92,computer,Desktop or Laptop,Mac OS 10.13.6,Chrome 103.0.0.0,1440x900,1230x773,NA,ITT Ratings,2,against,10,NA,NA,NA,NA,NA,NA,NA,NA,ACCEPT,NA,batch10pro,batch10pro,63,17,1,Screen 1,continueButton,response_rating_scale_likert_active,1834.899999976158,NA,NA,Neither Agree nor Disagree,1,0,1,0,NA,NA,NA,NA,1,statements,I don't like needles,1,17/06/2021 12:48,17/06/2021 13:10,IP Address,For (I feel positively about the vaccines),Most months,A few times a year,42,Male,NA,Vocational Training / Apprenticeship,control,100,3,For,For
20,1659956184307,08/08/2022 10:56:24,1659956193174,1,08/08/2022 11:56:33,94118,2,task-fbpo,NA,23522442,6893706,NA,complete,NA,62f0eafd4cf64e75bf127e92,computer,Desktop or Laptop,Mac OS 10.13.6,Chrome 103.0.0.0,1440x900,1230x773,NA,ITT Ratings,2,against,10,NA,NA,NA,NA,NA,NA,NA,NA,ACCEPT,NA,batch10pro,batch10pro,12,18,1,Screen 1,continueButton,response_rating_scale_likert_active,1080.199999988079,NA,NA,Neither Agree nor Disagree,1,0,1,0,NA,NA,NA,NA,1,statements,I'm too scared of needles,1,17/06/2021 12:59,17/06/2021 13:08,IP Address,For (I feel positively about the vaccines),Rarely,A few times a year,23,Female,NA,A levels,choice,92,3,For,Against
