Event.Index,UTC.Timestamp,UTC.Date,Local.Timestamp,Local.Timezone,Local.Date,Experiment.ID,Experiment.Version,Tree.Node.Key,Repeat.Key,Schedule.ID,Participant.Private.ID,Participant.Starting.Group,Participant.Status,Participant.Completion.Code,Participant.External.Session.ID,Participant.Device.Type,Participant.Device,Participant.OS,Participant.Browser,Participant.Monitor.Size,Participant.Viewport.Size,Checkpoint,Task.Name,Task.Version,branch.69an,randomiser.8vg2,quota.bqtt,quota.rycs,quota.wtfi,quota.usve,quota.zgic,quota.f3yz,quota.r9vy,quota.tfqq,quota.3dga,quota.dtj6,Spreadsheet,Spreadsheet.Name,Spreadsheet.Row,Trial.Number,Screen.Number,Screen.Name,Zone.Name,Zone.Type,Reaction.Time,Reaction.Onset,Response.Type,Response,Attempt,Correct,Incorrect,Dishonest,X.Coordinate,Y.Coordinate,Timed.Out,randomise_blocks,randomise_trials,display,Arguments,ShowProgressBar,StartDate,EndDate,Status,prolif_check,discuss_1,read_1,age,gender,gender_4_TEXT,edu,condition,ID,arg_ID,Position,Arg_Position
1,1659970606432,08/08/2022 14:56:46,1659970619260,1,08/08/2022 15:56:59,94118,3,task-b5vt,NA,23526132,6895292,NA,complete,NA,62f12417040434135475ee03,computer,Desktop or Laptop,Windows 10,Chrome 103.0.0.0,1366x768,1366x657,NA,ITT Ratings,2,against,1,NA,NA,NA,NA,NA,NA,NA,NA,NA,ACCEPT,batch1pro,NA,NA,BEGIN TASK,NA,NA,NA,NA,NA,NA,NA,NA,NA,0,1,0,NA,NA,NA,NA,NA,NA,NA,NA,NA,NA,NA,NA,NA,NA,NA,NA,NA,NA,NA,NA,NA,NA,NA
2,1659970612447,08/08/2022 14:56:52,1659970625315,1,08/08/2022 15:57:05,94118,3,task-b5vt,NA,23526132,6895292,NA,complete,NA,62f12417040434135475ee03,computer,Desktop or Laptop,Windows 10,Chrome 103.0.0.0,1366x768,1366x657,NA,ITT Ratings,2,against,1,NA,NA,NA,NA,NA,NA,NA,NA,NA,ACCEPT,batch1pro,batch1pro,1,1,1,Screen 1,advancementZone,continue_button,5891.199999999721,NA,NA,NA,NA,0,1,0,NA,NA,NA,NA,NA,instructions,NA,NA,NA,NA,NA,NA,NA,NA,NA,NA,NA,NA,NA,NA,NA,NA,NA
3,1659970618628,08/08/2022 14:56:58,1659970631515,1,08/08/2022 15:57:11,94118,3,task-b5vt,NA,23526132,6895292,NA,complete,NA,62f12417040434135475ee03,computer,Desktop or Laptop,Windows 10,Chrome 103.0.0.0,1366x768,1366x657,NA,ITT Ratings,2,against,1,NA,NA,NA,NA,NA,NA,NA,NA,NA,ACCEPT,batch1pro,batch1pro,25,1,1,Screen 1,continueButton,response_rating_scale_likert_active,6142.399999999907,NA,NA,Somewhat Agree,1,0,1,0,NA,NA,NA,NA,1,statements,It's been tried and tested and has been approved by many doctors around the world,1,17/06/2021 12:33,17/06/2021 12:41,IP Address,For (I feel positively about the vaccines),Most months,Most months,20,Female,NA,"Undergraduate degree (BSc, BA),Postgraduate degree (MSc, MA, MPhil)",control,4,1,For,For
4,1659970625148,08/08/2022 14:57:05,1659970638017,1,08/08/2022 15:57:18,94118,3,task-b5vt,NA,23526132,6895292,NA,complete,NA,62f12417040434135475ee03,computer,Desktop or Laptop,Windows 10,Chrome 103.0.0.0,1366x768,1366x657,NA,ITT Ratings,2,against,1,NA,NA,NA,NA,NA,NA,NA,NA,NA,ACCEPT,batch1pro,batch1pro,20,2,1,Screen 1,continueButton,response_rating_scale_likert_active,6445.399999999907,NA,NA,Neither Agree nor Disagree,1,0,1,0,NA,NA,NA,NA,1,statements,I want to help society,1,17/06/2021 12:29,17/06/2021 12:41,IP Address,For (I feel positively about the vaccines),Rarely,A few times a year,55,Female,NA,A levels,choice,3,2,For,For
5,1659970629655,08/08/2022 14:57:09,1659970642545,1,08/08/2022 15:57:22,94118,3,task-b5vt,NA,23526132,6895292,NA,complete,NA,62f12417040434135475ee03,computer,Desktop or Laptop,Windows 10,Chrome 103.0.0.0,1366x768,1366x657,NA,ITT Ratings,2,against,1,NA,NA,NA,NA,NA,NA,NA,NA,NA,ACCEPT,batch1pro,batch1pro,11,3,1,Screen 1,continueButton,response_rating_scale_likert_active,4486.100000000093,NA,NA,Somewhat Agree,1,0,1,0,NA,NA,NA,NA,1,statements,I believe that the vaccine is ineffective or rushed,1,17/06/2021 12:34,17/06/2021 12:40,IP Address,For (I feel positively about the vaccines),Rarely,Most weeks,26,Female,NA,"Undergraduate degree (BSc, BA)",choice,2,2,For,Against
6,1659970633089,08/08/2022 14:57:13,1659970645633,1,08/08/2022 15:57:25,94118,3,task-b5vt,NA,23526132,6895292,NA,complete,NA,62f12417040434135475ee03,computer,Desktop or Laptop,Windows 10,Chrome 103.0.0.0,1366x768,1366x657,NA,ITT Ratings,2,against,1,NA,NA,NA,NA,NA,NA,NA,NA,NA,ACCEPT,batch1pro,batch1pro,7,4,1,Screen 1,continueButton,response_rating_scale_likert_active,3047.9000000003725,NA,NA,Somewhat Agree,1,0,1,0,NA,NA,NA,NA,1,statements,It's the right thing to do to protect everyone else,1,17/06/2021 12:34,17/06/2021 12:39,IP Address,For (I feel positively about the vaccines),Rarely,A few times a year,26,Female,NA,"Undergraduate degree (BSc, BA)",control,1,1,For,For
7,1659970635031,08/08/2022 14:57:15,1659970647922,1,08/08/2022 15:57:27,94118,3,task-b5vt,NA,23526132,6895292,NA,complete,NA,62f12417040434135475ee03,computer,Desktop or Laptop,Windows 10,Chrome 103.0.0.0,1366x768,1366x657,NA,ITT Ratings,2,against,1,NA,NA,NA,NA,NA,NA,NA,NA,NA,ACCEPT,batch1pro,batch1pro,23,5,1,Screen 1,continueButton,response_rating_scale_likert_active,2243.600000000093,NA,NA,Somewhat Agree,1,0,1,0,NA,NA,NA,NA,1,statements,The government is trying to control us through this vaccine,1,17/06/2021 12:33,17/06/2021 12:41,IP Address,For (I feel positively about the vaccines),Most months,Most months,20,Female,NA,"Undergraduate degree (BSc, BA),Postgraduate degree (MSc, MA, MPhil)",control,4,2,For,Against
8,1659970641927,08/08/2022 14:57:21,1659970654769,1,08/08/2022 15:57:34,94118,3,task-b5vt,NA,23526132,6895292,NA,complete,NA,62f12417040434135475ee03,computer,Desktop or Laptop,Windows 10,Chrome 103.0.0.0,1366x768,1366x657,NA,ITT Ratings,2,against,1,NA,NA,NA,NA,NA,NA,NA,NA,NA,ACCEPT,batch1pro,batch1pro,10,6,1,Screen 1,continueButton,response_rating_scale_likert_active,6803,NA,NA,Strongly Disagree,1,0,1,0,NA,NA,NA,NA,1,statements,I am one of those idiots who thinks I will become magnetic or have trackers in me,1,17/06/2021 12:34,17/06/2021 12:40,IP Address,For (I feel positively about the vaccines),Rarely,Most weeks,26,Female,NA,"Undergraduate degree (BSc, BA)",choice,2,1,For,Against
9,1659970644415,08/08/2022 14:57:24,1659970657313,1,08/08/2022 15:57:37,94118,3,task-b5vt,NA,23526132,6895292,NA,complete,NA,62f12417040434135475ee03,computer,Desktop or Laptop,Windows 10,Chrome 103.0.0.0,1366x768,1366x657,NA,ITT Ratings,2,against,1,NA,NA,NA,NA,NA,NA,NA,NA,NA,ACCEPT,batch1pro,batch1pro,16,7,1,Screen 1,continueButton,response_rating_scale_likert_active,2500.2000000001863,NA,NA,Strongly Agree,1,0,1,0,NA,NA,NA,NA,1,statements,Hasn't been tested for long enough,1,17/06/2021 12:29,17/06/2021 12:41,IP Address,For (I feel positively about the vaccines),Rarely,A few times a year,55,Female,NA,A levels,choice,3,1,For,Against
10,1659970648116,08/08/2022 14:57:28,1659970661008,1,08/08/2022 15:57:41,94118,3,task-b5vt,NA,23526132,6895292,NA,complete,NA,62f12417040434135475ee03,computer,Desktop or Laptop,Windows 10,Chrome 103.0.0.0,1366x768,1366x657,NA,ITT Ratings,2,against,1,NA,NA,NA,NA,NA,NA,NA,NA,NA,ACCEPT,batch1pro,batch1pro,45,8,1,Screen 1,continueButton,response_rating_scale_likert_active,3651.599999999627,NA,NA,Strongly Disagree,1,0,1,0,NA,NA,NA,NA,1,statements,The risk of dying from covid reduces with a vaccine.,1,17/06/2021 12:35,17/06/2021 12:42,IP Address,For (I feel positively about the vaccines),Once or twice a year,A few times a year,20,Female,NA,"GCSEs,A levels",control,7,3,For,For
11,1659970657411,08/08/2022 14:57:37,1659970670296,1,08/08/2022 15:57:50,94118,3,task-b5vt,NA,23526132,6895292,NA,complete,NA,62f12417040434135475ee03,computer,Desktop or Laptop,Windows 10,Chrome 103.0.0.0,1366x768,1366x657,NA,ITT Ratings,2,against,1,NA,NA,NA,NA,NA,NA,NA,NA,NA,ACCEPT,batch1pro,batch1pro,51,9,1,Screen 1,continueButton,response_rating_scale_likert_active,9249.399999999909,NA,NA,Strongly Disagree,1,0,1,0,NA,NA,NA,NA,1,statements,To help end the negative social impact of the virus such as lockdowns and online education,1,17/06/2021 12:29,17/06/2021 12:42,IP Address,For (I feel positively about the vaccines),Most months,Most months,20,Male,NA,A levels,choice,8,3,For,For
12,1659970659433,08/08/2022 14:57:39,1659970672322,1,08/08/2022 15:57:52,94118,3,task-b5vt,NA,23526132,6895292,NA,complete,NA,62f12417040434135475ee03,computer,Desktop or Laptop,Windows 10,Chrome 103.0.0.0,1366x768,1366x657,NA,ITT Ratings,2,against,1,NA,NA,NA,NA,NA,NA,NA,NA,NA,ACCEPT,batch1pro,batch1pro,40,10,1,Screen 1,continueButton,response_rating_scale_likert_active,1987.6999999997208,NA,NA,Strongly Agree,1,0,1,0,NA,NA,NA,NA,1,statements,They believe we have not had enough time to develop an effective vaccine.,1,17/06/2021 12:35,17/06/2021 12:42,IP Address,For (I feel positively about the vaccines),Once or twice a year,A few times a year,20,Female,NA,"GCSEs,A levels",control,7,1,For,Against
13,1659970660807,08/08/2022 14:57:40,1659970673689,1,08/08/2022 15:57:53,94118,3,task-b5vt,NA,23526132,6895292,NA,complete,NA,62f12417040434135475ee03,computer,Desktop or Laptop,Windows 10,Chrome 103.0.0.0,1366x768,1366x657,NA,ITT Ratings,2,against,1,NA,NA,NA,NA,NA,NA,NA,NA,NA,ACCEPT,batch1pro,batch1pro,37,11,1,Screen 1,continueButton,response_rating_scale_likert_active,1325.3999999999069,NA,NA,Strongly Agree,1,0,1,0,NA,NA,NA,NA,1,statements,I am scared and if this vaccine will help then I'll do it,1,17/06/2021 12:16,17/06/2021 12:42,IP Address,For (I feel positively about the vaccines),Rarely,Most days,34,Male,NA,GCSEs,control,6,1,For,For
14,1659970662363,08/08/2022 14:57:42,1659970675256,1,08/08/2022 15:57:55,94118,3,task-b5vt,NA,23526132,6895292,NA,complete,NA,62f12417040434135475ee03,computer,Desktop or Laptop,Windows 10,Chrome 103.0.0.0,1366x768,1366x657,NA,ITT Ratings,2,against,1,NA,NA,NA,NA,NA,NA,NA,NA,NA,ACCEPT,batch1pro,batch1pro,53,12,1,Screen 1,continueButton,response_rating_scale_likert_active,1520.8999999999069,NA,NA,Strongly Agree,1,0,1,0,NA,NA,NA,NA,1,statements,The vaccines are not safe enough yet,1,17/06/2021 12:36,17/06/2021 12:43,IP Address,For (I feel positively about the vaccines),Rarely,Most days,38,Male,NA,"GCSEs,Vocational Training / Apprenticeship",choice,9,2,For,Against
15,1659970665219,08/08/2022 14:57:45,1659970678080,1,08/08/2022 15:57:58,94118,3,task-b5vt,NA,23526132,6895292,NA,complete,NA,62f12417040434135475ee03,computer,Desktop or Laptop,Windows 10,Chrome 103.0.0.0,1366x768,1366x657,NA,ITT Ratings,2,against,1,NA,NA,NA,NA,NA,NA,NA,NA,NA,ACCEPT,batch1pro,batch1pro,44,13,1,Screen 1,continueButton,response_rating_scale_likert_active,2787.9000000003725,NA,NA,Neither Agree nor Disagree,1,0,1,0,NA,NA,NA,NA,1,statements,It will help to protect the most vulnerable groups in our society.,1,17/06/2021 12:35,17/06/2021 12:42,IP Address,For (I feel positively about the vaccines),Once or twice a year,A few times a year,20,Female,NA,"GCSEs,A levels",control,7,2,For,For
16,1659970668162,08/08/2022 14:57:48,1659970681016,1,08/08/2022 15:58:01,94118,3,task-b5vt,NA,23526132,6895292,NA,complete,NA,62f12417040434135475ee03,computer,Desktop or Laptop,Windows 10,Chrome 103.0.0.0,1366x768,1366x657,NA,ITT Ratings,2,against,1,NA,NA,NA,NA,NA,NA,NA,NA,NA,ACCEPT,batch1pro,batch1pro,61,14,1,Screen 1,continueButton,response_rating_scale_likert_active,2885.1999999997206,NA,NA,Strongly Disagree,1,0,1,0,NA,NA,NA,NA,1,statements,Reduced risk of getting COVID.,1,17/06/2021 13:01,17/06/2021 13:10,IP Address,For (I feel positively about the vaccines),Most months,Most weeks,35,Non-binary,NA,"Postgraduate degree (MSc, MA, MPhil)",control,10,1,For,For
17,1659970671281,08/08/2022 14:57:51,1659970684169,1,08/08/2022 15:58:04,94118,3,task-b5vt,NA,23526132,6895292,NA,complete,NA,62f12417040434135475ee03,computer,Desktop or Laptop,Windows 10,Chrome 103.0.0.0,1366x768,1366x657,NA,ITT Ratings,2,against,1,NA,NA,NA,NA,NA,NA,NA,NA,NA,ACCEPT,batch1pro,batch1pro,46,15,1,Screen 1,continueButton,response_rating_scale_likert_active,3114,NA,NA,Somewhat Disagree,1,0,1,0,NA,NA,NA,NA,1,statements,The government is trying to microchip me,1,17/06/2021 12:29,17/06/2021 12:42,IP Address,For (I feel positively about the vaccines),Most months,Most months,20,Male,NA,A levels,choice,8,1,For,Against
18,1659970678325,08/08/2022 14:57:58,1659970691208,1,08/08/2022 15:58:11,94118,3,task-b5vt,NA,23526132,6895292,NA,complete,NA,62f12417040434135475ee03,computer,Desktop or Laptop,Windows 10,Chrome 103.0.0.0,1366x768,1366x657,NA,ITT Ratings,2,against,1,NA,NA,NA,NA,NA,NA,NA,NA,NA,ACCEPT,batch1pro,batch1pro,19,16,1,Screen 1,continueButton,response_rating_scale_likert_active,6910.399999999907,NA,NA,Agree,1,0,1,0,NA,NA,NA,NA,1,statements,I want to have it for my own and my family’s protection,1,17/06/2021 12:29,17/06/2021 12:41,IP Address,For (I feel positively about the vaccines),Rarely,A few times a year,55,Female,NA,A levels,choice,3,1,For,For
19,1659970680614,08/08/2022 14:58:00,1659970693504,1,08/08/2022 15:58:13,94118,3,task-b5vt,NA,23526132,6895292,NA,complete,NA,62f12417040434135475ee03,computer,Desktop or Laptop,Windows 10,Chrome 103.0.0.0,1366x768,1366x657,NA,ITT Ratings,2,against,1,NA,NA,NA,NA,NA,NA,NA,NA,NA,ACCEPT,batch1pro,batch1pro,27,17,1,Screen 1,continueButton,response_rating_scale_likert_active,2258.1999999997206,NA,NA,Agree,1,0,1,0,NA,NA,NA,NA,1,statements,Doctors are trying to help,1,17/06/2021 12:33,17/06/2021 12:41,IP Address,For (I feel positively about the vaccines),Most months,Most months,20,Female,NA,"Undergraduate degree (BSc, BA),Postgraduate degree (MSc, MA, MPhil)",control,4,3,For,For
20,1659970683324,08/08/2022 14:58:03,1659970696200,1,08/08/2022 15:58:16,94118,3,task-b5vt,NA,23526132,6895292,NA,complete,NA,62f12417040434135475ee03,computer,Desktop or Laptop,Windows 10,Chrome 103.0.0.0,1366x768,1366x657,NA,ITT Ratings,2,against,1,NA,NA,NA,NA,NA,NA,NA,NA,NA,ACCEPT,batch1pro,batch1pro,58,18,1,Screen 1,continueButton,response_rating_scale_likert_active,2660.5999999996275,NA,NA,Strongly Agree,1,0,1,0,NA,NA,NA,NA,1,statements,"Concerns about dangerous side effects, such as blood clots and neurological damage.",1,17/06/2021 13:01,17/06/2021 13:10,IP Address,For (I feel positively about the vaccines),Most months,Most weeks,35,Non-binary,NA,"Postgraduate degree (MSc, MA, MPhil)",control,10,1,For,Against
21,1659970687262,08/08/2022 14:58:07,1659970700120,1,08/08/2022 15:58:20,94118,3,task-b5vt,NA,23526132,6895292,NA,complete,NA,62f12417040434135475ee03,computer,Desktop or Laptop,Windows 10,Chrome 103.0.0.0,1366x768,1366x657,NA,ITT Ratings,2,against,1,NA,NA,NA,NA,NA,NA,NA,NA,NA,ACCEPT,batch1pro,batch1pro,62,19,1,Screen 1,continueButton,response_rating_scale_likert_active,3880,NA,NA,Somewhat Agree,1,0,1,0,NA,NA,NA,NA,1,statements,Reduced risk of passing on COVID.,1,17/06/2021 13:01,17/06/2021 13:10,IP Address,For (I feel positively about the vaccines),Most months,Most weeks,35,Non-binary,NA,"Postgraduate degree (MSc, MA, MPhil)",control,10,2,For,For
22,1659970690066,08/08/2022 14:58:10,1659970702936,1,08/08/2022 15:58:22,94118,3,task-b5vt,NA,23526132,6895292,NA,complete,NA,62f12417040434135475ee03,computer,Desktop or Laptop,Windows 10,Chrome 103.0.0.0,1366x768,1366x657,NA,ITT Ratings,2,against,1,NA,NA,NA,NA,NA,NA,NA,NA,NA,ACCEPT,batch1pro,batch1pro,12,20,1,Screen 1,continueButton,response_rating_scale_likert_active,2779.899999999907,NA,NA,Strongly Disagree,1,0,1,0,NA,NA,NA,NA,1,statements,I think that the vaccine is fake,1,17/06/2021 12:34,17/06/2021 12:40,IP Address,For (I feel positively about the vaccines),Rarely,Most weeks,26,Female,NA,"Undergraduate degree (BSc, BA)",choice,2,3,For,Against
23,1659970696551,08/08/2022 14:58:16,1659970709408,1,08/08/2022 15:58:29,94118,3,task-b5vt,NA,23526132,6895292,NA,complete,NA,62f12417040434135475ee03,computer,Desktop or Laptop,Windows 10,Chrome 103.0.0.0,1366x768,1366x657,NA,ITT Ratings,2,against,1,NA,NA,NA,NA,NA,NA,NA,NA,NA,ACCEPT,batch1pro,batch1pro,32,21,1,Screen 1,continueButton,response_rating_scale_likert_active,6427.799999999814,NA,NA,Strongly Agree,1,0,1,0,NA,NA,NA,NA,1,statements,I am aware of the risks and complications of contracting xovid 19 and wish to protect myself and others,1,17/06/2021 12:31,17/06/2021 12:41,IP Address,For (I feel positively about the vaccines),Rarely,A few times a year,31,Female,NA,"Undergraduate degree (BSc, BA)",choice,5,2,For,For
24,1659970702305,08/08/2022 14:58:22,1659970715184,1,08/08/2022 15:58:35,94118,3,task-b5vt,NA,23526132,6895292,NA,complete,NA,62f12417040434135475ee03,computer,Desktop or Laptop,Windows 10,Chrome 103.0.0.0,1366x768,1366x657,NA,ITT Ratings,2,against,1,NA,NA,NA,NA,NA,NA,NA,NA,NA,ACCEPT,batch1pro,batch1pro,14,22,1,Screen 1,continueButton,response_rating_scale_likert_active,5740.899999999907,NA,NA,Neither Agree nor Disagree,1,0,1,0,NA,NA,NA,NA,1,statements,It's one of the only ways we will return to normal life,1,17/06/2021 12:34,17/06/2021 12:40,IP Address,For (I feel positively about the vaccines),Rarely,Most weeks,26,Female,NA,"Undergraduate degree (BSc, BA)",choice,2,2,For,For
25,1659970704377,08/08/2022 14:58:24,1659970717249,1,08/08/2022 15:58:37,94118,3,task-b5vt,NA,23526132,6895292,NA,complete,NA,62f12417040434135475ee03,computer,Desktop or Laptop,Windows 10,Chrome 103.0.0.0,1366x768,1366x657,NA,ITT Ratings,2,against,1,NA,NA,NA,NA,NA,NA,NA,NA,NA,ACCEPT,batch1pro,batch1pro,22,23,1,Screen 1,continueButton,response_rating_scale_likert_active,2029.5,NA,NA,Strongly Agree,1,0,1,0,NA,NA,NA,NA,1,statements,It's not qualified or tested enough,1,17/06/2021 12:33,17/06/2021 12:41,IP Address,For (I feel positively about the vaccines),Most months,Most months,20,Female,NA,"Undergraduate degree (BSc, BA),Postgraduate degree (MSc, MA, MPhil)",control,4,1,For,Against
26,1659970705617,08/08/2022 14:58:25,1659970718497,1,08/08/2022 15:58:38,94118,3,task-b5vt,NA,23526132,6895292,NA,complete,NA,62f12417040434135475ee03,computer,Desktop or Laptop,Windows 10,Chrome 103.0.0.0,1366x768,1366x657,NA,ITT Ratings,2,against,1,NA,NA,NA,NA,NA,NA,NA,NA,NA,ACCEPT,batch1pro,batch1pro,4,24,1,Screen 1,continueButton,response_rating_scale_likert_active,1211.8000000002794,NA,NA,Strongly Agree,1,0,1,0,NA,NA,NA,NA,1,statements,"It was developed too quickly, I think they should have taken more time on it",1,17/06/2021 12:34,17/06/2021 12:39,IP Address,For (I feel positively about the vaccines),Rarely,A few times a year,26,Female,NA,"Undergraduate degree (BSc, BA)",control,1,1,For,Against
27,1659970708531,08/08/2022 14:58:28,1659970721368,1,08/08/2022 15:58:41,94118,3,task-b5vt,NA,23526132,6895292,NA,complete,NA,62f12417040434135475ee03,computer,Desktop or Laptop,Windows 10,Chrome 103.0.0.0,1366x768,1366x657,NA,ITT Ratings,2,against,1,NA,NA,NA,NA,NA,NA,NA,NA,NA,ACCEPT,batch1pro,batch1pro,52,25,1,Screen 1,continueButton,response_rating_scale_likert_active,2836.600000000093,NA,NA,Neither Agree nor Disagree,1,0,1,0,NA,NA,NA,NA,1,statements,The covid 19 vaccines are a conspiracy,1,17/06/2021 12:36,17/06/2021 12:43,IP Address,For (I feel positively about the vaccines),Rarely,Most days,38,Male,NA,"GCSEs,Vocational Training / Apprenticeship",choice,9,1,For,Against
28,1659970710457,08/08/2022 14:58:30,1659970723320,1,08/08/2022 15:58:43,94118,3,task-b5vt,NA,23526132,6895292,NA,complete,NA,62f12417040434135475ee03,computer,Desktop or Laptop,Windows 10,Chrome 103.0.0.0,1366x768,1366x657,NA,ITT Ratings,2,against,1,NA,NA,NA,NA,NA,NA,NA,NA,NA,ACCEPT,batch1pro,batch1pro,9,26,1,Screen 1,continueButton,response_rating_scale_likert_active,1919.2000000001865,NA,NA,Strongly Agree,1,0,1,0,NA,NA,NA,NA,1,statements,I want to reduce the risk of myself catching the virus at work,1,17/06/2021 12:34,17/06/2021 12:39,IP Address,For (I feel positively about the vaccines),Rarely,A few times a year,26,Female,NA,"Undergraduate degree (BSc, BA)",control,1,3,For,For
29,1659970712706,08/08/2022 14:58:32,1659970725585,1,08/08/2022 15:58:45,94118,3,task-b5vt,NA,23526132,6895292,NA,complete,NA,62f12417040434135475ee03,computer,Desktop or Laptop,Windows 10,Chrome 103.0.0.0,1366x768,1366x657,NA,ITT Ratings,2,against,1,NA,NA,NA,NA,NA,NA,NA,NA,NA,ACCEPT,batch1pro,batch1pro,35,27,1,Screen 1,continueButton,response_rating_scale_likert_active,2224.6999999997206,NA,NA,Strongly Agree,1,0,1,0,NA,NA,NA,NA,1,statements,Someone has told me there experience is bad which has now put me of the idear,1,17/06/2021 12:16,17/06/2021 12:42,IP Address,For (I feel positively about the vaccines),Rarely,Most days,34,Male,NA,GCSEs,control,6,2,For,Against
30,1659971115635,08/08/2022 15:05:15,1659971128444,1,08/08/2022 16:05:28,94118,3,task-b5vt,NA,23526132,6895292,NA,complete,NA,62f12417040434135475ee03,computer,Desktop or Laptop,Windows 10,Chrome 103.0.0.0,1366x768,1366x657,NA,ITT Ratings,2,against,1,NA,NA,NA,NA,NA,NA,NA,NA,NA,ACCEPT,batch1pro,batch1pro,5,28,1,Screen 1,continueButton,response_rating_scale_likert_active,402811.2000000002,NA,NA,Strongly Agree,1,0,1,0,NA,NA,NA,NA,1,statements,I don't want any of the side effects on me or my family,1,17/06/2021 12:34,17/06/2021 12:39,IP Address,For (I feel positively about the vaccines),Rarely,A few times a year,26,Female,NA,"Undergraduate degree (BSc, BA)",control,1,2,For,Against
31,1659971119888,08/08/2022 15:05:19,1659971132777,1,08/08/2022 16:05:32,94118,3,task-b5vt,NA,23526132,6895292,NA,complete,NA,62f12417040434135475ee03,computer,Desktop or Laptop,Windows 10,Chrome 103.0.0.0,1366x768,1366x657,NA,ITT Ratings,2,against,1,NA,NA,NA,NA,NA,NA,NA,NA,NA,ACCEPT,batch1pro,batch1pro,33,29,1,Screen 1,continueButton,response_rating_scale_likert_active,4264.600000000093,NA,NA,Strongly Disagree,1,0,1,0,NA,NA,NA,NA,1,statements,More vaccinations will hopefully mean less admissions and deaths and less pressure on the nhs,1,17/06/2021 12:31,17/06/2021 12:41,IP Address,For (I feel positively about the vaccines),Rarely,A few times a year,31,Female,NA,"Undergraduate degree (BSc, BA)",choice,5,3,For,For
32,1659971122706,08/08/2022 15:05:22,1659971135601,1,08/08/2022 16:05:35,94118,3,task-b5vt,NA,23526132,6895292,NA,complete,NA,62f12417040434135475ee03,computer,Desktop or Laptop,Windows 10,Chrome 103.0.0.0,1366x768,1366x657,NA,ITT Ratings,2,against,1,NA,NA,NA,NA,NA,NA,NA,NA,NA,ACCEPT,batch1pro,batch1pro,18,30,1,Screen 1,continueButton,response_rating_scale_likert_active,2787.2999999998137,NA,NA,Strongly Agree,1,0,1,0,NA,NA,NA,NA,1,statements,Unless everyone has it then what is the point,1,17/06/2021 12:29,17/06/2021 12:41,IP Address,For (I feel positively about the vaccines),Rarely,A few times a year,55,Female,NA,A levels,choice,3,3,For,Against
33,1659971128812,08/08/2022 15:05:28,1659971141697,1,08/08/2022 16:05:41,94118,3,task-b5vt,NA,23526132,6895292,NA,complete,NA,62f12417040434135475ee03,computer,Desktop or Laptop,Windows 10,Chrome 103.0.0.0,1366x768,1366x657,NA,ITT Ratings,2,against,1,NA,NA,NA,NA,NA,NA,NA,NA,NA,ACCEPT,batch1pro,batch1pro,2,31,1,Screen 1,continueButton,response_rating_scale_likert_active,6058.600000000093,NA,NA,Somewhat Agree,1,0,1,0,NA,NA,NA,NA,1,statements,We would like to check you are reading each argument carefully. Please select 'Somewhat Agree' for this answer,1,NA,NA,NA,NA,NA,NA,NA,NA,NA,NA,NA,NA,check1,NA,NA
34,1659971130868,08/08/2022 15:05:30,1659971143760,1,08/08/2022 16:05:43,94118,3,task-b5vt,NA,23526132,6895292,NA,complete,NA,62f12417040434135475ee03,computer,Desktop or Laptop,Windows 10,Chrome 103.0.0.0,1366x768,1366x657,NA,ITT Ratings,2,against,1,NA,NA,NA,NA,NA,NA,NA,NA,NA,ACCEPT,batch1pro,batch1pro,21,32,1,Screen 1,continueButton,response_rating_scale_likert_active,2018.3999999999069,NA,NA,Strongly Agree,1,0,1,0,NA,NA,NA,NA,1,statements,I want to help in defeating this virus,1,17/06/2021 12:29,17/06/2021 12:41,IP Address,For (I feel positively about the vaccines),Rarely,A few times a year,55,Female,NA,A levels,choice,3,3,For,For
35,1659971134155,08/08/2022 15:05:34,1659971147040,1,08/08/2022 16:05:47,94118,3,task-b5vt,NA,23526132,6895292,NA,complete,NA,62f12417040434135475ee03,computer,Desktop or Laptop,Windows 10,Chrome 103.0.0.0,1366x768,1366x657,NA,ITT Ratings,2,against,1,NA,NA,NA,NA,NA,NA,NA,NA,NA,ACCEPT,batch1pro,batch1pro,59,33,1,Screen 1,continueButton,response_rating_scale_likert_active,3242.600000000093,NA,NA,Strongly Agree,1,0,1,0,NA,NA,NA,NA,1,statements,Concerns about the truthfulness of the pandemic and the true motivations behind mass vaccination.,1,17/06/2021 13:01,17/06/2021 13:10,IP Address,For (I feel positively about the vaccines),Most months,Most weeks,35,Non-binary,NA,"Postgraduate degree (MSc, MA, MPhil)",control,10,2,For,Against
36,1659971136781,08/08/2022 15:05:36,1659971149672,1,08/08/2022 16:05:49,94118,3,task-b5vt,NA,23526132,6895292,NA,complete,NA,62f12417040434135475ee03,computer,Desktop or Laptop,Windows 10,Chrome 103.0.0.0,1366x768,1366x657,NA,ITT Ratings,2,against,1,NA,NA,NA,NA,NA,NA,NA,NA,NA,ACCEPT,batch1pro,batch1pro,6,34,1,Screen 1,continueButton,response_rating_scale_likert_active,2597.899999999907,NA,NA,Strongly Agree,1,0,1,0,NA,NA,NA,NA,1,statements,I'm a healthy young adult and I'd rather they give my dose to someone else who is more vulnerable,1,17/06/2021 12:34,17/06/2021 12:39,IP Address,For (I feel positively about the vaccines),Rarely,A few times a year,26,Female,NA,"Undergraduate degree (BSc, BA)",control,1,3,For,Against
37,1659971138163,08/08/2022 15:05:38,1659971151041,1,08/08/2022 16:05:51,94118,3,task-b5vt,NA,23526132,6895292,NA,complete,NA,62f12417040434135475ee03,computer,Desktop or Laptop,Windows 10,Chrome 103.0.0.0,1366x768,1366x657,NA,ITT Ratings,2,against,1,NA,NA,NA,NA,NA,NA,NA,NA,NA,ACCEPT,batch1pro,batch1pro,42,35,1,Screen 1,continueButton,response_rating_scale_likert_active,1332.2000000001865,NA,NA,Strongly Agree,1,0,1,0,NA,NA,NA,NA,1,statements,They are unsafe and can cause long-term effects.,1,17/06/2021 12:35,17/06/2021 12:42,IP Address,For (I feel positively about the vaccines),Once or twice a year,A few times a year,20,Female,NA,"GCSEs,A levels",control,7,3,For,Against
38,1659971139742,08/08/2022 15:05:39,1659971152624,1,08/08/2022 16:05:52,94118,3,task-b5vt,NA,23526132,6895292,NA,complete,NA,62f12417040434135475ee03,computer,Desktop or Laptop,Windows 10,Chrome 103.0.0.0,1366x768,1366x657,NA,ITT Ratings,2,against,1,NA,NA,NA,NA,NA,NA,NA,NA,NA,ACCEPT,batch1pro,batch1pro,34,36,1,Screen 1,continueButton,response_rating_scale_likert_active,1538.5,NA,NA,Strongly Agree,1,0,1,0,NA,NA,NA,NA,1,statements,They have herd there could be side effects,1,17/06/2021 12:16,17/06/2021 12:42,IP Address,For (I feel positively about the vaccines),Rarely,Most days,34,Male,NA,GCSEs,control,6,1,For,Against
39,1659971142197,08/08/2022 15:05:42,1659971155088,1,08/08/2022 16:05:55,94118,3,task-b5vt,NA,23526132,6895292,NA,complete,NA,62f12417040434135475ee03,computer,Desktop or Laptop,Windows 10,Chrome 103.0.0.0,1366x768,1366x657,NA,ITT Ratings,2,against,1,NA,NA,NA,NA,NA,NA,NA,NA,NA,ACCEPT,batch1pro,batch1pro,8,37,1,Screen 1,continueButton,response_rating_scale_likert_active,2420.7999999998137,NA,NA,Strongly Agree,1,0,1,0,NA,NA,NA,NA,1,statements,I want to protect my family and be able to see them again,1,17/06/2021 12:34,17/06/2021 12:39,IP Address,For (I feel positively about the vaccines),Rarely,A few times a year,26,Female,NA,"Undergraduate degree (BSc, BA)",control,1,2,For,For
40,1659971143686,08/08/2022 15:05:43,1659971156576,1,08/08/2022 16:05:56,94118,3,task-b5vt,NA,23526132,6895292,NA,complete,NA,62f12417040434135475ee03,computer,Desktop or Laptop,Windows 10,Chrome 103.0.0.0,1366x768,1366x657,NA,ITT Ratings,2,against,1,NA,NA,NA,NA,NA,NA,NA,NA,NA,ACCEPT,batch1pro,batch1pro,13,38,1,Screen 1,continueButton,response_rating_scale_likert_active,1451.5999999996277,NA,NA,Strongly Agree,1,0,1,0,NA,NA,NA,NA,1,statements,It's important to protect the people you love who are a higher risk than you,1,17/06/2021 12:34,17/06/2021 12:40,IP Address,For (I feel positively about the vaccines),Rarely,Most weeks,26,Female,NA,"Undergraduate degree (BSc, BA)",choice,2,1,For,For
41,1659971146069,08/08/2022 15:05:46,1659971158945,1,08/08/2022 16:05:58,94118,3,task-b5vt,NA,23526132,6895292,NA,complete,NA,62f12417040434135475ee03,computer,Desktop or Laptop,Windows 10,Chrome 103.0.0.0,1366x768,1366x657,NA,ITT Ratings,2,against,1,NA,NA,NA,NA,NA,NA,NA,NA,NA,ACCEPT,batch1pro,batch1pro,57,39,1,Screen 1,continueButton,response_rating_scale_likert_active,2331,NA,NA,Strongly Disagree,1,0,1,0,NA,NA,NA,NA,1,statements,Being vaccinated is reassuring,1,17/06/2021 12:36,17/06/2021 12:43,IP Address,For (I feel positively about the vaccines),Rarely,Most days,38,Male,NA,"GCSEs,Vocational Training / Apprenticeship",choice,9,3,For,For
42,1659971148910,08/08/2022 15:05:48,1659971161801,1,08/08/2022 16:06:01,94118,3,task-b5vt,NA,23526132,6895292,NA,complete,NA,62f12417040434135475ee03,computer,Desktop or Laptop,Windows 10,Chrome 103.0.0.0,1366x768,1366x657,NA,ITT Ratings,2,against,1,NA,NA,NA,NA,NA,NA,NA,NA,NA,ACCEPT,batch1pro,batch1pro,63,40,1,Screen 1,continueButton,response_rating_scale_likert_active,2816,NA,NA,Neither Agree nor Disagree,1,0,1,0,NA,NA,NA,NA,1,statements,Less restrictions on behaviour due to immunity.,1,17/06/2021 13:01,17/06/2021 13:10,IP Address,For (I feel positively about the vaccines),Most months,Most weeks,35,Non-binary,NA,"Postgraduate degree (MSc, MA, MPhil)",control,10,3,For,For
43,1659971150285,08/08/2022 15:05:50,1659971163176,1,08/08/2022 16:06:03,94118,3,task-b5vt,NA,23526132,6895292,NA,complete,NA,62f12417040434135475ee03,computer,Desktop or Laptop,Windows 10,Chrome 103.0.0.0,1366x768,1366x657,NA,ITT Ratings,2,against,1,NA,NA,NA,NA,NA,NA,NA,NA,NA,ACCEPT,batch1pro,batch1pro,55,41,1,Screen 1,continueButton,response_rating_scale_likert_active,1339.6000000000931,NA,NA,Neither Agree nor Disagree,1,0,1,0,NA,NA,NA,NA,1,statements,It's essential to be vaccinated to regain normality.,1,17/06/2021 12:36,17/06/2021 12:43,IP Address,For (I feel positively about the vaccines),Rarely,Most days,38,Male,NA,"GCSEs,Vocational Training / Apprenticeship",choice,9,1,For,For
44,1659971152017,08/08/2022 15:05:52,1659971164896,1,08/08/2022 16:06:04,94118,3,task-b5vt,NA,23526132,6895292,NA,complete,NA,62f12417040434135475ee03,computer,Desktop or Laptop,Windows 10,Chrome 103.0.0.0,1366x768,1366x657,NA,ITT Ratings,2,against,1,NA,NA,NA,NA,NA,NA,NA,NA,NA,ACCEPT,batch1pro,batch1pro,17,42,1,Screen 1,continueButton,response_rating_scale_likert_active,1683,NA,NA,Strongly Agree,1,0,1,0,NA,NA,NA,NA,1,statements,Future side effects are unknown,1,17/06/2021 12:29,17/06/2021 12:41,IP Address,For (I feel positively about the vaccines),Rarely,A few times a year,55,Female,NA,A levels,choice,3,2,For,Against
45,1659971154021,08/08/2022 15:05:54,1659971166904,1,08/08/2022 16:06:06,94118,3,task-b5vt,NA,23526132,6895292,NA,complete,NA,62f12417040434135475ee03,computer,Desktop or Laptop,Windows 10,Chrome 103.0.0.0,1366x768,1366x657,NA,ITT Ratings,2,against,1,NA,NA,NA,NA,NA,NA,NA,NA,NA,ACCEPT,batch1pro,batch1pro,26,43,1,Screen 1,continueButton,response_rating_scale_likert_active,1971.7999999998135,NA,NA,Strongly Agree,1,0,1,0,NA,NA,NA,NA,1,statements,Many people have got it and have survived,1,17/06/2021 12:33,17/06/2021 12:41,IP Address,For (I feel positively about the vaccines),Most months,Most months,20,Female,NA,"Undergraduate degree (BSc, BA),Postgraduate degree (MSc, MA, MPhil)",control,4,2,For,For
46,1659971156406,08/08/2022 15:05:56,1659971169289,1,08/08/2022 16:06:09,94118,3,task-b5vt,NA,23526132,6895292,NA,complete,NA,62f12417040434135475ee03,computer,Desktop or Laptop,Windows 10,Chrome 103.0.0.0,1366x768,1366x657,NA,ITT Ratings,2,against,1,NA,NA,NA,NA,NA,NA,NA,NA,NA,ACCEPT,batch1pro,batch1pro,39,44,1,Screen 1,continueButton,response_rating_scale_likert_active,2350,NA,NA,Strongly Agree,1,0,1,0,NA,NA,NA,NA,1,statements,Alot of people have died from getting Covid and I want to keep my self safe and I trust it,1,17/06/2021 12:16,17/06/2021 12:42,IP Address,For (I feel positively about the vaccines),Rarely,Most days,34,Male,NA,GCSEs,control,6,3,For,For
47,1659971156529,08/08/2022 15:05:56,1659971169335,1,08/08/2022 16:06:09,94118,3,task-b5vt,NA,23526132,6895292,NA,complete,NA,62f12417040434135475ee03,computer,Desktop or Laptop,Windows 10,Chrome 103.0.0.0,1366x768,1366x657,NA,ITT Ratings,2,against,1,NA,NA,NA,NA,NA,NA,NA,NA,NA,ACCEPT,batch1pro,batch1pro,47,45,1,Screen 1,continueButton,response_rating_scale_likert_active,10.399999999906868,NA,NA,Strongly Agree,1,0,1,0,NA,NA,NA,NA,1,statements,there are negative side effects,1,17/06/2021 12:29,17/06/2021 12:42,IP Address,For (I feel positively about the vaccines),Most months,Most months,20,Male,NA,A levels,choice,8,2,For,Against
48,1659971159103,08/08/2022 15:05:59,1659971171984,1,08/08/2022 16:06:11,94118,3,task-b5vt,NA,23526132,6895292,NA,complete,NA,62f12417040434135475ee03,computer,Desktop or Laptop,Windows 10,Chrome 103.0.0.0,1366x768,1366x657,NA,ITT Ratings,2,against,1,NA,NA,NA,NA,NA,NA,NA,NA,NA,ACCEPT,batch1pro,batch1pro,3,46,1,Screen 1,continueButton,response_rating_scale_likert_active,2616,NA,NA,Somewhat Disagree,1,0,1,0,NA,NA,NA,NA,1,statements,We would like to check you are reading each argument carefully. Please select 'Somewhat Disagree' for this answer,1,NA,NA,NA,NA,NA,NA,NA,NA,NA,NA,NA,NA,check2,NA,NA
49,1659971162100,08/08/2022 15:06:02,1659971174984,1,08/08/2022 16:06:14,94118,3,task-b5vt,NA,23526132,6895292,NA,complete,NA,62f12417040434135475ee03,computer,Desktop or Laptop,Windows 10,Chrome 103.0.0.0,1366x768,1366x657,NA,ITT Ratings,2,against,1,NA,NA,NA,NA,NA,NA,NA,NA,NA,ACCEPT,batch1pro,batch1pro,38,47,1,Screen 1,continueButton,response_rating_scale_likert_active,2964.5999999996275,NA,NA,Strongly Agree,1,0,1,0,NA,NA,NA,NA,1,statements,"A member of my family can catch anything really easily , so I want to do this to help keep them safe",1,17/06/2021 12:16,17/06/2021 12:42,IP Address,For (I feel positively about the vaccines),Rarely,Most days,34,Male,NA,GCSEs,control,6,2,For,For
50,1659971166593,08/08/2022 15:06:06,1659971179482,1,08/08/2022 16:06:19,94118,3,task-b5vt,NA,23526132,6895292,NA,complete,NA,62f12417040434135475ee03,computer,Desktop or Laptop,Windows 10,Chrome 103.0.0.0,1366x768,1366x657,NA,ITT Ratings,2,against,1,NA,NA,NA,NA,NA,NA,NA,NA,NA,ACCEPT,batch1pro,batch1pro,29,48,1,Screen 1,continueButton,response_rating_scale_likert_active,4461.200000000186,NA,NA,Strongly Disagree,1,0,1,0,NA,NA,NA,NA,1,statements,"The outcomes of the virus are not significant for that person, therefore the risk of the vaccine is greater than the risk of covid 19 side effects",1,17/06/2021 12:31,17/06/2021 12:41,IP Address,For (I feel positively about the vaccines),Rarely,A few times a year,31,Female,NA,"Undergraduate degree (BSc, BA)",choice,5,2,For,Against
51,1659971168297,08/08/2022 15:06:08,1659971181184,1,08/08/2022 16:06:21,94118,3,task-b5vt,NA,23526132,6895292,NA,complete,NA,62f12417040434135475ee03,computer,Desktop or Laptop,Windows 10,Chrome 103.0.0.0,1366x768,1366x657,NA,ITT Ratings,2,against,1,NA,NA,NA,NA,NA,NA,NA,NA,NA,ACCEPT,batch1pro,batch1pro,48,49,1,Screen 1,continueButton,response_rating_scale_likert_active,1663,NA,NA,Strongly Agree,1,0,1,0,NA,NA,NA,NA,1,statements,I'm young and healthy so why should I get vaccinated?,1,17/06/2021 12:29,17/06/2021 12:42,IP Address,For (I feel positively about the vaccines),Most months,Most months,20,Male,NA,A levels,choice,8,3,For,Against
52,1659971171055,08/08/2022 15:06:11,1659971183936,1,08/08/2022 16:06:23,94118,3,task-b5vt,NA,23526132,6895292,NA,complete,NA,62f12417040434135475ee03,computer,Desktop or Laptop,Windows 10,Chrome 103.0.0.0,1366x768,1366x657,NA,ITT Ratings,2,against,1,NA,NA,NA,NA,NA,NA,NA,NA,NA,ACCEPT,batch1pro,batch1pro,28,50,1,Screen 1,continueButton,response_rating_scale_likert_active,2717.899999999907,NA,NA,Strongly Agree,1,0,1,0,NA,NA,NA,NA,1,statements,Do not want to be used as a government experiment - there has not been enough testing and the safety is not known.,1,17/06/2021 12:31,17/06/2021 12:41,IP Address,For (I feel positively about the vaccines),Rarely,A few times a year,31,Female,NA,"Undergraduate degree (BSc, BA)",choice,5,1,For,Against
53,1659971172994,08/08/2022 15:06:12,1659971185880,1,08/08/2022 16:06:25,94118,3,task-b5vt,NA,23526132,6895292,NA,complete,NA,62f12417040434135475ee03,computer,Desktop or Laptop,Windows 10,Chrome 103.0.0.0,1366x768,1366x657,NA,ITT Ratings,2,against,1,NA,NA,NA,NA,NA,NA,NA,NA,NA,ACCEPT,batch1pro,batch1pro,41,51,1,Screen 1,continueButton,response_rating_scale_likert_active,1908.3999999999069,NA,NA,Strongly Disagree,1,0,1,0,NA,NA,NA,NA,1,statements,The vaccines contain trackers that allow the government to control us.,1,17/06/2021 12:35,17/06/2021 12:42,IP Address,For (I feel positively about the vaccines),Once or twice a year,A few times a year,20,Female,NA,"GCSEs,A levels",control,7,2,For,Against
54,1659971176512,08/08/2022 15:06:16,1659971189392,1,08/08/2022 16:06:29,94118,3,task-b5vt,NA,23526132,6895292,NA,complete,NA,62f12417040434135475ee03,computer,Desktop or Laptop,Windows 10,Chrome 103.0.0.0,1366x768,1366x657,NA,ITT Ratings,2,against,1,NA,NA,NA,NA,NA,NA,NA,NA,NA,ACCEPT,batch1pro,batch1pro,31,52,1,Screen 1,continueButton,response_rating_scale_likert_active,3473.7000000001863,NA,NA,Neither Agree nor Disagree,1,0,1,0,NA,NA,NA,NA,1,statements,They wish for life to return to normal and the best way to achieve this is maximum uptake,1,17/06/2021 12:31,17/06/2021 12:41,IP Address,For (I feel positively about the vaccines),Rarely,A few times a year,31,Female,NA,"Undergraduate degree (BSc, BA)",choice,5,1,For,For
55,1659971230656,08/08/2022 15:07:10,1659971243536,1,08/08/2022 16:07:23,94118,3,task-b5vt,NA,23526132,6895292,NA,complete,NA,62f12417040434135475ee03,computer,Desktop or Laptop,Windows 10,Chrome 103.0.0.0,1366x768,1366x657,NA,ITT Ratings,2,against,1,NA,NA,NA,NA,NA,NA,NA,NA,NA,ACCEPT,batch1pro,batch1pro,49,53,1,Screen 1,continueButton,response_rating_scale_likert_active,54107.39999999991,NA,NA,Neither Agree nor Disagree,1,0,1,0,NA,NA,NA,NA,1,statements,To gain immunity against COVID 19.,1,17/06/2021 12:29,17/06/2021 12:42,IP Address,For (I feel positively about the vaccines),Most months,Most months,20,Male,NA,A levels,choice,8,1,For,For
56,1659971233112,08/08/2022 15:07:13,1659971245992,1,08/08/2022 16:07:25,94118,3,task-b5vt,NA,23526132,6895292,NA,complete,NA,62f12417040434135475ee03,computer,Desktop or Laptop,Windows 10,Chrome 103.0.0.0,1366x768,1366x657,NA,ITT Ratings,2,against,1,NA,NA,NA,NA,NA,NA,NA,NA,NA,ACCEPT,batch1pro,batch1pro,43,54,1,Screen 1,continueButton,response_rating_scale_likert_active,2415.1999999997206,NA,NA,Strongly Disagree,1,0,1,0,NA,NA,NA,NA,1,statements,It is the only way we can effectively eliminate the virus from the world.,1,17/06/2021 12:35,17/06/2021 12:42,IP Address,For (I feel positively about the vaccines),Once or twice a year,A few times a year,20,Female,NA,"GCSEs,A levels",control,7,1,For,For
57,1659971234587,08/08/2022 15:07:14,1659971247456,1,08/08/2022 16:07:27,94118,3,task-b5vt,NA,23526132,6895292,NA,complete,NA,62f12417040434135475ee03,computer,Desktop or Laptop,Windows 10,Chrome 103.0.0.0,1366x768,1366x657,NA,ITT Ratings,2,against,1,NA,NA,NA,NA,NA,NA,NA,NA,NA,ACCEPT,batch1pro,batch1pro,56,55,1,Screen 1,continueButton,response_rating_scale_likert_active,1424.2999999998135,NA,NA,Strongly Disagree,1,0,1,0,NA,NA,NA,NA,1,statements,The vaccines are safe enough to use,1,17/06/2021 12:36,17/06/2021 12:43,IP Address,For (I feel positively about the vaccines),Rarely,Most days,38,Male,NA,"GCSEs,Vocational Training / Apprenticeship",choice,9,2,For,For
58,1659971236690,08/08/2022 15:07:16,1659971249552,1,08/08/2022 16:07:29,94118,3,task-b5vt,NA,23526132,6895292,NA,complete,NA,62f12417040434135475ee03,computer,Desktop or Laptop,Windows 10,Chrome 103.0.0.0,1366x768,1366x657,NA,ITT Ratings,2,against,1,NA,NA,NA,NA,NA,NA,NA,NA,NA,ACCEPT,batch1pro,batch1pro,30,56,1,Screen 1,continueButton,response_rating_scale_likert_active,2058.100000000093,NA,NA,Strongly Agree,1,0,1,0,NA,NA,NA,NA,1,statements,The risks of side effects to su h as blood clots with vaccines are too high.,1,17/06/2021 12:31,17/06/2021 12:41,IP Address,For (I feel positively about the vaccines),Rarely,A few times a year,31,Female,NA,"Undergraduate degree (BSc, BA)",choice,5,3,For,Against
59,1659971239730,08/08/2022 15:07:19,1659971252616,1,08/08/2022 16:07:32,94118,3,task-b5vt,NA,23526132,6895292,NA,complete,NA,62f12417040434135475ee03,computer,Desktop or Laptop,Windows 10,Chrome 103.0.0.0,1366x768,1366x657,NA,ITT Ratings,2,against,1,NA,NA,NA,NA,NA,NA,NA,NA,NA,ACCEPT,batch1pro,batch1pro,60,57,1,Screen 1,continueButton,response_rating_scale_likert_active,3026.8000000002794,NA,NA,Strongly Agree,1,0,1,0,NA,NA,NA,NA,1,statements,Concerns about fertility and the population control conspiracy.,1,17/06/2021 13:01,17/06/2021 13:10,IP Address,For (I feel positively about the vaccines),Most months,Most weeks,35,Non-binary,NA,"Postgraduate degree (MSc, MA, MPhil)",control,10,3,For,Against
60,1659971241466,08/08/2022 15:07:21,1659971254345,1,08/08/2022 16:07:34,94118,3,task-b5vt,NA,23526132,6895292,NA,complete,NA,62f12417040434135475ee03,computer,Desktop or Laptop,Windows 10,Chrome 103.0.0.0,1366x768,1366x657,NA,ITT Ratings,2,against,1,NA,NA,NA,NA,NA,NA,NA,NA,NA,ACCEPT,batch1pro,batch1pro,15,58,1,Screen 1,continueButton,response_rating_scale_likert_active,1690.2999999998135,NA,NA,Strongly Disagree,1,0,1,0,NA,NA,NA,NA,1,statements,"Vaccines are important, they help us all live safely and healthily",1,17/06/2021 12:34,17/06/2021 12:40,IP Address,For (I feel positively about the vaccines),Rarely,Most weeks,26,Female,NA,"Undergraduate degree (BSc, BA)",choice,2,3,For,For
61,1659971243526,08/08/2022 15:07:23,1659971256408,1,08/08/2022 16:07:36,94118,3,task-b5vt,NA,23526132,6895292,NA,complete,NA,62f12417040434135475ee03,computer,Desktop or Laptop,Windows 10,Chrome 103.0.0.0,1366x768,1366x657,NA,ITT Ratings,2,against,1,NA,NA,NA,NA,NA,NA,NA,NA,NA,ACCEPT,batch1pro,batch1pro,50,59,1,Screen 1,continueButton,response_rating_scale_likert_active,1998.5999999996277,NA,NA,Neither Agree nor Disagree,1,0,1,0,NA,NA,NA,NA,1,statements,To protect others by giving herd immunity.,1,17/06/2021 12:29,17/06/2021 12:42,IP Address,For (I feel positively about the vaccines),Most months,Most months,20,Male,NA,A levels,choice,8,2,For,For
62,1659971245460,08/08/2022 15:07:25,1659971258344,1,08/08/2022 16:07:38,94118,3,task-b5vt,NA,23526132,6895292,NA,complete,NA,62f12417040434135475ee03,computer,Desktop or Laptop,Windows 10,Chrome 103.0.0.0,1366x768,1366x657,NA,ITT Ratings,2,against,1,NA,NA,NA,NA,NA,NA,NA,NA,NA,ACCEPT,batch1pro,batch1pro,24,60,1,Screen 1,continueButton,response_rating_scale_likert_active,1900.1000000000931,NA,NA,Strongly Agree,1,0,1,0,NA,NA,NA,NA,1,statements,There are too many on the market at the moment,1,17/06/2021 12:33,17/06/2021 12:41,IP Address,For (I feel positively about the vaccines),Most months,Most months,20,Female,NA,"Undergraduate degree (BSc, BA),Postgraduate degree (MSc, MA, MPhil)",control,4,3,For,Against
63,1659971246634,08/08/2022 15:07:26,1659971259520,1,08/08/2022 16:07:39,94118,3,task-b5vt,NA,23526132,6895292,NA,complete,NA,62f12417040434135475ee03,computer,Desktop or Laptop,Windows 10,Chrome 103.0.0.0,1366x768,1366x657,NA,ITT Ratings,2,against,1,NA,NA,NA,NA,NA,NA,NA,NA,NA,ACCEPT,batch1pro,batch1pro,54,61,1,Screen 1,continueButton,response_rating_scale_likert_active,1146.9000000003723,NA,NA,Strongly Agree,1,0,1,0,NA,NA,NA,NA,1,statements,The vaccines don't work and will not be affective,1,17/06/2021 12:36,17/06/2021 12:43,IP Address,For (I feel positively about the vaccines),Rarely,Most days,38,Male,NA,"GCSEs,Vocational Training / Apprenticeship",choice,9,3,For,Against
64,1659971248694,08/08/2022 15:07:28,1659971261576,1,08/08/2022 16:07:41,94118,3,task-b5vt,NA,23526132,6895292,NA,complete,NA,62f12417040434135475ee03,computer,Desktop or Laptop,Windows 10,Chrome 103.0.0.0,1366x768,1366x657,NA,ITT Ratings,2,against,1,NA,NA,NA,NA,NA,NA,NA,NA,NA,ACCEPT,batch1pro,batch1pro,36,62,1,Screen 1,continueButton,response_rating_scale_likert_active,2027.6999999997208,NA,NA,Strongly Agree,1,0,1,0,NA,NA,NA,NA,1,statements,I am scared and I don't believe that the Vaccine will help me,1,17/06/2021 12:16,17/06/2021 12:42,IP Address,For (I feel positively about the vaccines),Rarely,Most days,34,Male,NA,GCSEs,control,6,3,For,Against
65,1659971248754,08/08/2022 15:07:28,1659971261589,1,08/08/2022 16:07:41,94118,3,task-b5vt,NA,23526132,6895292,NA,complete,NA,62f12417040434135475ee03,computer,Desktop or Laptop,Windows 10,Chrome 103.0.0.0,1366x768,1366x657,NA,ITT Ratings,2,against,1,NA,NA,NA,NA,NA,NA,NA,NA,NA,ACCEPT,batch1pro,NA,NA,END TASK,NA,NA,NA,NA,642329,NA,NA,NA,NA,0,1,0,NA,NA,NA,NA,NA,NA,NA,NA,NA,NA,NA,NA,NA,NA,NA,NA,NA,NA,NA,NA,NA,NA,NA
1,1659970629046,08/08/2022 14:57:09,1659970629813,1,08/08/2022 15:57:09,94118,3,task-b5vt,NA,23526139,6895287,NA,complete,NA,62f12403d285603d3c8c1d36,computer,Desktop or Laptop,Windows 10,Chrome 104.0.0.0,1920x1080,1920x961,NA,ITT Ratings,2,against,1,NA,NA,NA,NA,NA,NA,NA,NA,NA,ACCEPT,batch1pro,NA,NA,BEGIN TASK,NA,NA,NA,NA,NA,NA,NA,NA,NA,0,1,0,NA,NA,NA,NA,NA,NA,NA,NA,NA,NA,NA,NA,NA,NA,NA,NA,NA,NA,NA,NA,NA,NA,NA
2,1659970638228,08/08/2022 14:57:18,1659970638991,1,08/08/2022 15:57:18,94118,3,task-b5vt,NA,23526139,6895287,NA,complete,NA,62f12403d285603d3c8c1d36,computer,Desktop or Laptop,Windows 10,Chrome 104.0.0.0,1920x1080,1920x961,NA,ITT Ratings,2,against,1,NA,NA,NA,NA,NA,NA,NA,NA,NA,ACCEPT,batch1pro,batch1pro,1,1,1,Screen 1,advancementZone,continue_button,9127.799999998882,NA,NA,NA,NA,0,1,0,NA,NA,NA,NA,NA,instructions,NA,NA,NA,NA,NA,NA,NA,NA,NA,NA,NA,NA,NA,NA,NA,NA,NA
3,1659970643505,08/08/2022 14:57:23,1659970644277,1,08/08/2022 15:57:24,94118,3,task-b5vt,NA,23526139,6895287,NA,complete,NA,62f12403d285603d3c8c1d36,computer,Desktop or Laptop,Windows 10,Chrome 104.0.0.0,1920x1080,1920x961,NA,ITT Ratings,2,against,1,NA,NA,NA,NA,NA,NA,NA,NA,NA,ACCEPT,batch1pro,batch1pro,42,1,1,Screen 1,continueButton,response_rating_scale_likert_active,5264.60000000149,NA,NA,Strongly Agree,1,0,1,0,NA,NA,NA,NA,1,statements,They are unsafe and can cause long-term effects.,1,17/06/2021 12:35,17/06/2021 12:42,IP Address,For (I feel positively about the vaccines),Once or twice a year,A few times a year,20,Female,NA,"GCSEs,A levels",control,7,3,For,Against
4,1659970646269,08/08/2022 14:57:26,1659970647093,1,08/08/2022 15:57:27,94118,3,task-b5vt,NA,23526139,6895287,NA,complete,NA,62f12403d285603d3c8c1d36,computer,Desktop or Laptop,Windows 10,Chrome 104.0.0.0,1920x1080,1920x961,NA,ITT Ratings,2,against,1,NA,NA,NA,NA,NA,NA,NA,NA,NA,ACCEPT,batch1pro,batch1pro,11,2,1,Screen 1,continueButton,response_rating_scale_likert_active,2801.199999999255,NA,NA,Strongly Agree,1,0,1,0,NA,NA,NA,NA,1,statements,I believe that the vaccine is ineffective or rushed,1,17/06/2021 12:34,17/06/2021 12:40,IP Address,For (I feel positively about the vaccines),Rarely,Most weeks,26,Female,NA,"Undergraduate degree (BSc, BA)",choice,2,2,For,Against
5,1659970648114,08/08/2022 14:57:28,1659970648953,1,08/08/2022 15:57:28,94118,3,task-b5vt,NA,23526139,6895287,NA,complete,NA,62f12403d285603d3c8c1d36,computer,Desktop or Laptop,Windows 10,Chrome 104.0.0.0,1920x1080,1920x961,NA,ITT Ratings,2,against,1,NA,NA,NA,NA,NA,NA,NA,NA,NA,ACCEPT,batch1pro,batch1pro,16,3,1,Screen 1,continueButton,response_rating_scale_likert_active,1847,NA,NA,Strongly Agree,1,0,1,0,NA,NA,NA,NA,1,statements,Hasn't been tested for long enough,1,17/06/2021 12:29,17/06/2021 12:41,IP Address,For (I feel positively about the vaccines),Rarely,A few times a year,55,Female,NA,A levels,choice,3,1,For,Against
6,1659970652127,08/08/2022 14:57:32,1659970652957,1,08/08/2022 15:57:32,94118,3,task-b5vt,NA,23526139,6895287,NA,complete,NA,62f12403d285603d3c8c1d36,computer,Desktop or Laptop,Windows 10,Chrome 104.0.0.0,1920x1080,1920x961,NA,ITT Ratings,2,against,1,NA,NA,NA,NA,NA,NA,NA,NA,NA,ACCEPT,batch1pro,batch1pro,32,4,1,Screen 1,continueButton,response_rating_scale_likert_active,3990.39999999851,NA,NA,Strongly Disagree,1,0,1,0,NA,NA,NA,NA,1,statements,I am aware of the risks and complications of contracting xovid 19 and wish to protect myself and others,1,17/06/2021 12:31,17/06/2021 12:41,IP Address,For (I feel positively about the vaccines),Rarely,A few times a year,31,Female,NA,"Undergraduate degree (BSc, BA)",choice,5,2,For,For
7,1659970656387,08/08/2022 14:57:36,1659970657009,1,08/08/2022 15:57:37,94118,3,task-b5vt,NA,23526139,6895287,NA,complete,NA,62f12403d285603d3c8c1d36,computer,Desktop or Laptop,Windows 10,Chrome 104.0.0.0,1920x1080,1920x961,NA,ITT Ratings,2,against,1,NA,NA,NA,NA,NA,NA,NA,NA,NA,ACCEPT,batch1pro,batch1pro,13,5,1,Screen 1,continueButton,response_rating_scale_likert_active,4038.099999999627,NA,NA,Strongly Disagree,1,0,1,0,NA,NA,NA,NA,1,statements,It's important to protect the people you love who are a higher risk than you,1,17/06/2021 12:34,17/06/2021 12:40,IP Address,For (I feel positively about the vaccines),Rarely,Most weeks,26,Female,NA,"Undergraduate degree (BSc, BA)",choice,2,1,For,For
8,1659970658825,08/08/2022 14:57:38,1659970659669,1,08/08/2022 15:57:39,94118,3,task-b5vt,NA,23526139,6895287,NA,complete,NA,62f12403d285603d3c8c1d36,computer,Desktop or Laptop,Windows 10,Chrome 104.0.0.0,1920x1080,1920x961,NA,ITT Ratings,2,against,1,NA,NA,NA,NA,NA,NA,NA,NA,NA,ACCEPT,batch1pro,batch1pro,9,6,1,Screen 1,continueButton,response_rating_scale_likert_active,2648.10000000149,NA,NA,Strongly Disagree,1,0,1,0,NA,NA,NA,NA,1,statements,I want to reduce the risk of myself catching the virus at work,1,17/06/2021 12:34,17/06/2021 12:39,IP Address,For (I feel positively about the vaccines),Rarely,A few times a year,26,Female,NA,"Undergraduate degree (BSc, BA)",control,1,3,For,For
9,1659970662302,08/08/2022 14:57:42,1659970663131,1,08/08/2022 15:57:43,94118,3,task-b5vt,NA,23526139,6895287,NA,complete,NA,62f12403d285603d3c8c1d36,computer,Desktop or Laptop,Windows 10,Chrome 104.0.0.0,1920x1080,1920x961,NA,ITT Ratings,2,against,1,NA,NA,NA,NA,NA,NA,NA,NA,NA,ACCEPT,batch1pro,batch1pro,39,7,1,Screen 1,continueButton,response_rating_scale_likert_active,3448.4000000003725,NA,NA,Strongly Disagree,1,0,1,0,NA,NA,NA,NA,1,statements,Alot of people have died from getting Covid and I want to keep my self safe and I trust it,1,17/06/2021 12:16,17/06/2021 12:42,IP Address,For (I feel positively about the vaccines),Rarely,Most days,34,Male,NA,GCSEs,control,6,3,For,For
10,1659970665926,08/08/2022 14:57:45,1659970666712,1,08/08/2022 15:57:46,94118,3,task-b5vt,NA,23526139,6895287,NA,complete,NA,62f12403d285603d3c8c1d36,computer,Desktop or Laptop,Windows 10,Chrome 104.0.0.0,1920x1080,1920x961,NA,ITT Ratings,2,against,1,NA,NA,NA,NA,NA,NA,NA,NA,NA,ACCEPT,batch1pro,batch1pro,23,8,1,Screen 1,continueButton,response_rating_scale_likert_active,3567.800000000745,NA,NA,Somewhat Agree,1,0,1,0,NA,NA,NA,NA,1,statements,The government is trying to control us through this vaccine,1,17/06/2021 12:33,17/06/2021 12:41,IP Address,For (I feel positively about the vaccines),Most months,Most months,20,Female,NA,"Undergraduate degree (BSc, BA),Postgraduate degree (MSc, MA, MPhil)",control,4,2,For,Against
11,1659970667510,08/08/2022 14:57:47,1659970668344,1,08/08/2022 15:57:48,94118,3,task-b5vt,NA,23526139,6895287,NA,complete,NA,62f12403d285603d3c8c1d36,computer,Desktop or Laptop,Windows 10,Chrome 104.0.0.0,1920x1080,1920x961,NA,ITT Ratings,2,against,1,NA,NA,NA,NA,NA,NA,NA,NA,NA,ACCEPT,batch1pro,batch1pro,53,9,1,Screen 1,continueButton,response_rating_scale_likert_active,1622,NA,NA,Strongly Agree,1,0,1,0,NA,NA,NA,NA,1,statements,The vaccines are not safe enough yet,1,17/06/2021 12:36,17/06/2021 12:43,IP Address,For (I feel positively about the vaccines),Rarely,Most days,38,Male,NA,"GCSEs,Vocational Training / Apprenticeship",choice,9,2,For,Against
12,1659970669898,08/08/2022 14:57:49,1659970670737,1,08/08/2022 15:57:50,94118,3,task-b5vt,NA,23526139,6895287,NA,complete,NA,62f12403d285603d3c8c1d36,computer,Desktop or Laptop,Windows 10,Chrome 104.0.0.0,1920x1080,1920x961,NA,ITT Ratings,2,against,1,NA,NA,NA,NA,NA,NA,NA,NA,NA,ACCEPT,batch1pro,batch1pro,48,10,1,Screen 1,continueButton,response_rating_scale_likert_active,2380.5999999996275,NA,NA,Strongly Agree,1,0,1,0,NA,NA,NA,NA,1,statements,I'm young and healthy so why should I get vaccinated?,1,17/06/2021 12:29,17/06/2021 12:42,IP Address,For (I feel positively about the vaccines),Most months,Most months,20,Male,NA,A levels,choice,8,3,For,Against
13,1659970672962,08/08/2022 14:57:52,1659970673735,1,08/08/2022 15:57:53,94118,3,task-b5vt,NA,23526139,6895287,NA,complete,NA,62f12403d285603d3c8c1d36,computer,Desktop or Laptop,Windows 10,Chrome 104.0.0.0,1920x1080,1920x961,NA,ITT Ratings,2,against,1,NA,NA,NA,NA,NA,NA,NA,NA,NA,ACCEPT,batch1pro,batch1pro,14,11,1,Screen 1,continueButton,response_rating_scale_likert_active,2984.699999999255,NA,NA,Strongly Disagree,1,0,1,0,NA,NA,NA,NA,1,statements,It's one of the only ways we will return to normal life,1,17/06/2021 12:34,17/06/2021 12:40,IP Address,For (I feel positively about the vaccines),Rarely,Most weeks,26,Female,NA,"Undergraduate degree (BSc, BA)",choice,2,2,For,For
14,1659970675508,08/08/2022 14:57:55,1659970676339,1,08/08/2022 15:57:56,94118,3,task-b5vt,NA,23526139,6895287,NA,complete,NA,62f12403d285603d3c8c1d36,computer,Desktop or Laptop,Windows 10,Chrome 104.0.0.0,1920x1080,1920x961,NA,ITT Ratings,2,against,1,NA,NA,NA,NA,NA,NA,NA,NA,NA,ACCEPT,batch1pro,batch1pro,55,12,1,Screen 1,continueButton,response_rating_scale_likert_active,2592.5,NA,NA,Strongly Disagree,1,0,1,0,NA,NA,NA,NA,1,statements,It's essential to be vaccinated to regain normality.,1,17/06/2021 12:36,17/06/2021 12:43,IP Address,For (I feel positively about the vaccines),Rarely,Most days,38,Male,NA,"GCSEs,Vocational Training / Apprenticeship",choice,9,1,For,For
15,1659970680175,08/08/2022 14:58:00,1659970681004,1,08/08/2022 15:58:01,94118,3,task-b5vt,NA,23526139,6895287,NA,complete,NA,62f12403d285603d3c8c1d36,computer,Desktop or Laptop,Windows 10,Chrome 104.0.0.0,1920x1080,1920x961,NA,ITT Ratings,2,against,1,NA,NA,NA,NA,NA,NA,NA,NA,NA,ACCEPT,batch1pro,batch1pro,40,13,1,Screen 1,continueButton,response_rating_scale_likert_active,4651.799999998882,NA,NA,Strongly Agree,1,0,1,0,NA,NA,NA,NA,1,statements,They believe we have not had enough time to develop an effective vaccine.,1,17/06/2021 12:35,17/06/2021 12:42,IP Address,For (I feel positively about the vaccines),Once or twice a year,A few times a year,20,Female,NA,"GCSEs,A levels",control,7,1,For,Against
16,1659970683463,08/08/2022 14:58:03,1659970684251,1,08/08/2022 15:58:04,94118,3,task-b5vt,NA,23526139,6895287,NA,complete,NA,62f12403d285603d3c8c1d36,computer,Desktop or Laptop,Windows 10,Chrome 104.0.0.0,1920x1080,1920x961,NA,ITT Ratings,2,against,1,NA,NA,NA,NA,NA,NA,NA,NA,NA,ACCEPT,batch1pro,batch1pro,43,14,1,Screen 1,continueButton,response_rating_scale_likert_active,3233.4000000003725,NA,NA,Strongly Disagree,1,0,1,0,NA,NA,NA,NA,1,statements,It is the only way we can effectively eliminate the virus from the world.,1,17/06/2021 12:35,17/06/2021 12:42,IP Address,For (I feel positively about the vaccines),Once or twice a year,A few times a year,20,Female,NA,"GCSEs,A levels",control,7,1,For,For
17,1659970686767,08/08/2022 14:58:06,1659970687611,1,08/08/2022 15:58:07,94118,3,task-b5vt,NA,23526139,6895287,NA,complete,NA,62f12403d285603d3c8c1d36,computer,Desktop or Laptop,Windows 10,Chrome 104.0.0.0,1920x1080,1920x961,NA,ITT Ratings,2,against,1,NA,NA,NA,NA,NA,NA,NA,NA,NA,ACCEPT,batch1pro,batch1pro,44,15,1,Screen 1,continueButton,response_rating_scale_likert_active,3350.4000000003725,NA,NA,Strongly Disagree,1,0,1,0,NA,NA,NA,NA,1,statements,It will help to protect the most vulnerable groups in our society.,1,17/06/2021 12:35,17/06/2021 12:42,IP Address,For (I feel positively about the vaccines),Once or twice a year,A few times a year,20,Female,NA,"GCSEs,A levels",control,7,2,For,For
18,1659970690733,08/08/2022 14:58:10,1659970691568,1,08/08/2022 15:58:11,94118,3,task-b5vt,NA,23526139,6895287,NA,complete,NA,62f12403d285603d3c8c1d36,computer,Desktop or Laptop,Windows 10,Chrome 104.0.0.0,1920x1080,1920x961,NA,ITT Ratings,2,against,1,NA,NA,NA,NA,NA,NA,NA,NA,NA,ACCEPT,batch1pro,batch1pro,20,16,1,Screen 1,continueButton,response_rating_scale_likert_active,3947.400000000373,NA,NA,Neither Agree nor Disagree,1,0,1,0,NA,NA,NA,NA,1,statements,I want to help society,1,17/06/2021 12:29,17/06/2021 12:41,IP Address,For (I feel positively about the vaccines),Rarely,A few times a year,55,Female,NA,A levels,choice,3,2,For,For
19,1659970696822,08/08/2022 14:58:16,1659970697605,1,08/08/2022 15:58:17,94118,3,task-b5vt,NA,23526139,6895287,NA,complete,NA,62f12403d285603d3c8c1d36,computer,Desktop or Laptop,Windows 10,Chrome 104.0.0.0,1920x1080,1920x961,NA,ITT Ratings,2,against,1,NA,NA,NA,NA,NA,NA,NA,NA,NA,ACCEPT,batch1pro,batch1pro,3,17,1,Screen 1,continueButton,response_rating_scale_likert_active,6025.200000001118,NA,NA,Somewhat Disagree,1,0,1,0,NA,NA,NA,NA,1,statements,We would like to check you are reading each argument carefully. Please select 'Somewhat Disagree' for this answer,1,NA,NA,NA,NA,NA,NA,NA,NA,NA,NA,NA,NA,check2,NA,NA
20,1659970701009,08/08/2022 14:58:21,1659970701852,1,08/08/2022 15:58:21,94118,3,task-b5vt,NA,23526139,6895287,NA,complete,NA,62f12403d285603d3c8c1d36,computer,Desktop or Laptop,Windows 10,Chrome 104.0.0.0,1920x1080,1920x961,NA,ITT Ratings,2,against,1,NA,NA,NA,NA,NA,NA,NA,NA,NA,ACCEPT,batch1pro,batch1pro,12,18,1,Screen 1,continueButton,response_rating_scale_likert_active,4236.0999999996275,NA,NA,Neither Agree nor Disagree,1,0,1,0,NA,NA,NA,NA,1,statements,I think that the vaccine is fake,1,17/06/2021 12:34,17/06/2021 12:40,IP Address,For (I feel positively about the vaccines),Rarely,Most weeks,26,Female,NA,"Undergraduate degree (BSc, BA)",choice,2,3,For,Against
21,1659970708721,08/08/2022 14:58:28,1659970709480,1,08/08/2022 15:58:29,94118,3,task-b5vt,NA,23526139,6895287,NA,complete,NA,62f12403d285603d3c8c1d36,computer,Desktop or Laptop,Windows 10,Chrome 104.0.0.0,1920x1080,1920x961,NA,ITT Ratings,2,against,1,NA,NA,NA,NA,NA,NA,NA,NA,NA,ACCEPT,batch1pro,batch1pro,34,19,1,Screen 1,continueButton,response_rating_scale_likert_active,7617.800000000745,NA,NA,Strongly Agree,1,0,1,0,NA,NA,NA,NA,1,statements,They have herd there could be side effects,1,17/06/2021 12:16,17/06/2021 12:42,IP Address,For (I feel positively about the vaccines),Rarely,Most days,34,Male,NA,GCSEs,control,6,1,For,Against
22,1659970711542,08/08/2022 14:58:31,1659970712387,1,08/08/2022 15:58:32,94118,3,task-b5vt,NA,23526139,6895287,NA,complete,NA,62f12403d285603d3c8c1d36,computer,Desktop or Laptop,Windows 10,Chrome 104.0.0.0,1920x1080,1920x961,NA,ITT Ratings,2,against,1,NA,NA,NA,NA,NA,NA,NA,NA,NA,ACCEPT,batch1pro,batch1pro,25,20,1,Screen 1,continueButton,response_rating_scale_likert_active,2896,NA,NA,Strongly Disagree,1,0,1,0,NA,NA,NA,NA,1,statements,It's been tried and tested and has been approved by many doctors around the world,1,17/06/2021 12:33,17/06/2021 12:41,IP Address,For (I feel positively about the vaccines),Most months,Most months,20,Female,NA,"Undergraduate degree (BSc, BA),Postgraduate degree (MSc, MA, MPhil)",control,4,1,For,For
23,1659970717026,08/08/2022 14:58:37,1659970717808,1,08/08/2022 15:58:37,94118,3,task-b5vt,NA,23526139,6895287,NA,complete,NA,62f12403d285603d3c8c1d36,computer,Desktop or Laptop,Windows 10,Chrome 104.0.0.0,1920x1080,1920x961,NA,ITT Ratings,2,against,1,NA,NA,NA,NA,NA,NA,NA,NA,NA,ACCEPT,batch1pro,batch1pro,49,21,1,Screen 1,continueButton,response_rating_scale_likert_active,5408.0999999996275,NA,NA,Somewhat Disagree,1,0,1,0,NA,NA,NA,NA,1,statements,To gain immunity against COVID 19.,1,17/06/2021 12:29,17/06/2021 12:42,IP Address,For (I feel positively about the vaccines),Most months,Most months,20,Male,NA,A levels,choice,8,1,For,For
24,1659970721939,08/08/2022 14:58:41,1659970722769,1,08/08/2022 15:58:42,94118,3,task-b5vt,NA,23526139,6895287,NA,complete,NA,62f12403d285603d3c8c1d36,computer,Desktop or Laptop,Windows 10,Chrome 104.0.0.0,1920x1080,1920x961,NA,ITT Ratings,2,against,1,NA,NA,NA,NA,NA,NA,NA,NA,NA,ACCEPT,batch1pro,batch1pro,31,22,1,Screen 1,continueButton,response_rating_scale_likert_active,4951.200000001118,NA,NA,Strongly Disagree,1,0,1,0,NA,NA,NA,NA,1,statements,They wish for life to return to normal and the best way to achieve this is maximum uptake,1,17/06/2021 12:31,17/06/2021 12:41,IP Address,For (I feel positively about the vaccines),Rarely,A few times a year,31,Female,NA,"Undergraduate degree (BSc, BA)",choice,5,1,For,For
25,1659970726038,08/08/2022 14:58:46,1659970726823,1,08/08/2022 15:58:46,94118,3,task-b5vt,NA,23526139,6895287,NA,complete,NA,62f12403d285603d3c8c1d36,computer,Desktop or Laptop,Windows 10,Chrome 104.0.0.0,1920x1080,1920x961,NA,ITT Ratings,2,against,1,NA,NA,NA,NA,NA,NA,NA,NA,NA,ACCEPT,batch1pro,batch1pro,50,23,1,Screen 1,continueButton,response_rating_scale_likert_active,4040.2999999988824,NA,NA,Strongly Disagree,1,0,1,0,NA,NA,NA,NA,1,statements,To protect others by giving herd immunity.,1,17/06/2021 12:29,17/06/2021 12:42,IP Address,For (I feel positively about the vaccines),Most months,Most months,20,Male,NA,A levels,choice,8,2,For,For
26,1659970730740,08/08/2022 14:58:50,1659970731569,1,08/08/2022 15:58:51,94118,3,task-b5vt,NA,23526139,6895287,NA,complete,NA,62f12403d285603d3c8c1d36,computer,Desktop or Laptop,Windows 10,Chrome 104.0.0.0,1920x1080,1920x961,NA,ITT Ratings,2,against,1,NA,NA,NA,NA,NA,NA,NA,NA,NA,ACCEPT,batch1pro,batch1pro,28,24,1,Screen 1,continueButton,response_rating_scale_likert_active,4735.200000001118,NA,NA,Strongly Agree,1,0,1,0,NA,NA,NA,NA,1,statements,Do not want to be used as a government experiment - there has not been enough testing and the safety is not known.,1,17/06/2021 12:31,17/06/2021 12:41,IP Address,For (I feel positively about the vaccines),Rarely,A few times a year,31,Female,NA,"Undergraduate degree (BSc, BA)",choice,5,1,For,Against
27,1659970733479,08/08/2022 14:58:53,1659970734226,1,08/08/2022 15:58:54,94118,3,task-b5vt,NA,23526139,6895287,NA,complete,NA,62f12403d285603d3c8c1d36,computer,Desktop or Laptop,Windows 10,Chrome 104.0.0.0,1920x1080,1920x961,NA,ITT Ratings,2,against,1,NA,NA,NA,NA,NA,NA,NA,NA,NA,ACCEPT,batch1pro,batch1pro,19,25,1,Screen 1,continueButton,response_rating_scale_likert_active,2580.7000000011176,NA,NA,Strongly Disagree,1,0,1,0,NA,NA,NA,NA,1,statements,I want to have it for my own and my family’s protection,1,17/06/2021 12:29,17/06/2021 12:41,IP Address,For (I feel positively about the vaccines),Rarely,A few times a year,55,Female,NA,A levels,choice,3,1,For,For
28,1659970737674,08/08/2022 14:58:57,1659970738516,1,08/08/2022 15:58:58,94118,3,task-b5vt,NA,23526139,6895287,NA,complete,NA,62f12403d285603d3c8c1d36,computer,Desktop or Laptop,Windows 10,Chrome 104.0.0.0,1920x1080,1920x961,NA,ITT Ratings,2,against,1,NA,NA,NA,NA,NA,NA,NA,NA,NA,ACCEPT,batch1pro,batch1pro,58,26,1,Screen 1,continueButton,response_rating_scale_likert_active,4280.800000000745,NA,NA,Strongly Agree,1,0,1,0,NA,NA,NA,NA,1,statements,"Concerns about dangerous side effects, such as blood clots and neurological damage.",1,17/06/2021 13:01,17/06/2021 13:10,IP Address,For (I feel positively about the vaccines),Most months,Most weeks,35,Non-binary,NA,"Postgraduate degree (MSc, MA, MPhil)",control,10,1,For,Against
29,1659970740218,08/08/2022 14:59:00,1659970741049,1,08/08/2022 15:59:01,94118,3,task-b5vt,NA,23526139,6895287,NA,complete,NA,62f12403d285603d3c8c1d36,computer,Desktop or Laptop,Windows 10,Chrome 104.0.0.0,1920x1080,1920x961,NA,ITT Ratings,2,against,1,NA,NA,NA,NA,NA,NA,NA,NA,NA,ACCEPT,batch1pro,batch1pro,60,27,1,Screen 1,continueButton,response_rating_scale_likert_active,2523.699999999255,NA,NA,Somewhat Agree,1,0,1,0,NA,NA,NA,NA,1,statements,Concerns about fertility and the population control conspiracy.,1,17/06/2021 13:01,17/06/2021 13:10,IP Address,For (I feel positively about the vaccines),Most months,Most weeks,35,Non-binary,NA,"Postgraduate degree (MSc, MA, MPhil)",control,10,3,For,Against
30,1659970742189,08/08/2022 14:59:02,1659970743018,1,08/08/2022 15:59:03,94118,3,task-b5vt,NA,23526139,6895287,NA,complete,NA,62f12403d285603d3c8c1d36,computer,Desktop or Laptop,Windows 10,Chrome 104.0.0.0,1920x1080,1920x961,NA,ITT Ratings,2,against,1,NA,NA,NA,NA,NA,NA,NA,NA,NA,ACCEPT,batch1pro,batch1pro,7,28,1,Screen 1,continueButton,response_rating_scale_likert_active,1957.4000000003723,NA,NA,Strongly Disagree,1,0,1,0,NA,NA,NA,NA,1,statements,It's the right thing to do to protect everyone else,1,17/06/2021 12:34,17/06/2021 12:39,IP Address,For (I feel positively about the vaccines),Rarely,A few times a year,26,Female,NA,"Undergraduate degree (BSc, BA)",control,1,1,For,For
31,1659970745242,08/08/2022 14:59:05,1659970746023,1,08/08/2022 15:59:06,94118,3,task-b5vt,NA,23526139,6895287,NA,complete,NA,62f12403d285603d3c8c1d36,computer,Desktop or Laptop,Windows 10,Chrome 104.0.0.0,1920x1080,1920x961,NA,ITT Ratings,2,against,1,NA,NA,NA,NA,NA,NA,NA,NA,NA,ACCEPT,batch1pro,batch1pro,38,29,1,Screen 1,continueButton,response_rating_scale_likert_active,2993.7000000011176,NA,NA,Strongly Disagree,1,0,1,0,NA,NA,NA,NA,1,statements,"A member of my family can catch anything really easily , so I want to do this to help keep them safe",1,17/06/2021 12:16,17/06/2021 12:42,IP Address,For (I feel positively about the vaccines),Rarely,Most days,34,Male,NA,GCSEs,control,6,2,For,For
32,1659970746900,08/08/2022 14:59:06,1659970747744,1,08/08/2022 15:59:07,94118,3,task-b5vt,NA,23526139,6895287,NA,complete,NA,62f12403d285603d3c8c1d36,computer,Desktop or Laptop,Windows 10,Chrome 104.0.0.0,1920x1080,1920x961,NA,ITT Ratings,2,against,1,NA,NA,NA,NA,NA,NA,NA,NA,NA,ACCEPT,batch1pro,batch1pro,56,30,1,Screen 1,continueButton,response_rating_scale_likert_active,1709.5,NA,NA,Strongly Disagree,1,0,1,0,NA,NA,NA,NA,1,statements,The vaccines are safe enough to use,1,17/06/2021 12:36,17/06/2021 12:43,IP Address,For (I feel positively about the vaccines),Rarely,Most days,38,Male,NA,"GCSEs,Vocational Training / Apprenticeship",choice,9,2,For,For
33,1659970750646,08/08/2022 14:59:10,1659970751485,1,08/08/2022 15:59:11,94118,3,task-b5vt,NA,23526139,6895287,NA,complete,NA,62f12403d285603d3c8c1d36,computer,Desktop or Laptop,Windows 10,Chrome 104.0.0.0,1920x1080,1920x961,NA,ITT Ratings,2,against,1,NA,NA,NA,NA,NA,NA,NA,NA,NA,ACCEPT,batch1pro,batch1pro,51,31,1,Screen 1,continueButton,response_rating_scale_likert_active,3731.400000000373,NA,NA,Strongly Disagree,1,0,1,0,NA,NA,NA,NA,1,statements,To help end the negative social impact of the virus such as lockdowns and online education,1,17/06/2021 12:29,17/06/2021 12:42,IP Address,For (I feel positively about the vaccines),Most months,Most months,20,Male,NA,A levels,choice,8,3,For,For
34,1659970754185,08/08/2022 14:59:14,1659970754938,1,08/08/2022 15:59:14,94118,3,task-b5vt,NA,23526139,6895287,NA,complete,NA,62f12403d285603d3c8c1d36,computer,Desktop or Laptop,Windows 10,Chrome 104.0.0.0,1920x1080,1920x961,NA,ITT Ratings,2,against,1,NA,NA,NA,NA,NA,NA,NA,NA,NA,ACCEPT,batch1pro,batch1pro,63,32,1,Screen 1,continueButton,response_rating_scale_likert_active,3440.5,NA,NA,Strongly Disagree,1,0,1,0,NA,NA,NA,NA,1,statements,Less restrictions on behaviour due to immunity.,1,17/06/2021 13:01,17/06/2021 13:10,IP Address,For (I feel positively about the vaccines),Most months,Most weeks,35,Non-binary,NA,"Postgraduate degree (MSc, MA, MPhil)",control,10,3,For,For
35,1659970759182,08/08/2022 14:59:19,1659970760018,1,08/08/2022 15:59:20,94118,3,task-b5vt,NA,23526139,6895287,NA,complete,NA,62f12403d285603d3c8c1d36,computer,Desktop or Laptop,Windows 10,Chrome 104.0.0.0,1920x1080,1920x961,NA,ITT Ratings,2,against,1,NA,NA,NA,NA,NA,NA,NA,NA,NA,ACCEPT,batch1pro,batch1pro,10,33,1,Screen 1,continueButton,response_rating_scale_likert_active,5068.4000000003725,NA,NA,Strongly Disagree,1,0,1,0,NA,NA,NA,NA,1,statements,I am one of those idiots who thinks I will become magnetic or have trackers in me,1,17/06/2021 12:34,17/06/2021 12:40,IP Address,For (I feel positively about the vaccines),Rarely,Most weeks,26,Female,NA,"Undergraduate degree (BSc, BA)",choice,2,1,For,Against
36,1659970762380,08/08/2022 14:59:22,1659970763224,1,08/08/2022 15:59:23,94118,3,task-b5vt,NA,23526139,6895287,NA,complete,NA,62f12403d285603d3c8c1d36,computer,Desktop or Laptop,Windows 10,Chrome 104.0.0.0,1920x1080,1920x961,NA,ITT Ratings,2,against,1,NA,NA,NA,NA,NA,NA,NA,NA,NA,ACCEPT,batch1pro,batch1pro,35,34,1,Screen 1,continueButton,response_rating_scale_likert_active,3195.7999999988824,NA,NA,Strongly Disagree,1,0,1,0,NA,NA,NA,NA,1,statements,Someone has told me there experience is bad which has now put me of the idear,1,17/06/2021 12:16,17/06/2021 12:42,IP Address,For (I feel positively about the vaccines),Rarely,Most days,34,Male,NA,GCSEs,control,6,2,For,Against
37,1659970765965,08/08/2022 14:59:25,1659970766762,1,08/08/2022 15:59:26,94118,3,task-b5vt,NA,23526139,6895287,NA,complete,NA,62f12403d285603d3c8c1d36,computer,Desktop or Laptop,Windows 10,Chrome 104.0.0.0,1920x1080,1920x961,NA,ITT Ratings,2,against,1,NA,NA,NA,NA,NA,NA,NA,NA,NA,ACCEPT,batch1pro,batch1pro,8,35,1,Screen 1,continueButton,response_rating_scale_likert_active,3528.699999999255,NA,NA,Strongly Disagree,1,0,1,0,NA,NA,NA,NA,1,statements,I want to protect my family and be able to see them again,1,17/06/2021 12:34,17/06/2021 12:39,IP Address,For (I feel positively about the vaccines),Rarely,A few times a year,26,Female,NA,"Undergraduate degree (BSc, BA)",control,1,2,For,For
38,1659970768985,08/08/2022 14:59:28,1659970769711,1,08/08/2022 15:59:29,94118,3,task-b5vt,NA,23526139,6895287,NA,complete,NA,62f12403d285603d3c8c1d36,computer,Desktop or Laptop,Windows 10,Chrome 104.0.0.0,1920x1080,1920x961,NA,ITT Ratings,2,against,1,NA,NA,NA,NA,NA,NA,NA,NA,NA,ACCEPT,batch1pro,batch1pro,62,36,1,Screen 1,continueButton,response_rating_scale_likert_active,2938.5999999996275,NA,NA,Strongly Disagree,1,0,1,0,NA,NA,NA,NA,1,statements,Reduced risk of passing on COVID.,1,17/06/2021 13:01,17/06/2021 13:10,IP Address,For (I feel positively about the vaccines),Most months,Most weeks,35,Non-binary,NA,"Postgraduate degree (MSc, MA, MPhil)",control,10,2,For,For
39,1659970770645,08/08/2022 14:59:30,1659970771432,1,08/08/2022 15:59:31,94118,3,task-b5vt,NA,23526139,6895287,NA,complete,NA,62f12403d285603d3c8c1d36,computer,Desktop or Laptop,Windows 10,Chrome 104.0.0.0,1920x1080,1920x961,NA,ITT Ratings,2,against,1,NA,NA,NA,NA,NA,NA,NA,NA,NA,ACCEPT,batch1pro,batch1pro,57,37,1,Screen 1,continueButton,response_rating_scale_likert_active,1710.5999999996277,NA,NA,Strongly Disagree,1,0,1,0,NA,NA,NA,NA,1,statements,Being vaccinated is reassuring,1,17/06/2021 12:36,17/06/2021 12:43,IP Address,For (I feel positively about the vaccines),Rarely,Most days,38,Male,NA,"GCSEs,Vocational Training / Apprenticeship",choice,9,3,For,For
40,1659970774449,08/08/2022 14:59:34,1659970775229,1,08/08/2022 15:59:35,94118,3,task-b5vt,NA,23526139,6895287,NA,complete,NA,62f12403d285603d3c8c1d36,computer,Desktop or Laptop,Windows 10,Chrome 104.0.0.0,1920x1080,1920x961,NA,ITT Ratings,2,against,1,NA,NA,NA,NA,NA,NA,NA,NA,NA,ACCEPT,batch1pro,batch1pro,36,38,1,Screen 1,continueButton,response_rating_scale_likert_active,3785.5,NA,NA,Somewhat Agree,1,0,1,0,NA,NA,NA,NA,1,statements,I am scared and I don't believe that the Vaccine will help me,1,17/06/2021 12:16,17/06/2021 12:42,IP Address,For (I feel positively about the vaccines),Rarely,Most days,34,Male,NA,GCSEs,control,6,3,For,Against
41,1659970777432,08/08/2022 14:59:37,1659970778253,1,08/08/2022 15:59:38,94118,3,task-b5vt,NA,23526139,6895287,NA,complete,NA,62f12403d285603d3c8c1d36,computer,Desktop or Laptop,Windows 10,Chrome 104.0.0.0,1920x1080,1920x961,NA,ITT Ratings,2,against,1,NA,NA,NA,NA,NA,NA,NA,NA,NA,ACCEPT,batch1pro,batch1pro,45,39,1,Screen 1,continueButton,response_rating_scale_likert_active,3015.800000000745,NA,NA,Strongly Disagree,1,0,1,0,NA,NA,NA,NA,1,statements,The risk of dying from covid reduces with a vaccine.,1,17/06/2021 12:35,17/06/2021 12:42,IP Address,For (I feel positively about the vaccines),Once or twice a year,A few times a year,20,Female,NA,"GCSEs,A levels",control,7,3,For,For
42,1659970779553,08/08/2022 14:59:39,1659970780385,1,08/08/2022 15:59:40,94118,3,task-b5vt,NA,23526139,6895287,NA,complete,NA,62f12403d285603d3c8c1d36,computer,Desktop or Laptop,Windows 10,Chrome 104.0.0.0,1920x1080,1920x961,NA,ITT Ratings,2,against,1,NA,NA,NA,NA,NA,NA,NA,NA,NA,ACCEPT,batch1pro,batch1pro,61,40,1,Screen 1,continueButton,response_rating_scale_likert_active,2121.699999999255,NA,NA,Strongly Disagree,1,0,1,0,NA,NA,NA,NA,1,statements,Reduced risk of getting COVID.,1,17/06/2021 13:01,17/06/2021 13:10,IP Address,For (I feel positively about the vaccines),Most months,Most weeks,35,Non-binary,NA,"Postgraduate degree (MSc, MA, MPhil)",control,10,1,For,For
43,1659970782117,08/08/2022 14:59:42,1659970782959,1,08/08/2022 15:59:42,94118,3,task-b5vt,NA,23526139,6895287,NA,complete,NA,62f12403d285603d3c8c1d36,computer,Desktop or Laptop,Windows 10,Chrome 104.0.0.0,1920x1080,1920x961,NA,ITT Ratings,2,against,1,NA,NA,NA,NA,NA,NA,NA,NA,NA,ACCEPT,batch1pro,batch1pro,52,41,1,Screen 1,continueButton,response_rating_scale_likert_active,2565,NA,NA,Somewhat Agree,1,0,1,0,NA,NA,NA,NA,1,statements,The covid 19 vaccines are a conspiracy,1,17/06/2021 12:36,17/06/2021 12:43,IP Address,For (I feel positively about the vaccines),Rarely,Most days,38,Male,NA,"GCSEs,Vocational Training / Apprenticeship",choice,9,1,For,Against
44,1659970783874,08/08/2022 14:59:43,1659970784718,1,08/08/2022 15:59:44,94118,3,task-b5vt,NA,23526139,6895287,NA,complete,NA,62f12403d285603d3c8c1d36,computer,Desktop or Laptop,Windows 10,Chrome 104.0.0.0,1920x1080,1920x961,NA,ITT Ratings,2,against,1,NA,NA,NA,NA,NA,NA,NA,NA,NA,ACCEPT,batch1pro,batch1pro,21,42,1,Screen 1,continueButton,response_rating_scale_likert_active,1746.7999999988824,NA,NA,Strongly Disagree,1,0,1,0,NA,NA,NA,NA,1,statements,I want to help in defeating this virus,1,17/06/2021 12:29,17/06/2021 12:41,IP Address,For (I feel positively about the vaccines),Rarely,A few times a year,55,Female,NA,A levels,choice,3,3,For,For
45,1659970789327,08/08/2022 14:59:49,1659970790107,1,08/08/2022 15:59:50,94118,3,task-b5vt,NA,23526139,6895287,NA,complete,NA,62f12403d285603d3c8c1d36,computer,Desktop or Laptop,Windows 10,Chrome 104.0.0.0,1920x1080,1920x961,NA,ITT Ratings,2,against,1,NA,NA,NA,NA,NA,NA,NA,NA,NA,ACCEPT,batch1pro,batch1pro,59,43,1,Screen 1,continueButton,response_rating_scale_likert_active,5378.9000000003725,NA,NA,Agree,1,0,1,0,NA,NA,NA,NA,1,statements,Concerns about the truthfulness of the pandemic and the true motivations behind mass vaccination.,1,17/06/2021 13:01,17/06/2021 13:10,IP Address,For (I feel positively about the vaccines),Most months,Most weeks,35,Non-binary,NA,"Postgraduate degree (MSc, MA, MPhil)",control,10,2,For,Against
46,1659970791625,08/08/2022 14:59:51,1659970792466,1,08/08/2022 15:59:52,94118,3,task-b5vt,NA,23526139,6895287,NA,complete,NA,62f12403d285603d3c8c1d36,computer,Desktop or Laptop,Windows 10,Chrome 104.0.0.0,1920x1080,1920x961,NA,ITT Ratings,2,against,1,NA,NA,NA,NA,NA,NA,NA,NA,NA,ACCEPT,batch1pro,batch1pro,17,44,1,Screen 1,continueButton,response_rating_scale_likert_active,2349.199999999255,NA,NA,Strongly Agree,1,0,1,0,NA,NA,NA,NA,1,statements,Future side effects are unknown,1,17/06/2021 12:29,17/06/2021 12:41,IP Address,For (I feel positively about the vaccines),Rarely,A few times a year,55,Female,NA,A levels,choice,3,2,For,Against
47,1659970795008,08/08/2022 14:59:55,1659970795840,1,08/08/2022 15:59:55,94118,3,task-b5vt,NA,23526139,6895287,NA,complete,NA,62f12403d285603d3c8c1d36,computer,Desktop or Laptop,Windows 10,Chrome 104.0.0.0,1920x1080,1920x961,NA,ITT Ratings,2,against,1,NA,NA,NA,NA,NA,NA,NA,NA,NA,ACCEPT,batch1pro,batch1pro,2,45,1,Screen 1,continueButton,response_rating_scale_likert_active,3363.199999999255,NA,NA,Somewhat Agree,1,0,1,0,NA,NA,NA,NA,1,statements,We would like to check you are reading each argument carefully. Please select 'Somewhat Agree' for this answer,1,NA,NA,NA,NA,NA,NA,NA,NA,NA,NA,NA,NA,check1,NA,NA
48,1659970799033,08/08/2022 14:59:59,1659970799801,1,08/08/2022 15:59:59,94118,3,task-b5vt,NA,23526139,6895287,NA,complete,NA,62f12403d285603d3c8c1d36,computer,Desktop or Laptop,Windows 10,Chrome 104.0.0.0,1920x1080,1920x961,NA,ITT Ratings,2,against,1,NA,NA,NA,NA,NA,NA,NA,NA,NA,ACCEPT,batch1pro,batch1pro,24,46,1,Screen 1,continueButton,response_rating_scale_likert_active,3950.89999999851,NA,NA,Somewhat Agree,1,0,1,0,NA,NA,NA,NA,1,statements,There are too many on the market at the moment,1,17/06/2021 12:33,17/06/2021 12:41,IP Address,For (I feel positively about the vaccines),Most months,Most months,20,Female,NA,"Undergraduate degree (BSc, BA),Postgraduate degree (MSc, MA, MPhil)",control,4,3,For,Against
49,1659970807302,08/08/2022 15:00:07,1659970808144,1,08/08/2022 16:00:08,94118,3,task-b5vt,NA,23526139,6895287,NA,complete,NA,62f12403d285603d3c8c1d36,computer,Desktop or Laptop,Windows 10,Chrome 104.0.0.0,1920x1080,1920x961,NA,ITT Ratings,2,against,1,NA,NA,NA,NA,NA,NA,NA,NA,NA,ACCEPT,batch1pro,batch1pro,29,47,1,Screen 1,continueButton,response_rating_scale_likert_active,8331.799999998882,NA,NA,Strongly Agree,1,0,1,0,NA,NA,NA,NA,1,statements,"The outcomes of the virus are not significant for that person, therefore the risk of the vaccine is greater than the risk of covid 19 side effects",1,17/06/2021 12:31,17/06/2021 12:41,IP Address,For (I feel positively about the vaccines),Rarely,A few times a year,31,Female,NA,"Undergraduate degree (BSc, BA)",choice,5,2,For,Against
50,1659970809837,08/08/2022 15:00:09,1659970810671,1,08/08/2022 16:00:10,94118,3,task-b5vt,NA,23526139,6895287,NA,complete,NA,62f12403d285603d3c8c1d36,computer,Desktop or Laptop,Windows 10,Chrome 104.0.0.0,1920x1080,1920x961,NA,ITT Ratings,2,against,1,NA,NA,NA,NA,NA,NA,NA,NA,NA,ACCEPT,batch1pro,batch1pro,41,48,1,Screen 1,continueButton,response_rating_scale_likert_active,2515.4000000003725,NA,NA,Strongly Disagree,1,0,1,0,NA,NA,NA,NA,1,statements,The vaccines contain trackers that allow the government to control us.,1,17/06/2021 12:35,17/06/2021 12:42,IP Address,For (I feel positively about the vaccines),Once or twice a year,A few times a year,20,Female,NA,"GCSEs,A levels",control,7,2,For,Against
51,1659970811950,08/08/2022 15:00:11,1659970812788,1,08/08/2022 16:00:12,94118,3,task-b5vt,NA,23526139,6895287,NA,complete,NA,62f12403d285603d3c8c1d36,computer,Desktop or Laptop,Windows 10,Chrome 104.0.0.0,1920x1080,1920x961,NA,ITT Ratings,2,against,1,NA,NA,NA,NA,NA,NA,NA,NA,NA,ACCEPT,batch1pro,batch1pro,46,49,1,Screen 1,continueButton,response_rating_scale_likert_active,2106.300000000745,NA,NA,Strongly Disagree,1,0,1,0,NA,NA,NA,NA,1,statements,The government is trying to microchip me,1,17/06/2021 12:29,17/06/2021 12:42,IP Address,For (I feel positively about the vaccines),Most months,Most months,20,Male,NA,A levels,choice,8,1,For,Against
52,1659970817175,08/08/2022 15:00:17,1659970818014,1,08/08/2022 16:00:18,94118,3,task-b5vt,NA,23526139,6895287,NA,complete,NA,62f12403d285603d3c8c1d36,computer,Desktop or Laptop,Windows 10,Chrome 104.0.0.0,1920x1080,1920x961,NA,ITT Ratings,2,against,1,NA,NA,NA,NA,NA,NA,NA,NA,NA,ACCEPT,batch1pro,batch1pro,6,50,1,Screen 1,continueButton,response_rating_scale_likert_active,5213.4000000003725,NA,NA,Somewhat Agree,1,0,1,0,NA,NA,NA,NA,1,statements,I'm a healthy young adult and I'd rather they give my dose to someone else who is more vulnerable,1,17/06/2021 12:34,17/06/2021 12:39,IP Address,For (I feel positively about the vaccines),Rarely,A few times a year,26,Female,NA,"Undergraduate degree (BSc, BA)",control,1,3,For,Against
53,1659970822346,08/08/2022 15:00:22,1659970823128,1,08/08/2022 16:00:23,94118,3,task-b5vt,NA,23526139,6895287,NA,complete,NA,62f12403d285603d3c8c1d36,computer,Desktop or Laptop,Windows 10,Chrome 104.0.0.0,1920x1080,1920x961,NA,ITT Ratings,2,against,1,NA,NA,NA,NA,NA,NA,NA,NA,NA,ACCEPT,batch1pro,batch1pro,22,51,1,Screen 1,continueButton,response_rating_scale_likert_active,5103.5999999996275,NA,NA,Strongly Agree,1,0,1,0,NA,NA,NA,NA,1,statements,It's not qualified or tested enough,1,17/06/2021 12:33,17/06/2021 12:41,IP Address,For (I feel positively about the vaccines),Most months,Most months,20,Female,NA,"Undergraduate degree (BSc, BA),Postgraduate degree (MSc, MA, MPhil)",control,4,1,For,Against
54,1659970824025,08/08/2022 15:00:24,1659970824865,1,08/08/2022 16:00:24,94118,3,task-b5vt,NA,23526139,6895287,NA,complete,NA,62f12403d285603d3c8c1d36,computer,Desktop or Laptop,Windows 10,Chrome 104.0.0.0,1920x1080,1920x961,NA,ITT Ratings,2,against,1,NA,NA,NA,NA,NA,NA,NA,NA,NA,ACCEPT,batch1pro,batch1pro,27,52,1,Screen 1,continueButton,response_rating_scale_likert_active,1725.4000000003723,NA,NA,Strongly Disagree,1,0,1,0,NA,NA,NA,NA,1,statements,Doctors are trying to help,1,17/06/2021 12:33,17/06/2021 12:41,IP Address,For (I feel positively about the vaccines),Most months,Most months,20,Female,NA,"Undergraduate degree (BSc, BA),Postgraduate degree (MSc, MA, MPhil)",control,4,3,For,For
55,1659970833957,08/08/2022 15:00:33,1659970834725,1,08/08/2022 16:00:34,94118,3,task-b5vt,NA,23526139,6895287,NA,complete,NA,62f12403d285603d3c8c1d36,computer,Desktop or Laptop,Windows 10,Chrome 104.0.0.0,1920x1080,1920x961,NA,ITT Ratings,2,against,1,NA,NA,NA,NA,NA,NA,NA,NA,NA,ACCEPT,batch1pro,batch1pro,30,53,1,Screen 1,continueButton,response_rating_scale_likert_active,9848.900000000373,NA,NA,Strongly Agree,1,0,1,0,NA,NA,NA,NA,1,statements,The risks of side effects to su h as blood clots with vaccines are too high.,1,17/06/2021 12:31,17/06/2021 12:41,IP Address,For (I feel positively about the vaccines),Rarely,A few times a year,31,Female,NA,"Undergraduate degree (BSc, BA)",choice,5,3,For,Against
56,1659970836500,08/08/2022 15:00:36,1659970837329,1,08/08/2022 16:00:37,94118,3,task-b5vt,NA,23526139,6895287,NA,complete,NA,62f12403d285603d3c8c1d36,computer,Desktop or Laptop,Windows 10,Chrome 104.0.0.0,1920x1080,1920x961,NA,ITT Ratings,2,against,1,NA,NA,NA,NA,NA,NA,NA,NA,NA,ACCEPT,batch1pro,batch1pro,47,54,1,Screen 1,continueButton,response_rating_scale_likert_active,2592.699999999255,NA,NA,Strongly Agree,1,0,1,0,NA,NA,NA,NA,1,statements,there are negative side effects,1,17/06/2021 12:29,17/06/2021 12:42,IP Address,For (I feel positively about the vaccines),Most months,Most months,20,Male,NA,A levels,choice,8,2,For,Against
57,1659970840239,08/08/2022 15:00:40,1659970841070,1,08/08/2022 16:00:41,94118,3,task-b5vt,NA,23526139,6895287,NA,complete,NA,62f12403d285603d3c8c1d36,computer,Desktop or Laptop,Windows 10,Chrome 104.0.0.0,1920x1080,1920x961,NA,ITT Ratings,2,against,1,NA,NA,NA,NA,NA,NA,NA,NA,NA,ACCEPT,batch1pro,batch1pro,33,55,1,Screen 1,continueButton,response_rating_scale_likert_active,3714.199999999255,NA,NA,Strongly Disagree,1,0,1,0,NA,NA,NA,NA,1,statements,More vaccinations will hopefully mean less admissions and deaths and less pressure on the nhs,1,17/06/2021 12:31,17/06/2021 12:41,IP Address,For (I feel positively about the vaccines),Rarely,A few times a year,31,Female,NA,"Undergraduate degree (BSc, BA)",choice,5,3,For,For
58,1659970845386,08/08/2022 15:00:45,1659970846169,1,08/08/2022 16:00:46,94118,3,task-b5vt,NA,23526139,6895287,NA,complete,NA,62f12403d285603d3c8c1d36,computer,Desktop or Laptop,Windows 10,Chrome 104.0.0.0,1920x1080,1920x961,NA,ITT Ratings,2,against,1,NA,NA,NA,NA,NA,NA,NA,NA,NA,ACCEPT,batch1pro,batch1pro,5,56,1,Screen 1,continueButton,response_rating_scale_likert_active,5087.5999999996275,NA,NA,Strongly Agree,1,0,1,0,NA,NA,NA,NA,1,statements,I don't want any of the side effects on me or my family,1,17/06/2021 12:34,17/06/2021 12:39,IP Address,For (I feel positively about the vaccines),Rarely,A few times a year,26,Female,NA,"Undergraduate degree (BSc, BA)",control,1,2,For,Against
59,1659970850091,08/08/2022 15:00:50,1659970850922,1,08/08/2022 16:00:50,94118,3,task-b5vt,NA,23526139,6895287,NA,complete,NA,62f12403d285603d3c8c1d36,computer,Desktop or Laptop,Windows 10,Chrome 104.0.0.0,1920x1080,1920x961,NA,ITT Ratings,2,against,1,NA,NA,NA,NA,NA,NA,NA,NA,NA,ACCEPT,batch1pro,batch1pro,26,57,1,Screen 1,continueButton,response_rating_scale_likert_active,4734.5999999996275,NA,NA,Somewhat Agree,1,0,1,0,NA,NA,NA,NA,1,statements,Many people have got it and have survived,1,17/06/2021 12:33,17/06/2021 12:41,IP Address,For (I feel positively about the vaccines),Most months,Most months,20,Female,NA,"Undergraduate degree (BSc, BA),Postgraduate degree (MSc, MA, MPhil)",control,4,2,For,For
60,1659970852647,08/08/2022 15:00:52,1659970853484,1,08/08/2022 16:00:53,94118,3,task-b5vt,NA,23526139,6895287,NA,complete,NA,62f12403d285603d3c8c1d36,computer,Desktop or Laptop,Windows 10,Chrome 104.0.0.0,1920x1080,1920x961,NA,ITT Ratings,2,against,1,NA,NA,NA,NA,NA,NA,NA,NA,NA,ACCEPT,batch1pro,batch1pro,18,58,1,Screen 1,continueButton,response_rating_scale_likert_active,2550.10000000149,NA,NA,Strongly Disagree,1,0,1,0,NA,NA,NA,NA,1,statements,Unless everyone has it then what is the point,1,17/06/2021 12:29,17/06/2021 12:41,IP Address,For (I feel positively about the vaccines),Rarely,A few times a year,55,Female,NA,A levels,choice,3,3,For,Against
61,1659970855852,08/08/2022 15:00:55,1659970856648,1,08/08/2022 16:00:56,94118,3,task-b5vt,NA,23526139,6895287,NA,complete,NA,62f12403d285603d3c8c1d36,computer,Desktop or Laptop,Windows 10,Chrome 104.0.0.0,1920x1080,1920x961,NA,ITT Ratings,2,against,1,NA,NA,NA,NA,NA,NA,NA,NA,NA,ACCEPT,batch1pro,batch1pro,15,59,1,Screen 1,continueButton,response_rating_scale_likert_active,3151.800000000745,NA,NA,Strongly Disagree,1,0,1,0,NA,NA,NA,NA,1,statements,"Vaccines are important, they help us all live safely and healthily",1,17/06/2021 12:34,17/06/2021 12:40,IP Address,For (I feel positively about the vaccines),Rarely,Most weeks,26,Female,NA,"Undergraduate degree (BSc, BA)",choice,2,3,For,For
62,1659970858421,08/08/2022 15:00:58,1659970859243,1,08/08/2022 16:00:59,94118,3,task-b5vt,NA,23526139,6895287,NA,complete,NA,62f12403d285603d3c8c1d36,computer,Desktop or Laptop,Windows 10,Chrome 104.0.0.0,1920x1080,1920x961,NA,ITT Ratings,2,against,1,NA,NA,NA,NA,NA,NA,NA,NA,NA,ACCEPT,batch1pro,batch1pro,4,60,1,Screen 1,continueButton,response_rating_scale_likert_active,2580.0999999996275,NA,NA,Strongly Agree,1,0,1,0,NA,NA,NA,NA,1,statements,"It was developed too quickly, I think they should have taken more time on it",1,17/06/2021 12:34,17/06/2021 12:39,IP Address,For (I feel positively about the vaccines),Rarely,A few times a year,26,Female,NA,"Undergraduate degree (BSc, BA)",control,1,1,For,Against
63,1659970862030,08/08/2022 15:01:02,1659970862860,1,08/08/2022 16:01:02,94118,3,task-b5vt,NA,23526139,6895287,NA,complete,NA,62f12403d285603d3c8c1d36,computer,Desktop or Laptop,Windows 10,Chrome 104.0.0.0,1920x1080,1920x961,NA,ITT Ratings,2,against,1,NA,NA,NA,NA,NA,NA,NA,NA,NA,ACCEPT,batch1pro,batch1pro,37,61,1,Screen 1,continueButton,response_rating_scale_likert_active,3609.5,NA,NA,Strongly Disagree,1,0,1,0,NA,NA,NA,NA,1,statements,I am scared and if this vaccine will help then I'll do it,1,17/06/2021 12:16,17/06/2021 12:42,IP Address,For (I feel positively about the vaccines),Rarely,Most days,34,Male,NA,GCSEs,control,6,1,For,For
64,1659970863791,08/08/2022 15:01:03,1659970864582,1,08/08/2022 16:01:04,94118,3,task-b5vt,NA,23526139,6895287,NA,complete,NA,62f12403d285603d3c8c1d36,computer,Desktop or Laptop,Windows 10,Chrome 104.0.0.0,1920x1080,1920x961,NA,ITT Ratings,2,against,1,NA,NA,NA,NA,NA,NA,NA,NA,NA,ACCEPT,batch1pro,batch1pro,54,62,1,Screen 1,continueButton,response_rating_scale_likert_active,1710.5999999996277,NA,NA,Strongly Agree,1,0,1,0,NA,NA,NA,NA,1,statements,The vaccines don't work and will not be affective,1,17/06/2021 12:36,17/06/2021 12:43,IP Address,For (I feel positively about the vaccines),Rarely,Most days,38,Male,NA,"GCSEs,Vocational Training / Apprenticeship",choice,9,3,For,Against
65,1659970863846,08/08/2022 15:01:03,1659970864591,1,08/08/2022 16:01:04,94118,3,task-b5vt,NA,23526139,6895287,NA,complete,NA,62f12403d285603d3c8c1d36,computer,Desktop or Laptop,Windows 10,Chrome 104.0.0.0,1920x1080,1920x961,NA,ITT Ratings,2,against,1,NA,NA,NA,NA,NA,NA,NA,NA,NA,ACCEPT,batch1pro,NA,NA,END TASK,NA,NA,NA,NA,234777,NA,NA,NA,NA,0,1,0,NA,NA,NA,NA,NA,NA,NA,NA,NA,NA,NA,NA,NA,NA,NA,NA,NA,NA,NA,NA,NA,NA,NA
1,1659970637342,08/08/2022 14:57:17,1659970638339,1,08/08/2022 15:57:18,94118,3,task-b5vt,NA,23526142,6895290,NA,complete,NA,62f124068481caea3ae9c298,computer,Desktop or Laptop,Windows 10,Chrome 103.0.0.0,1536x864,1536x722,NA,ITT Ratings,2,against,1,NA,NA,NA,NA,NA,NA,NA,NA,NA,ACCEPT,batch1pro,NA,NA,BEGIN TASK,NA,NA,NA,NA,NA,NA,NA,NA,NA,0,1,0,NA,NA,NA,NA,NA,NA,NA,NA,NA,NA,NA,NA,NA,NA,NA,NA,NA,NA,NA,NA,NA,NA,NA
2,1659970646457,08/08/2022 14:57:26,1659970647412,1,08/08/2022 15:57:27,94118,3,task-b5vt,NA,23526142,6895290,NA,complete,NA,62f124068481caea3ae9c298,computer,Desktop or Laptop,Windows 10,Chrome 103.0.0.0,1536x864,1519x722,NA,ITT Ratings,2,against,1,NA,NA,NA,NA,NA,NA,NA,NA,NA,ACCEPT,batch1pro,batch1pro,1,1,1,Screen 1,advancementZone,continue_button,8856.800000190735,NA,NA,NA,NA,0,1,0,NA,NA,NA,NA,NA,instructions,NA,NA,NA,NA,NA,NA,NA,NA,NA,NA,NA,NA,NA,NA,NA,NA,NA
3,1659970656458,08/08/2022 14:57:36,1659970657430,1,08/08/2022 15:57:37,94118,3,task-b5vt,NA,23526142,6895290,NA,complete,NA,62f124068481caea3ae9c298,computer,Desktop or Laptop,Windows 10,Chrome 103.0.0.0,1536x864,1519x722,NA,ITT Ratings,2,against,1,NA,NA,NA,NA,NA,NA,NA,NA,NA,ACCEPT,batch1pro,batch1pro,8,1,1,Screen 1,continueButton,response_rating_scale_likert_active,9862.099999904633,NA,NA,Disagree,1,0,1,0,NA,NA,NA,NA,1,statements,I want to protect my family and be able to see them again,1,17/06/2021 12:34,17/06/2021 12:39,IP Address,For (I feel positively about the vaccines),Rarely,A few times a year,26,Female,NA,"Undergraduate degree (BSc, BA)",control,1,2,For,For
4,1659970660922,08/08/2022 14:57:40,1659970661889,1,08/08/2022 15:57:41,94118,3,task-b5vt,NA,23526142,6895290,NA,complete,NA,62f124068481caea3ae9c298,computer,Desktop or Laptop,Windows 10,Chrome 103.0.0.0,1536x864,1519x722,NA,ITT Ratings,2,against,1,NA,NA,NA,NA,NA,NA,NA,NA,NA,ACCEPT,batch1pro,batch1pro,13,2,1,Screen 1,continueButton,response_rating_scale_likert_active,4346.699999809265,NA,NA,Neither Agree nor Disagree,1,0,1,0,NA,NA,NA,NA,1,statements,It's important to protect the people you love who are a higher risk than you,1,17/06/2021 12:34,17/06/2021 12:40,IP Address,For (I feel positively about the vaccines),Rarely,Most weeks,26,Female,NA,"Undergraduate degree (BSc, BA)",choice,2,1,For,For
5,1659970663958,08/08/2022 14:57:43,1659970664944,1,08/08/2022 15:57:44,94118,3,task-b5vt,NA,23526142,6895290,NA,complete,NA,62f124068481caea3ae9c298,computer,Desktop or Laptop,Windows 10,Chrome 103.0.0.0,1536x864,1519x722,NA,ITT Ratings,2,against,1,NA,NA,NA,NA,NA,NA,NA,NA,NA,ACCEPT,batch1pro,batch1pro,44,3,1,Screen 1,continueButton,response_rating_scale_likert_active,2989.2999997138977,NA,NA,Disagree,1,0,1,0,NA,NA,NA,NA,1,statements,It will help to protect the most vulnerable groups in our society.,1,17/06/2021 12:35,17/06/2021 12:42,IP Address,For (I feel positively about the vaccines),Once or twice a year,A few times a year,20,Female,NA,"GCSEs,A levels",control,7,2,For,For
6,1659970670723,08/08/2022 14:57:50,1659970671785,1,08/08/2022 15:57:51,94118,3,task-b5vt,NA,23526142,6895290,NA,complete,NA,62f124068481caea3ae9c298,computer,Desktop or Laptop,Windows 10,Chrome 103.0.0.0,1536x864,1519x722,NA,ITT Ratings,2,against,1,NA,NA,NA,NA,NA,NA,NA,NA,NA,ACCEPT,batch1pro,batch1pro,36,4,1,Screen 1,continueButton,response_rating_scale_likert_active,6800.200000286102,NA,NA,Disagree,1,0,1,0,NA,NA,NA,NA,1,statements,I am scared and I don't believe that the Vaccine will help me,1,17/06/2021 12:16,17/06/2021 12:42,IP Address,For (I feel positively about the vaccines),Rarely,Most days,34,Male,NA,GCSEs,control,6,3,For,Against
7,1659970673349,08/08/2022 14:57:53,1659970674383,1,08/08/2022 15:57:54,94118,3,task-b5vt,NA,23526142,6895290,NA,complete,NA,62f124068481caea3ae9c298,computer,Desktop or Laptop,Windows 10,Chrome 103.0.0.0,1536x864,1519x722,NA,ITT Ratings,2,against,1,NA,NA,NA,NA,NA,NA,NA,NA,NA,ACCEPT,batch1pro,batch1pro,57,5,1,Screen 1,continueButton,response_rating_scale_likert_active,2554.400000095367,NA,NA,Disagree,1,0,1,0,NA,NA,NA,NA,1,statements,Being vaccinated is reassuring,1,17/06/2021 12:36,17/06/2021 12:43,IP Address,For (I feel positively about the vaccines),Rarely,Most days,38,Male,NA,"GCSEs,Vocational Training / Apprenticeship",choice,9,3,For,For
8,1659970676556,08/08/2022 14:57:56,1659970677489,1,08/08/2022 15:57:57,94118,3,task-b5vt,NA,23526142,6895290,NA,complete,NA,62f124068481caea3ae9c298,computer,Desktop or Laptop,Windows 10,Chrome 103.0.0.0,1536x864,1519x722,NA,ITT Ratings,2,against,1,NA,NA,NA,NA,NA,NA,NA,NA,NA,ACCEPT,batch1pro,batch1pro,37,6,1,Screen 1,continueButton,response_rating_scale_likert_active,3042.900000095367,NA,NA,Strongly Disagree,1,0,1,0,NA,NA,NA,NA,1,statements,I am scared and if this vaccine will help then I'll do it,1,17/06/2021 12:16,17/06/2021 12:42,IP Address,For (I feel positively about the vaccines),Rarely,Most days,34,Male,NA,GCSEs,control,6,1,For,For
9,1659970681790,08/08/2022 14:58:01,1659970682835,1,08/08/2022 15:58:02,94118,3,task-b5vt,NA,23526142,6895290,NA,complete,NA,62f124068481caea3ae9c298,computer,Desktop or Laptop,Windows 10,Chrome 103.0.0.0,1536x864,1519x722,NA,ITT Ratings,2,against,1,NA,NA,NA,NA,NA,NA,NA,NA,NA,ACCEPT,batch1pro,batch1pro,12,7,1,Screen 1,continueButton,response_rating_scale_likert_active,5279.39999961853,NA,NA,Neither Agree nor Disagree,1,0,1,0,NA,NA,NA,NA,1,statements,I think that the vaccine is fake,1,17/06/2021 12:34,17/06/2021 12:40,IP Address,For (I feel positively about the vaccines),Rarely,Most weeks,26,Female,NA,"Undergraduate degree (BSc, BA)",choice,2,3,For,Against
10,1659970694062,08/08/2022 14:58:14,1659970694965,1,08/08/2022 15:58:14,94118,3,task-b5vt,NA,23526142,6895290,NA,complete,NA,62f124068481caea3ae9c298,computer,Desktop or Laptop,Windows 10,Chrome 103.0.0.0,1536x864,1519x722,NA,ITT Ratings,2,against,1,NA,NA,NA,NA,NA,NA,NA,NA,NA,ACCEPT,batch1pro,batch1pro,31,8,1,Screen 1,continueButton,response_rating_scale_likert_active,12084.199999809263,NA,NA,Neither Agree nor Disagree,1,0,1,0,NA,NA,NA,NA,1,statements,They wish for life to return to normal and the best way to achieve this is maximum uptake,1,17/06/2021 12:31,17/06/2021 12:41,IP Address,For (I feel positively about the vaccines),Rarely,A few times a year,31,Female,NA,"Undergraduate degree (BSc, BA)",choice,5,1,For,For
11,1659970698993,08/08/2022 14:58:18,1659970700050,1,08/08/2022 15:58:20,94118,3,task-b5vt,NA,23526142,6895290,NA,complete,NA,62f124068481caea3ae9c298,computer,Desktop or Laptop,Windows 10,Chrome 103.0.0.0,1536x864,1519x722,NA,ITT Ratings,2,against,1,NA,NA,NA,NA,NA,NA,NA,NA,NA,ACCEPT,batch1pro,batch1pro,40,9,1,Screen 1,continueButton,response_rating_scale_likert_active,5029.800000190735,NA,NA,Agree,1,0,1,0,NA,NA,NA,NA,1,statements,They believe we have not had enough time to develop an effective vaccine.,1,17/06/2021 12:35,17/06/2021 12:42,IP Address,For (I feel positively about the vaccines),Once or twice a year,A few times a year,20,Female,NA,"GCSEs,A levels",control,7,1,For,Against
12,1659970702702,08/08/2022 14:58:22,1659970703749,1,08/08/2022 15:58:23,94118,3,task-b5vt,NA,23526142,6895290,NA,complete,NA,62f124068481caea3ae9c298,computer,Desktop or Laptop,Windows 10,Chrome 103.0.0.0,1536x864,1519x722,NA,ITT Ratings,2,against,1,NA,NA,NA,NA,NA,NA,NA,NA,NA,ACCEPT,batch1pro,batch1pro,60,10,1,Screen 1,continueButton,response_rating_scale_likert_active,3643.400000095367,NA,NA,Neither Agree nor Disagree,1,0,1,0,NA,NA,NA,NA,1,statements,Concerns about fertility and the population control conspiracy.,1,17/06/2021 13:01,17/06/2021 13:10,IP Address,For (I feel positively about the vaccines),Most months,Most weeks,35,Non-binary,NA,"Postgraduate degree (MSc, MA, MPhil)",control,10,3,For,Against
13,1659970706270,08/08/2022 14:58:26,1659970707249,1,08/08/2022 15:58:27,94118,3,task-b5vt,NA,23526142,6895290,NA,complete,NA,62f124068481caea3ae9c298,computer,Desktop or Laptop,Windows 10,Chrome 103.0.0.0,1536x864,1519x722,NA,ITT Ratings,2,against,1,NA,NA,NA,NA,NA,NA,NA,NA,NA,ACCEPT,batch1pro,batch1pro,45,11,1,Screen 1,continueButton,response_rating_scale_likert_active,3421.300000190735,NA,NA,Disagree,1,0,1,0,NA,NA,NA,NA,1,statements,The risk of dying from covid reduces with a vaccine.,1,17/06/2021 12:35,17/06/2021 12:42,IP Address,For (I feel positively about the vaccines),Once or twice a year,A few times a year,20,Female,NA,"GCSEs,A levels",control,7,3,For,For
14,1659970709092,08/08/2022 14:58:29,1659970710109,1,08/08/2022 15:58:30,94118,3,task-b5vt,NA,23526142,6895290,NA,complete,NA,62f124068481caea3ae9c298,computer,Desktop or Laptop,Windows 10,Chrome 103.0.0.0,1536x864,1519x722,NA,ITT Ratings,2,against,1,NA,NA,NA,NA,NA,NA,NA,NA,NA,ACCEPT,batch1pro,batch1pro,33,12,1,Screen 1,continueButton,response_rating_scale_likert_active,2812.199999809265,NA,NA,Disagree,1,0,1,0,NA,NA,NA,NA,1,statements,More vaccinations will hopefully mean less admissions and deaths and less pressure on the nhs,1,17/06/2021 12:31,17/06/2021 12:41,IP Address,For (I feel positively about the vaccines),Rarely,A few times a year,31,Female,NA,"Undergraduate degree (BSc, BA)",choice,5,3,For,For
15,1659970712249,08/08/2022 14:58:32,1659970713311,1,08/08/2022 15:58:33,94118,3,task-b5vt,NA,23526142,6895290,NA,complete,NA,62f124068481caea3ae9c298,computer,Desktop or Laptop,Windows 10,Chrome 103.0.0.0,1536x864,1519x722,NA,ITT Ratings,2,against,1,NA,NA,NA,NA,NA,NA,NA,NA,NA,ACCEPT,batch1pro,batch1pro,4,13,1,Screen 1,continueButton,response_rating_scale_likert_active,3149.6000003814697,NA,NA,Agree,1,0,1,0,NA,NA,NA,NA,1,statements,"It was developed too quickly, I think they should have taken more time on it",1,17/06/2021 12:34,17/06/2021 12:39,IP Address,For (I feel positively about the vaccines),Rarely,A few times a year,26,Female,NA,"Undergraduate degree (BSc, BA)",control,1,1,For,Against
16,1659970715781,08/08/2022 14:58:35,1659970716709,1,08/08/2022 15:58:36,94118,3,task-b5vt,NA,23526142,6895290,NA,complete,NA,62f124068481caea3ae9c298,computer,Desktop or Laptop,Windows 10,Chrome 103.0.0.0,1536x864,1519x722,NA,ITT Ratings,2,against,1,NA,NA,NA,NA,NA,NA,NA,NA,NA,ACCEPT,batch1pro,batch1pro,38,14,1,Screen 1,continueButton,response_rating_scale_likert_active,3352.300000190735,NA,NA,Disagree,1,0,1,0,NA,NA,NA,NA,1,statements,"A member of my family can catch anything really easily , so I want to do this to help keep them safe",1,17/06/2021 12:16,17/06/2021 12:42,IP Address,For (I feel positively about the vaccines),Rarely,Most days,34,Male,NA,GCSEs,control,6,2,For,For
17,1659970717735,08/08/2022 14:58:37,1659970718740,1,08/08/2022 15:58:38,94118,3,task-b5vt,NA,23526142,6895290,NA,complete,NA,62f124068481caea3ae9c298,computer,Desktop or Laptop,Windows 10,Chrome 103.0.0.0,1536x864,1519x722,NA,ITT Ratings,2,against,1,NA,NA,NA,NA,NA,NA,NA,NA,NA,ACCEPT,batch1pro,batch1pro,49,15,1,Screen 1,continueButton,response_rating_scale_likert_active,1940.3999996185305,NA,NA,Strongly Disagree,1,0,1,0,NA,NA,NA,NA,1,statements,To gain immunity against COVID 19.,1,17/06/2021 12:29,17/06/2021 12:42,IP Address,For (I feel positively about the vaccines),Most months,Most months,20,Male,NA,A levels,choice,8,1,For,For
18,1659970726664,08/08/2022 14:58:46,1659970727613,1,08/08/2022 15:58:47,94118,3,task-b5vt,NA,23526142,6895290,NA,complete,NA,62f124068481caea3ae9c298,computer,Desktop or Laptop,Windows 10,Chrome 103.0.0.0,1536x864,1519x722,NA,ITT Ratings,2,against,1,NA,NA,NA,NA,NA,NA,NA,NA,NA,ACCEPT,batch1pro,batch1pro,10,16,1,Screen 1,continueButton,response_rating_scale_likert_active,8827.900000095367,NA,NA,Somewhat Disagree,1,0,1,0,NA,NA,NA,NA,1,statements,I am one of those idiots who thinks I will become magnetic or have trackers in me,1,17/06/2021 12:34,17/06/2021 12:40,IP Address,For (I feel positively about the vaccines),Rarely,Most weeks,26,Female,NA,"Undergraduate degree (BSc, BA)",choice,2,1,For,Against
