Event.Index,UTC.Timestamp,UTC.Date,Local.Timestamp,Local.Timezone,Local.Date,Experiment.ID,Experiment.Version,Tree.Node.Key,Repeat.Key,Schedule.ID,Participant.Private.ID,Participant.Starting.Group,Participant.Status,Participant.Completion.Code,Participant.External.Session.ID,Participant.Device.Type,Participant.Device,Participant.OS,Participant.Browser,Participant.Monitor.Size,Participant.Viewport.Size,Checkpoint,Task.Name,Task.Version,branch.69an,randomiser.8vg2,quota.bqtt,quota.rycs,quota.wtfi,quota.usve,quota.zgic,quota.f3yz,quota.r9vy,quota.tfqq,quota.3dga,quota.dtj6,Spreadsheet,Spreadsheet.Name,Spreadsheet.Row,Trial.Number,Screen.Number,Screen.Name,Zone.Name,Zone.Type,Reaction.Time,Reaction.Onset,Response.Type,Response,Attempt,Correct,Incorrect,Dishonest,X.Coordinate,Y.Coordinate,Timed.Out,randomise_blocks,randomise_trials,display,Arguments,ShowProgressBar,StartDate,EndDate,Status,prolif_check,discuss_1,read_1,age,gender,gender_4_TEXT,edu,condition,ID,arg_ID,Position,Arg_Position
1,1659954179517,08/08/2022 10:22:59,1659954179498,1,08/08/2022 11:22:59,94118,2,task-mn1e,NA,23521831,6893517,NA,complete,NA,62f0e3aafd49c74c0958035d,computer,Desktop or Laptop,Windows 10,Chrome 104.0.0.0,1536x864,1536x746,NA,ITT Ratings,2,against,4,NA,NA,ACCEPT,NA,NA,NA,NA,NA,NA,NA,batch4pro,NA,NA,BEGIN TASK,NA,NA,NA,NA,NA,NA,NA,NA,NA,0,1,0,NA,NA,NA,NA,NA,NA,NA,NA,NA,NA,NA,NA,NA,NA,NA,NA,NA,NA,NA,NA,NA,NA,NA
2,1659954181800,08/08/2022 10:23:01,1659954181825,1,08/08/2022 11:23:01,94118,2,task-mn1e,NA,23521831,6893517,NA,complete,NA,62f0e3aafd49c74c0958035d,computer,Desktop or Laptop,Windows 10,Chrome 104.0.0.0,1536x864,1519x746,NA,ITT Ratings,2,against,4,NA,NA,ACCEPT,NA,NA,NA,NA,NA,NA,NA,batch4pro,batch4pro,1,1,1,Screen 1,advancementZone,continue_button,2283.2999999523163,NA,NA,NA,NA,0,1,0,NA,NA,NA,NA,NA,instructions,NA,NA,NA,NA,NA,NA,NA,NA,NA,NA,NA,NA,NA,NA,NA,NA,NA
3,1659954204220,08/08/2022 10:23:24,1659954203823,1,08/08/2022 11:23:23,94118,2,task-mn1e,NA,23521831,6893517,NA,complete,NA,62f0e3aafd49c74c0958035d,computer,Desktop or Laptop,Windows 10,Chrome 104.0.0.0,1536x864,1519x746,NA,ITT Ratings,2,against,4,NA,NA,ACCEPT,NA,NA,NA,NA,NA,NA,NA,batch4pro,batch4pro,47,1,1,Screen 1,continueButton,response_rating_scale_likert_active,21967.599999964237,NA,NA,Agree,1,0,1,0,NA,NA,NA,NA,1,statements,Will make the world go back to some sort of normal,1,17/06/2021 12:49,17/06/2021 12:54,IP Address,For (I feel positively about the vaccines),Rarely,Once or twice a year,20,Female,NA,Vocational Training / Apprenticeship,control,38,2,For,Against
4,1659954209884,08/08/2022 10:23:29,1659954209843,1,08/08/2022 11:23:29,94118,2,task-mn1e,NA,23521831,6893517,NA,complete,NA,62f0e3aafd49c74c0958035d,computer,Desktop or Laptop,Windows 10,Chrome 104.0.0.0,1536x864,1519x746,NA,ITT Ratings,2,against,4,NA,NA,ACCEPT,NA,NA,NA,NA,NA,NA,NA,batch4pro,batch4pro,62,2,1,Screen 1,continueButton,response_rating_scale_likert_active,5993.699999988079,NA,NA,Agree,1,0,1,0,NA,NA,NA,NA,1,statements,"I wish to protect other people including family, friends and colleagues",1,17/06/2021 12:46,17/06/2021 12:54,IP Address,For (I feel positively about the vaccines),Once or twice a year,Once or twice a year,38,Female,NA,"Undergraduate degree (BSc, BA)",control,40,2,For,For
5,1659954216267,08/08/2022 10:23:36,1659954216290,1,08/08/2022 11:23:36,94118,2,task-mn1e,NA,23521831,6893517,NA,complete,NA,62f0e3aafd49c74c0958035d,computer,Desktop or Laptop,Windows 10,Chrome 104.0.0.0,1536x864,1519x746,NA,ITT Ratings,2,against,4,NA,NA,ACCEPT,NA,NA,NA,NA,NA,NA,NA,batch4pro,batch4pro,13,3,1,Screen 1,continueButton,response_rating_scale_likert_active,6429,NA,NA,Disagree,1,0,1,0,NA,NA,NA,NA,1,statements,Vaccines have been going on for years so they are good to protect us,1,17/06/2021 12:43,17/06/2021 12:52,IP Address,For (I feel positively about the vaccines),Rarely,Most weeks,25,Female,NA,"Postgraduate degree (MSc, MA, MPhil)",choice,32,1,For,For
6,1659954226497,08/08/2022 10:23:46,1659954225851,1,08/08/2022 11:23:45,94118,2,task-mn1e,NA,23521831,6893517,NA,complete,NA,62f0e3aafd49c74c0958035d,computer,Desktop or Laptop,Windows 10,Chrome 104.0.0.0,1536x864,1519x746,NA,ITT Ratings,2,against,4,NA,NA,ACCEPT,NA,NA,NA,NA,NA,NA,NA,batch4pro,batch4pro,59,4,1,Screen 1,continueButton,response_rating_scale_likert_active,9542.30000001192,NA,NA,Strongly Agree,1,0,1,0,NA,NA,NA,NA,1,statements,We do not know what harm they can cause in the future,1,17/06/2021 12:46,17/06/2021 12:54,IP Address,For (I feel positively about the vaccines),Once or twice a year,Once or twice a year,38,Female,NA,"Undergraduate degree (BSc, BA)",control,40,2,For,Against
7,1659954232062,08/08/2022 10:23:52,1659954231464,1,08/08/2022 11:23:51,94118,2,task-mn1e,NA,23521831,6893517,NA,complete,NA,62f0e3aafd49c74c0958035d,computer,Desktop or Laptop,Windows 10,Chrome 104.0.0.0,1536x864,1519x746,NA,ITT Ratings,2,against,4,NA,NA,ACCEPT,NA,NA,NA,NA,NA,NA,NA,batch4pro,batch4pro,18,5,1,Screen 1,continueButton,response_rating_scale_likert_active,5601.100000023842,NA,NA,Neither Agree nor Disagree,1,0,1,0,NA,NA,NA,NA,1,statements,I have a bee allergy,1,17/06/2021 12:41,17/06/2021 12:53,IP Address,For (I feel positively about the vaccines),Rarely,Rarely,45,Female,NA,"Undergraduate degree (BSc, BA)",choice,33,3,For,Against
8,1659954234474,08/08/2022 10:23:54,1659954234495,1,08/08/2022 11:23:54,94118,2,task-mn1e,NA,23521831,6893517,NA,complete,NA,62f0e3aafd49c74c0958035d,computer,Desktop or Laptop,Windows 10,Chrome 104.0.0.0,1536x864,1519x746,NA,ITT Ratings,2,against,4,NA,NA,ACCEPT,NA,NA,NA,NA,NA,NA,NA,batch4pro,batch4pro,3,6,1,Screen 1,continueButton,response_rating_scale_likert_active,3007.600000023842,NA,NA,Somewhat Disagree,1,0,1,0,NA,NA,NA,NA,1,statements,We would like to check you are reading each argument carefully. Please select 'Somewhat Disagree' for this answer,1,NA,NA,NA,NA,NA,NA,NA,NA,NA,NA,NA,NA,check2,NA,NA
9,1659954243143,08/08/2022 10:24:03,1659954243160,1,08/08/2022 11:24:03,94118,2,task-mn1e,NA,23521831,6893517,NA,complete,NA,62f0e3aafd49c74c0958035d,computer,Desktop or Laptop,Windows 10,Chrome 104.0.0.0,1536x864,1519x746,NA,ITT Ratings,2,against,4,NA,NA,ACCEPT,NA,NA,NA,NA,NA,NA,NA,batch4pro,batch4pro,61,7,1,Screen 1,continueButton,response_rating_scale_likert_active,8646.100000023842,NA,NA,Strongly Disagree,1,0,1,0,NA,NA,NA,NA,1,statements,I am vulnerable to covid 19,1,17/06/2021 12:46,17/06/2021 12:54,IP Address,For (I feel positively about the vaccines),Once or twice a year,Once or twice a year,38,Female,NA,"Undergraduate degree (BSc, BA)",control,40,1,For,For
10,1659954245506,08/08/2022 10:24:05,1659954245528,1,08/08/2022 11:24:05,94118,2,task-mn1e,NA,23521831,6893517,NA,complete,NA,62f0e3aafd49c74c0958035d,computer,Desktop or Laptop,Windows 10,Chrome 104.0.0.0,1536x864,1519x746,NA,ITT Ratings,2,against,4,NA,NA,ACCEPT,NA,NA,NA,NA,NA,NA,NA,batch4pro,batch4pro,33,8,1,Screen 1,continueButton,response_rating_scale_likert_active,2356.100000023842,NA,NA,Strongly Disagree,1,0,1,0,NA,NA,NA,NA,1,statements,I trust those who have made the vaccine,1,17/06/2021 12:45,17/06/2021 12:53,IP Address,For (I feel positively about the vaccines),Rarely,Once or twice a year,30,Female,NA,"Undergraduate degree (BSc, BA)",choice,35,3,For,For
11,1659954250275,08/08/2022 10:24:10,1659954249426,1,08/08/2022 11:24:09,94118,2,task-mn1e,NA,23521831,6893517,NA,complete,NA,62f0e3aafd49c74c0958035d,computer,Desktop or Laptop,Windows 10,Chrome 104.0.0.0,1536x864,1519x746,NA,ITT Ratings,2,against,4,NA,NA,ACCEPT,NA,NA,NA,NA,NA,NA,NA,batch4pro,batch4pro,35,9,1,Screen 1,continueButton,response_rating_scale_likert_active,3882.299999952316,NA,NA,Disagree,1,0,1,0,NA,NA,NA,NA,1,statements,Fear of needles/injections,1,17/06/2021 12:46,17/06/2021 12:53,IP Address,For (I feel positively about the vaccines),Rarely,Most weeks,22,Non-binary,NA,"Undergraduate degree (BSc, BA)",control,36,2,For,Against
12,1659954254037,08/08/2022 10:24:14,1659954254064,1,08/08/2022 11:24:14,94118,2,task-mn1e,NA,23521831,6893517,NA,complete,NA,62f0e3aafd49c74c0958035d,computer,Desktop or Laptop,Windows 10,Chrome 104.0.0.0,1536x864,1519x746,NA,ITT Ratings,2,against,4,NA,NA,ACCEPT,NA,NA,NA,NA,NA,NA,NA,batch4pro,batch4pro,17,10,1,Screen 1,continueButton,response_rating_scale_likert_active,4620.899999976158,NA,NA,Agree,1,0,1,0,NA,NA,NA,NA,1,statements,We don't know what's in it,1,17/06/2021 12:41,17/06/2021 12:53,IP Address,For (I feel positively about the vaccines),Rarely,Rarely,45,Female,NA,"Undergraduate degree (BSc, BA)",choice,33,2,For,Against
13,1659954259717,08/08/2022 10:24:19,1659954258890,1,08/08/2022 11:24:18,94118,2,task-mn1e,NA,23521831,6893517,NA,complete,NA,62f0e3aafd49c74c0958035d,computer,Desktop or Laptop,Windows 10,Chrome 104.0.0.0,1536x864,1519x746,NA,ITT Ratings,2,against,4,NA,NA,ACCEPT,NA,NA,NA,NA,NA,NA,NA,batch4pro,batch4pro,11,11,1,Screen 1,continueButton,response_rating_scale_likert_active,4814.800000011921,NA,NA,Somewhat Disagree,1,0,1,0,NA,NA,NA,NA,1,statements,The vaccine puts a chip in you so you can be tracked,1,17/06/2021 12:43,17/06/2021 12:52,IP Address,For (I feel positively about the vaccines),Rarely,Most weeks,25,Female,NA,"Postgraduate degree (MSc, MA, MPhil)",choice,32,2,For,Against
14,1659954278557,08/08/2022 10:24:38,1659954277983,1,08/08/2022 11:24:37,94118,2,task-mn1e,NA,23521831,6893517,NA,complete,NA,62f0e3aafd49c74c0958035d,computer,Desktop or Laptop,Windows 10,Chrome 104.0.0.0,1536x864,1519x746,NA,ITT Ratings,2,against,4,NA,NA,ACCEPT,NA,NA,NA,NA,NA,NA,NA,batch4pro,batch4pro,25,12,1,Screen 1,continueButton,response_rating_scale_likert_active,19072.30000001192,NA,NA,Neither Agree nor Disagree,1,0,1,0,NA,NA,NA,NA,1,statements,Protecting Health of yourself and protecting people around you by breaking the infection trend therefore avoiding illness and hospital stays.,1,17/06/2021 12:45,17/06/2021 12:53,IP Address,For (I feel positively about the vaccines),Rarely,Rarely,38,Male,NA,"Undergraduate degree (BSc, BA)",choice,34,1,For,For
15,1659954282171,08/08/2022 10:24:42,1659954282209,1,08/08/2022 11:24:42,94118,2,task-mn1e,NA,23521831,6893517,NA,complete,NA,62f0e3aafd49c74c0958035d,computer,Desktop or Laptop,Windows 10,Chrome 104.0.0.0,1536x864,1519x746,NA,ITT Ratings,2,against,4,NA,NA,ACCEPT,NA,NA,NA,NA,NA,NA,NA,batch4pro,batch4pro,31,13,1,Screen 1,continueButton,response_rating_scale_likert_active,4207.600000023842,NA,NA,Strongly Agree,1,0,1,0,NA,NA,NA,NA,1,statements,I want to be well protected,1,17/06/2021 12:45,17/06/2021 12:53,IP Address,For (I feel positively about the vaccines),Rarely,Once or twice a year,30,Female,NA,"Undergraduate degree (BSc, BA)",choice,35,1,For,For
16,1659954285351,08/08/2022 10:24:45,1659954285379,1,08/08/2022 11:24:45,94118,2,task-mn1e,NA,23521831,6893517,NA,complete,NA,62f0e3aafd49c74c0958035d,computer,Desktop or Laptop,Windows 10,Chrome 104.0.0.0,1536x864,1519x746,NA,ITT Ratings,2,against,4,NA,NA,ACCEPT,NA,NA,NA,NA,NA,NA,NA,batch4pro,batch4pro,40,14,1,Screen 1,continueButton,response_rating_scale_likert_active,3151.7000000476837,NA,NA,Agree,1,0,1,0,NA,NA,NA,NA,1,statements,I don't believe in vaccines,1,17/06/2021 12:45,17/06/2021 12:54,IP Address,For (I feel positively about the vaccines),Rarely,Rarely,30,Female,NA,"Undergraduate degree (BSc, BA)",choice,37,1,For,Against
17,1659954443834,08/08/2022 10:27:23,1659954443576,1,08/08/2022 11:27:23,94118,2,task-mn1e,NA,23521831,6893517,NA,complete,NA,62f0e3aafd49c74c0958035d,computer,Desktop or Laptop,Windows 10,Chrome 104.0.0.0,1536x864,1519x746,NA,ITT Ratings,2,against,4,NA,NA,ACCEPT,NA,NA,NA,NA,NA,NA,NA,batch4pro,batch4pro,29,15,1,Screen 1,continueButton,response_rating_scale_likert_active,158186,NA,NA,Strongly Agree,1,0,1,0,NA,NA,NA,NA,1,statements,We don't know the long term effects,1,17/06/2021 12:45,17/06/2021 12:53,IP Address,For (I feel positively about the vaccines),Rarely,Once or twice a year,30,Female,NA,"Undergraduate degree (BSc, BA)",choice,35,2,For,Against
18,1659954447848,08/08/2022 10:27:27,1659954447866,1,08/08/2022 11:27:27,94118,2,task-mn1e,NA,23521831,6893517,NA,complete,NA,62f0e3aafd49c74c0958035d,computer,Desktop or Laptop,Windows 10,Chrome 104.0.0.0,1536x864,1519x746,NA,ITT Ratings,2,against,4,NA,NA,ACCEPT,NA,NA,NA,NA,NA,NA,NA,batch4pro,batch4pro,57,16,1,Screen 1,continueButton,response_rating_scale_likert_active,4270.100000023842,NA,NA,Strongly Disagree,1,0,1,0,NA,NA,NA,NA,1,statements,It's the safest option rather than catching the virus,1,17/06/2021 12:47,17/06/2021 12:54,IP Address,For (I feel positively about the vaccines),Rarely,A few times a year,31,Female,NA,"Postgraduate degree (MSc, MA, MPhil)",choice,39,3,For,For
19,1659954451420,08/08/2022 10:27:31,1659954451435,1,08/08/2022 11:27:31,94118,2,task-mn1e,NA,23521831,6893517,NA,complete,NA,62f0e3aafd49c74c0958035d,computer,Desktop or Laptop,Windows 10,Chrome 104.0.0.0,1536x864,1519x746,NA,ITT Ratings,2,against,4,NA,NA,ACCEPT,NA,NA,NA,NA,NA,NA,NA,batch4pro,batch4pro,28,17,1,Screen 1,continueButton,response_rating_scale_likert_active,3549,NA,NA,Strongly Agree,1,0,1,0,NA,NA,NA,NA,1,statements,We haven't had long enough to test the vaccines,1,17/06/2021 12:45,17/06/2021 12:53,IP Address,For (I feel positively about the vaccines),Rarely,Once or twice a year,30,Female,NA,"Undergraduate degree (BSc, BA)",choice,35,1,For,Against
20,1659954457640,08/08/2022 10:27:37,1659954457261,1,08/08/2022 11:27:37,94118,2,task-mn1e,NA,23521831,6893517,NA,complete,NA,62f0e3aafd49c74c0958035d,computer,Desktop or Laptop,Windows 10,Chrome 104.0.0.0,1536x864,1519x746,NA,ITT Ratings,2,against,4,NA,NA,ACCEPT,NA,NA,NA,NA,NA,NA,NA,batch4pro,batch4pro,44,18,1,Screen 1,continueButton,response_rating_scale_likert_active,5805.300000011921,NA,NA,Strongly Disagree,1,0,1,0,NA,NA,NA,NA,1,statements,To stop me becoming unwell with it,1,17/06/2021 12:45,17/06/2021 12:54,IP Address,For (I feel positively about the vaccines),Rarely,Rarely,30,Female,NA,"Undergraduate degree (BSc, BA)",choice,37,2,For,For
21,1659954462314,08/08/2022 10:27:42,1659954462335,1,08/08/2022 11:27:42,94118,2,task-mn1e,NA,23521831,6893517,NA,complete,NA,62f0e3aafd49c74c0958035d,computer,Desktop or Laptop,Windows 10,Chrome 104.0.0.0,1536x864,1519x746,NA,ITT Ratings,2,against,4,NA,NA,ACCEPT,NA,NA,NA,NA,NA,NA,NA,batch4pro,batch4pro,52,19,1,Screen 1,continueButton,response_rating_scale_likert_active,5043.600000023842,NA,NA,Strongly Agree,1,0,1,0,NA,NA,NA,NA,1,statements,It's unsafe - not had enough time to develop safely,1,17/06/2021 12:47,17/06/2021 12:54,IP Address,For (I feel positively about the vaccines),Rarely,A few times a year,31,Female,NA,"Postgraduate degree (MSc, MA, MPhil)",choice,39,1,For,Against
22,1659954469117,08/08/2022 10:27:49,1659954468282,1,08/08/2022 11:27:48,94118,2,task-mn1e,NA,23521831,6893517,NA,complete,NA,62f0e3aafd49c74c0958035d,computer,Desktop or Laptop,Windows 10,Chrome 104.0.0.0,1536x864,1519x746,NA,ITT Ratings,2,against,4,NA,NA,ACCEPT,NA,NA,NA,NA,NA,NA,NA,batch4pro,batch4pro,39,20,1,Screen 1,continueButton,response_rating_scale_likert_active,5931.5,NA,NA,Strongly Agree,1,0,1,0,NA,NA,NA,NA,1,statements,I don't want to risk being affected by the symptoms of 'long covid' for the rest of my life,1,17/06/2021 12:46,17/06/2021 12:53,IP Address,For (I feel positively about the vaccines),Rarely,Most weeks,22,Non-binary,NA,"Undergraduate degree (BSc, BA)",control,36,3,For,For
23,1659954736358,08/08/2022 10:32:16,1659954736246,1,08/08/2022 11:32:16,94118,2,task-mn1e,NA,23521831,6893517,NA,complete,NA,62f0e3aafd49c74c0958035d,computer,Desktop or Laptop,Windows 10,Chrome 104.0.0.0,1536x864,1519x746,NA,ITT Ratings,2,against,4,NA,NA,ACCEPT,NA,NA,NA,NA,NA,NA,NA,batch4pro,batch4pro,9,21,1,Screen 1,continueButton,response_rating_scale_likert_active,267954.2000000477,NA,NA,Strongly Disagree,1,0,1,0,NA,NA,NA,NA,1,statements,Aren't we lucky/fortunate how quickly this has been developed and we are in a position where we can get a vaccine.,1,17/06/2021 12:43,17/06/2021 12:52,IP Address,For (I feel positively about the vaccines),Rarely,Rarely,34,Male,NA,Doctorate (PhD),control,31,3,For,For
24,1659954743439,08/08/2022 10:32:23,1659954742788,1,08/08/2022 11:32:22,94118,2,task-mn1e,NA,23521831,6893517,NA,complete,NA,62f0e3aafd49c74c0958035d,computer,Desktop or Laptop,Windows 10,Chrome 104.0.0.0,1536x864,1519x746,NA,ITT Ratings,2,against,4,NA,NA,ACCEPT,NA,NA,NA,NA,NA,NA,NA,batch4pro,batch4pro,51,22,1,Screen 1,continueButton,response_rating_scale_likert_active,6507,NA,NA,Somewhat Disagree,1,0,1,0,NA,NA,NA,NA,1,statements,to help protect the nhs so they are not too busy,1,17/06/2021 12:49,17/06/2021 12:54,IP Address,For (I feel positively about the vaccines),Rarely,Once or twice a year,20,Female,NA,Vocational Training / Apprenticeship,control,38,3,For,For
25,1659954750331,08/08/2022 10:32:30,1659954749621,1,08/08/2022 11:32:29,94118,2,task-mn1e,NA,23521831,6893517,NA,complete,NA,62f0e3aafd49c74c0958035d,computer,Desktop or Laptop,Windows 10,Chrome 104.0.0.0,1536x864,1519x746,NA,ITT Ratings,2,against,4,NA,NA,ACCEPT,NA,NA,NA,NA,NA,NA,NA,batch4pro,batch4pro,53,23,1,Screen 1,continueButton,response_rating_scale_likert_active,6648.899999976158,NA,NA,Somewhat Disagree,1,0,1,0,NA,NA,NA,NA,1,statements,It's unnecessary - Covid won’t make me very unwell,1,17/06/2021 12:47,17/06/2021 12:54,IP Address,For (I feel positively about the vaccines),Rarely,A few times a year,31,Female,NA,"Postgraduate degree (MSc, MA, MPhil)",choice,39,2,For,Against
26,1659954755217,08/08/2022 10:32:35,1659954754965,1,08/08/2022 11:32:34,94118,2,task-mn1e,NA,23521831,6893517,NA,complete,NA,62f0e3aafd49c74c0958035d,computer,Desktop or Laptop,Windows 10,Chrome 104.0.0.0,1536x864,1519x746,NA,ITT Ratings,2,against,4,NA,NA,ACCEPT,NA,NA,NA,NA,NA,NA,NA,batch4pro,batch4pro,55,24,1,Screen 1,continueButton,response_rating_scale_likert_active,5313.800000011921,NA,NA,Strongly Agree,1,0,1,0,NA,NA,NA,NA,1,statements,We need to get back to normal life,1,17/06/2021 12:47,17/06/2021 12:54,IP Address,For (I feel positively about the vaccines),Rarely,A few times a year,31,Female,NA,"Postgraduate degree (MSc, MA, MPhil)",choice,39,1,For,For
27,1659954758380,08/08/2022 10:32:38,1659954758332,1,08/08/2022 11:32:38,94118,2,task-mn1e,NA,23521831,6893517,NA,complete,NA,62f0e3aafd49c74c0958035d,computer,Desktop or Laptop,Windows 10,Chrome 104.0.0.0,1536x864,1519x746,NA,ITT Ratings,2,against,4,NA,NA,ACCEPT,NA,NA,NA,NA,NA,NA,NA,batch4pro,batch4pro,43,25,1,Screen 1,continueButton,response_rating_scale_likert_active,3343.199999988079,NA,NA,Disagree,1,0,1,0,NA,NA,NA,NA,1,statements,To protect my family and friends,1,17/06/2021 12:45,17/06/2021 12:54,IP Address,For (I feel positively about the vaccines),Rarely,Rarely,30,Female,NA,"Undergraduate degree (BSc, BA)",choice,37,1,For,For
28,1659954763478,08/08/2022 10:32:43,1659954763055,1,08/08/2022 11:32:43,94118,2,task-mn1e,NA,23521831,6893517,NA,complete,NA,62f0e3aafd49c74c0958035d,computer,Desktop or Laptop,Windows 10,Chrome 104.0.0.0,1536x864,1519x746,NA,ITT Ratings,2,against,4,NA,NA,ACCEPT,NA,NA,NA,NA,NA,NA,NA,batch4pro,batch4pro,4,26,1,Screen 1,continueButton,response_rating_scale_likert_active,4704.199999988079,NA,NA,Strongly Agree,1,0,1,0,NA,NA,NA,NA,1,statements,We don't know what the long term impact or effects are yet,1,17/06/2021 12:43,17/06/2021 12:52,IP Address,For (I feel positively about the vaccines),Rarely,Rarely,34,Male,NA,Doctorate (PhD),control,31,1,For,Against
29,1659954766533,08/08/2022 10:32:46,1659954766552,1,08/08/2022 11:32:46,94118,2,task-mn1e,NA,23521831,6893517,NA,complete,NA,62f0e3aafd49c74c0958035d,computer,Desktop or Laptop,Windows 10,Chrome 104.0.0.0,1536x864,1519x746,NA,ITT Ratings,2,against,4,NA,NA,ACCEPT,NA,NA,NA,NA,NA,NA,NA,batch4pro,batch4pro,42,27,1,Screen 1,continueButton,response_rating_scale_likert_active,3480.900000035763,NA,NA,Strongly Disagree,1,0,1,0,NA,NA,NA,NA,1,statements,Scared of needles and injections,1,17/06/2021 12:45,17/06/2021 12:54,IP Address,For (I feel positively about the vaccines),Rarely,Rarely,30,Female,NA,"Undergraduate degree (BSc, BA)",choice,37,3,For,Against
30,1659954770941,08/08/2022 10:32:50,1659954770115,1,08/08/2022 11:32:50,94118,2,task-mn1e,NA,23521831,6893517,NA,complete,NA,62f0e3aafd49c74c0958035d,computer,Desktop or Laptop,Windows 10,Chrome 104.0.0.0,1536x864,1519x746,NA,ITT Ratings,2,against,4,NA,NA,ACCEPT,NA,NA,NA,NA,NA,NA,NA,batch4pro,batch4pro,2,28,1,Screen 1,continueButton,response_rating_scale_likert_active,3548.400000035763,NA,NA,Somewhat Agree,1,0,1,0,NA,NA,NA,NA,1,statements,We would like to check you are reading each argument carefully. Please select 'Somewhat Agree' for this answer,1,NA,NA,NA,NA,NA,NA,NA,NA,NA,NA,NA,NA,check1,NA,NA
31,1659954777446,08/08/2022 10:32:57,1659954776695,1,08/08/2022 11:32:56,94118,2,task-mn1e,NA,23521831,6893517,NA,complete,NA,62f0e3aafd49c74c0958035d,computer,Desktop or Laptop,Windows 10,Chrome 104.0.0.0,1536x864,1519x746,NA,ITT Ratings,2,against,4,NA,NA,ACCEPT,NA,NA,NA,NA,NA,NA,NA,batch4pro,batch4pro,34,29,1,Screen 1,continueButton,response_rating_scale_likert_active,6557.699999988079,NA,NA,Somewhat Agree,1,0,1,0,NA,NA,NA,NA,1,statements,The government is denying our right to say no,1,17/06/2021 12:46,17/06/2021 12:53,IP Address,For (I feel positively about the vaccines),Rarely,Most weeks,22,Non-binary,NA,"Undergraduate degree (BSc, BA)",control,36,1,For,Against
32,1659954785314,08/08/2022 10:33:05,1659954784898,1,08/08/2022 11:33:04,94118,2,task-mn1e,NA,23521831,6893517,NA,complete,NA,62f0e3aafd49c74c0958035d,computer,Desktop or Laptop,Windows 10,Chrome 104.0.0.0,1536x864,1519x746,NA,ITT Ratings,2,against,4,NA,NA,ACCEPT,NA,NA,NA,NA,NA,NA,NA,batch4pro,batch4pro,6,30,1,Screen 1,continueButton,response_rating_scale_likert_active,8181.299999952316,NA,NA,Neither Agree nor Disagree,1,0,1,0,NA,NA,NA,NA,1,statements,I don't like needles/felt unwell for a brief period after a previous vaccine,1,17/06/2021 12:43,17/06/2021 12:52,IP Address,For (I feel positively about the vaccines),Rarely,Rarely,34,Male,NA,Doctorate (PhD),control,31,3,For,Against
33,1659954790141,08/08/2022 10:33:10,1659954789416,1,08/08/2022 11:33:09,94118,2,task-mn1e,NA,23521831,6893517,NA,complete,NA,62f0e3aafd49c74c0958035d,computer,Desktop or Laptop,Windows 10,Chrome 104.0.0.0,1536x864,1519x746,NA,ITT Ratings,2,against,4,NA,NA,ACCEPT,NA,NA,NA,NA,NA,NA,NA,batch4pro,batch4pro,7,31,1,Screen 1,continueButton,response_rating_scale_likert_active,4502.800000011921,NA,NA,Disagree,1,0,1,0,NA,NA,NA,NA,1,statements,It can help us return to 'normal' sooner than if I didn't do it.,1,17/06/2021 12:43,17/06/2021 12:52,IP Address,For (I feel positively about the vaccines),Rarely,Rarely,34,Male,NA,Doctorate (PhD),control,31,1,For,For
34,1659954795763,08/08/2022 10:33:15,1659954795730,1,08/08/2022 11:33:15,94118,2,task-mn1e,NA,23521831,6893517,NA,complete,NA,62f0e3aafd49c74c0958035d,computer,Desktop or Laptop,Windows 10,Chrome 104.0.0.0,1536x864,1519x746,NA,ITT Ratings,2,against,4,NA,NA,ACCEPT,NA,NA,NA,NA,NA,NA,NA,batch4pro,batch4pro,45,32,1,Screen 1,continueButton,response_rating_scale_likert_active,6282.899999976158,NA,NA,Disagree,1,0,1,0,NA,NA,NA,NA,1,statements,So they don't die from it,1,17/06/2021 12:45,17/06/2021 12:54,IP Address,For (I feel positively about the vaccines),Rarely,Rarely,30,Female,NA,"Undergraduate degree (BSc, BA)",choice,37,3,For,For
35,1659954815970,08/08/2022 10:33:35,1659954815814,1,08/08/2022 11:33:35,94118,2,task-mn1e,NA,23521831,6893517,NA,complete,NA,62f0e3aafd49c74c0958035d,computer,Desktop or Laptop,Windows 10,Chrome 104.0.0.0,1536x864,1519x746,NA,ITT Ratings,2,against,4,NA,NA,ACCEPT,NA,NA,NA,NA,NA,NA,NA,batch4pro,batch4pro,30,33,1,Screen 1,continueButton,response_rating_scale_likert_active,20068.60000002384,NA,NA,Agree,1,0,1,0,NA,NA,NA,NA,1,statements,I don't need a vaccine - I'm young and healthy.,1,17/06/2021 12:45,17/06/2021 12:53,IP Address,For (I feel positively about the vaccines),Rarely,Once or twice a year,30,Female,NA,"Undergraduate degree (BSc, BA)",choice,35,3,For,Against
36,1659954820503,08/08/2022 10:33:40,1659954819664,1,08/08/2022 11:33:39,94118,2,task-mn1e,NA,23521831,6893517,NA,complete,NA,62f0e3aafd49c74c0958035d,computer,Desktop or Laptop,Windows 10,Chrome 104.0.0.0,1536x864,1519x746,NA,ITT Ratings,2,against,4,NA,NA,ACCEPT,NA,NA,NA,NA,NA,NA,NA,batch4pro,batch4pro,46,34,1,Screen 1,continueButton,response_rating_scale_likert_active,3831.199999988079,NA,NA,Strongly Disagree,1,0,1,0,NA,NA,NA,NA,1,statements,Can help prevent you getting it,1,17/06/2021 12:49,17/06/2021 12:54,IP Address,For (I feel positively about the vaccines),Rarely,Once or twice a year,20,Female,NA,Vocational Training / Apprenticeship,control,38,1,For,Against
37,1659954823104,08/08/2022 10:33:43,1659954823128,1,08/08/2022 11:33:43,94118,2,task-mn1e,NA,23521831,6893517,NA,complete,NA,62f0e3aafd49c74c0958035d,computer,Desktop or Laptop,Windows 10,Chrome 104.0.0.0,1536x864,1519x746,NA,ITT Ratings,2,against,4,NA,NA,ACCEPT,NA,NA,NA,NA,NA,NA,NA,batch4pro,batch4pro,37,35,1,Screen 1,continueButton,response_rating_scale_likert_active,3449.399999976158,NA,NA,Strongly Agree,1,0,1,0,NA,NA,NA,NA,1,statements,Idon't want to die from Covid-19,1,17/06/2021 12:46,17/06/2021 12:53,IP Address,For (I feel positively about the vaccines),Rarely,Most weeks,22,Non-binary,NA,"Undergraduate degree (BSc, BA)",control,36,1,For,For
38,1659954828560,08/08/2022 10:33:48,1659954828345,1,08/08/2022 11:33:48,94118,2,task-mn1e,NA,23521831,6893517,NA,complete,NA,62f0e3aafd49c74c0958035d,computer,Desktop or Laptop,Windows 10,Chrome 104.0.0.0,1536x864,1519x746,NA,ITT Ratings,2,against,4,NA,NA,ACCEPT,NA,NA,NA,NA,NA,NA,NA,batch4pro,batch4pro,50,36,1,Screen 1,continueButton,response_rating_scale_likert_active,5201.600000023842,NA,NA,Neither Agree nor Disagree,1,0,1,0,NA,NA,NA,NA,1,statements,to help try and save lives,1,17/06/2021 12:49,17/06/2021 12:54,IP Address,For (I feel positively about the vaccines),Rarely,Once or twice a year,20,Female,NA,Vocational Training / Apprenticeship,control,38,2,For,For
39,1659954831474,08/08/2022 10:33:51,1659954831497,1,08/08/2022 11:33:51,94118,2,task-mn1e,NA,23521831,6893517,NA,complete,NA,62f0e3aafd49c74c0958035d,computer,Desktop or Laptop,Windows 10,Chrome 104.0.0.0,1536x864,1519x746,NA,ITT Ratings,2,against,4,NA,NA,ACCEPT,NA,NA,NA,NA,NA,NA,NA,batch4pro,batch4pro,56,37,1,Screen 1,continueButton,response_rating_scale_likert_active,3135,NA,NA,Somewhat Agree,1,0,1,0,NA,NA,NA,NA,1,statements,"I want to protect myself, my friends and my family",1,17/06/2021 12:47,17/06/2021 12:54,IP Address,For (I feel positively about the vaccines),Rarely,A few times a year,31,Female,NA,"Postgraduate degree (MSc, MA, MPhil)",choice,39,2,For,For
40,1659954836798,08/08/2022 10:33:56,1659954836809,1,08/08/2022 11:33:56,94118,2,task-mn1e,NA,23521831,6893517,NA,complete,NA,62f0e3aafd49c74c0958035d,computer,Desktop or Laptop,Windows 10,Chrome 104.0.0.0,1536x864,1519x746,NA,ITT Ratings,2,against,4,NA,NA,ACCEPT,NA,NA,NA,NA,NA,NA,NA,batch4pro,batch4pro,48,38,1,Screen 1,continueButton,response_rating_scale_likert_active,5293.900000035763,NA,NA,Disagree,1,0,1,0,NA,NA,NA,NA,1,statements,You will most likely need it to travel,1,17/06/2021 12:49,17/06/2021 12:54,IP Address,For (I feel positively about the vaccines),Rarely,Once or twice a year,20,Female,NA,Vocational Training / Apprenticeship,control,38,3,For,Against
41,1659954842517,08/08/2022 10:34:02,1659954842235,1,08/08/2022 11:34:02,94118,2,task-mn1e,NA,23521831,6893517,NA,complete,NA,62f0e3aafd49c74c0958035d,computer,Desktop or Laptop,Windows 10,Chrome 104.0.0.0,1536x864,1519x746,NA,ITT Ratings,2,against,4,NA,NA,ACCEPT,NA,NA,NA,NA,NA,NA,NA,batch4pro,batch4pro,36,39,1,Screen 1,continueButton,response_rating_scale_likert_active,5409.100000023842,NA,NA,Strongly Agree,1,0,1,0,NA,NA,NA,NA,1,statements,They think Covid-19 is a media hoax,1,17/06/2021 12:46,17/06/2021 12:53,IP Address,For (I feel positively about the vaccines),Rarely,Most weeks,22,Non-binary,NA,"Undergraduate degree (BSc, BA)",control,36,3,For,Against
42,1659954845834,08/08/2022 10:34:05,1659954845858,1,08/08/2022 11:34:05,94118,2,task-mn1e,NA,23521831,6893517,NA,complete,NA,62f0e3aafd49c74c0958035d,computer,Desktop or Laptop,Windows 10,Chrome 104.0.0.0,1536x864,1519x746,NA,ITT Ratings,2,against,4,NA,NA,ACCEPT,NA,NA,NA,NA,NA,NA,NA,batch4pro,batch4pro,38,40,1,Screen 1,continueButton,response_rating_scale_likert_active,3609.399999976158,NA,NA,Agree,1,0,1,0,NA,NA,NA,NA,1,statements,I want to protect elderly relatives and friends,1,17/06/2021 12:46,17/06/2021 12:53,IP Address,For (I feel positively about the vaccines),Rarely,Most weeks,22,Non-binary,NA,"Undergraduate degree (BSc, BA)",control,36,2,For,For
43,1659954854653,08/08/2022 10:34:14,1659954853825,1,08/08/2022 11:34:13,94118,2,task-mn1e,NA,23521831,6893517,NA,complete,NA,62f0e3aafd49c74c0958035d,computer,Desktop or Laptop,Windows 10,Chrome 104.0.0.0,1536x864,1519x746,NA,ITT Ratings,2,against,4,NA,NA,ACCEPT,NA,NA,NA,NA,NA,NA,NA,batch4pro,batch4pro,49,41,1,Screen 1,continueButton,response_rating_scale_likert_active,7951.400000035763,NA,NA,Neither Agree nor Disagree,1,0,1,0,NA,NA,NA,NA,1,statements,To help the world go back to normal,1,17/06/2021 12:49,17/06/2021 12:54,IP Address,For (I feel positively about the vaccines),Rarely,Once or twice a year,20,Female,NA,Vocational Training / Apprenticeship,control,38,1,For,For
44,1659954864645,08/08/2022 10:34:24,1659954864125,1,08/08/2022 11:34:24,94118,2,task-mn1e,NA,23521831,6893517,NA,complete,NA,62f0e3aafd49c74c0958035d,computer,Desktop or Laptop,Windows 10,Chrome 104.0.0.0,1536x864,1519x746,NA,ITT Ratings,2,against,4,NA,NA,ACCEPT,NA,NA,NA,NA,NA,NA,NA,batch4pro,batch4pro,32,42,1,Screen 1,continueButton,response_rating_scale_likert_active,10281.80000001192,NA,NA,Agree,1,0,1,0,NA,NA,NA,NA,1,statements,I want to help protect others,1,17/06/2021 12:45,17/06/2021 12:53,IP Address,For (I feel positively about the vaccines),Rarely,Once or twice a year,30,Female,NA,"Undergraduate degree (BSc, BA)",choice,35,2,For,For
45,1659954865837,08/08/2022 10:34:25,1659954865860,1,08/08/2022 11:34:25,94118,2,task-mn1e,NA,23521831,6893517,NA,complete,NA,62f0e3aafd49c74c0958035d,computer,Desktop or Laptop,Windows 10,Chrome 104.0.0.0,1536x864,1519x746,NA,ITT Ratings,2,against,4,NA,NA,ACCEPT,NA,NA,NA,NA,NA,NA,NA,batch4pro,batch4pro,19,43,1,Screen 1,continueButton,response_rating_scale_likert_active,1718.5999999642372,NA,NA,Agree,1,0,1,0,NA,NA,NA,NA,1,statements,To be safe and healthy,1,17/06/2021 12:41,17/06/2021 12:53,IP Address,For (I feel positively about the vaccines),Rarely,Rarely,45,Female,NA,"Undergraduate degree (BSc, BA)",choice,33,1,For,For
46,1659954871680,08/08/2022 10:34:31,1659954871214,1,08/08/2022 11:34:31,94118,2,task-mn1e,NA,23521831,6893517,NA,complete,NA,62f0e3aafd49c74c0958035d,computer,Desktop or Laptop,Windows 10,Chrome 104.0.0.0,1536x864,1519x746,NA,ITT Ratings,2,against,4,NA,NA,ACCEPT,NA,NA,NA,NA,NA,NA,NA,batch4pro,batch4pro,60,44,1,Screen 1,continueButton,response_rating_scale_likert_active,5328.400000035763,NA,NA,Agree,1,0,1,0,NA,NA,NA,NA,1,statements,There are issues around blood clots and fertility,1,17/06/2021 12:46,17/06/2021 12:54,IP Address,For (I feel positively about the vaccines),Once or twice a year,Once or twice a year,38,Female,NA,"Undergraduate degree (BSc, BA)",control,40,3,For,Against
47,1659954873533,08/08/2022 10:34:33,1659954873563,1,08/08/2022 11:34:33,94118,2,task-mn1e,NA,23521831,6893517,NA,complete,NA,62f0e3aafd49c74c0958035d,computer,Desktop or Laptop,Windows 10,Chrome 104.0.0.0,1536x864,1519x746,NA,ITT Ratings,2,against,4,NA,NA,ACCEPT,NA,NA,NA,NA,NA,NA,NA,batch4pro,batch4pro,58,45,1,Screen 1,continueButton,response_rating_scale_likert_active,2334.600000023842,NA,NA,Strongly Agree,1,0,1,0,NA,NA,NA,NA,1,statements,Scientists have developed it too quickly,1,17/06/2021 12:46,17/06/2021 12:54,IP Address,For (I feel positively about the vaccines),Once or twice a year,Once or twice a year,38,Female,NA,"Undergraduate degree (BSc, BA)",control,40,1,For,Against
48,1659954906071,08/08/2022 10:35:06,1659954905499,1,08/08/2022 11:35:05,94118,2,task-mn1e,NA,23521831,6893517,NA,complete,NA,62f0e3aafd49c74c0958035d,computer,Desktop or Laptop,Windows 10,Chrome 104.0.0.0,1536x864,1519x746,NA,ITT Ratings,2,against,4,NA,NA,ACCEPT,NA,NA,NA,NA,NA,NA,NA,batch4pro,batch4pro,10,46,1,Screen 1,continueButton,response_rating_scale_likert_active,31917,NA,NA,Strongly Agree,1,0,1,0,NA,NA,NA,NA,1,statements,The has not been enough time to test the vaccine to ensure its not harmful,1,17/06/2021 12:43,17/06/2021 12:52,IP Address,For (I feel positively about the vaccines),Rarely,Most weeks,25,Female,NA,"Postgraduate degree (MSc, MA, MPhil)",choice,32,1,For,Against
49,1659954913929,08/08/2022 10:35:13,1659954913259,1,08/08/2022 11:35:13,94118,2,task-mn1e,NA,23521831,6893517,NA,complete,NA,62f0e3aafd49c74c0958035d,computer,Desktop or Laptop,Windows 10,Chrome 104.0.0.0,1536x864,1519x746,NA,ITT Ratings,2,against,4,NA,NA,ACCEPT,NA,NA,NA,NA,NA,NA,NA,batch4pro,batch4pro,21,47,1,Screen 1,continueButton,response_rating_scale_likert_active,7740,NA,NA,Neither Agree nor Disagree,1,0,1,0,NA,NA,NA,NA,1,statements,They don’t want the potential worry of getting COVID.,1,17/06/2021 12:41,17/06/2021 12:53,IP Address,For (I feel positively about the vaccines),Rarely,Rarely,45,Female,NA,"Undergraduate degree (BSc, BA)",choice,33,3,For,For
50,1659954915854,08/08/2022 10:35:15,1659954915879,1,08/08/2022 11:35:15,94118,2,task-mn1e,NA,23521831,6893517,NA,complete,NA,62f0e3aafd49c74c0958035d,computer,Desktop or Laptop,Windows 10,Chrome 104.0.0.0,1536x864,1519x746,NA,ITT Ratings,2,against,4,NA,NA,ACCEPT,NA,NA,NA,NA,NA,NA,NA,batch4pro,batch4pro,26,48,1,Screen 1,continueButton,response_rating_scale_likert_active,2597.600000023842,NA,NA,Somewhat Disagree,1,0,1,0,NA,NA,NA,NA,1,statements,Avoiding severe illness,1,17/06/2021 12:45,17/06/2021 12:53,IP Address,For (I feel positively about the vaccines),Rarely,Rarely,38,Male,NA,"Undergraduate degree (BSc, BA)",choice,34,2,For,For
51,1659954920950,08/08/2022 10:35:20,1659954920420,1,08/08/2022 11:35:20,94118,2,task-mn1e,NA,23521831,6893517,NA,complete,NA,62f0e3aafd49c74c0958035d,computer,Desktop or Laptop,Windows 10,Chrome 104.0.0.0,1536x864,1519x746,NA,ITT Ratings,2,against,4,NA,NA,ACCEPT,NA,NA,NA,NA,NA,NA,NA,batch4pro,batch4pro,20,49,1,Screen 1,continueButton,response_rating_scale_likert_active,4523.199999988079,NA,NA,Somewhat Agree,1,0,1,0,NA,NA,NA,NA,1,statements,To get back to a sense of normality.,1,17/06/2021 12:41,17/06/2021 12:53,IP Address,For (I feel positively about the vaccines),Rarely,Rarely,45,Female,NA,"Undergraduate degree (BSc, BA)",choice,33,2,For,For
52,1659954935682,08/08/2022 10:35:35,1659954935714,1,08/08/2022 11:35:35,94118,2,task-mn1e,NA,23521831,6893517,NA,complete,NA,62f0e3aafd49c74c0958035d,computer,Desktop or Laptop,Windows 10,Chrome 104.0.0.0,1536x864,1519x746,NA,ITT Ratings,2,against,4,NA,NA,ACCEPT,NA,NA,NA,NA,NA,NA,NA,batch4pro,batch4pro,8,50,1,Screen 1,continueButton,response_rating_scale_likert_active,15275.700000047684,NA,NA,Disagree,1,0,1,0,NA,NA,NA,NA,1,statements,It helps me to protect myself and others from becoming seriously ill.,1,17/06/2021 12:43,17/06/2021 12:52,IP Address,For (I feel positively about the vaccines),Rarely,Rarely,34,Male,NA,Doctorate (PhD),control,31,2,For,For
53,1659954939831,08/08/2022 10:35:39,1659954939700,1,08/08/2022 11:35:39,94118,2,task-mn1e,NA,23521831,6893517,NA,complete,NA,62f0e3aafd49c74c0958035d,computer,Desktop or Laptop,Windows 10,Chrome 104.0.0.0,1536x864,1519x746,NA,ITT Ratings,2,against,4,NA,NA,ACCEPT,NA,NA,NA,NA,NA,NA,NA,batch4pro,batch4pro,24,51,1,Screen 1,continueButton,response_rating_scale_likert_active,3972.200000047684,NA,NA,Neither Agree nor Disagree,1,0,1,0,NA,NA,NA,NA,1,statements,Allow us to get back to normal life,1,17/06/2021 12:45,17/06/2021 12:53,IP Address,For (I feel positively about the vaccines),Rarely,Rarely,38,Male,NA,"Undergraduate degree (BSc, BA)",choice,34,3,For,Against
54,1659954945010,08/08/2022 10:35:45,1659954944685,1,08/08/2022 11:35:44,94118,2,task-mn1e,NA,23521831,6893517,NA,complete,NA,62f0e3aafd49c74c0958035d,computer,Desktop or Laptop,Windows 10,Chrome 104.0.0.0,1536x864,1519x746,NA,ITT Ratings,2,against,4,NA,NA,ACCEPT,NA,NA,NA,NA,NA,NA,NA,batch4pro,batch4pro,14,52,1,Screen 1,continueButton,response_rating_scale_likert_active,4969.700000047684,NA,NA,Strongly Disagree,1,0,1,0,NA,NA,NA,NA,1,statements,Vaccine companies are not making a profit so why not get it,1,17/06/2021 12:43,17/06/2021 12:52,IP Address,For (I feel positively about the vaccines),Rarely,Most weeks,25,Female,NA,"Postgraduate degree (MSc, MA, MPhil)",choice,32,2,For,For
55,1659954977021,08/08/2022 10:36:17,1659954976263,1,08/08/2022 11:36:16,94118,2,task-mn1e,NA,23521831,6893517,NA,complete,NA,62f0e3aafd49c74c0958035d,computer,Desktop or Laptop,Windows 10,Chrome 104.0.0.0,1536x864,1519x746,NA,ITT Ratings,2,against,4,NA,NA,ACCEPT,NA,NA,NA,NA,NA,NA,NA,batch4pro,batch4pro,22,53,1,Screen 1,continueButton,response_rating_scale_likert_active,31567.89999997616,NA,NA,Somewhat Disagree,1,0,1,0,NA,NA,NA,NA,1,statements,Protection for yourself,1,17/06/2021 12:45,17/06/2021 12:53,IP Address,For (I feel positively about the vaccines),Rarely,Rarely,38,Male,NA,"Undergraduate degree (BSc, BA)",choice,34,1,For,Against
56,1659954981443,08/08/2022 10:36:21,1659954981470,1,08/08/2022 11:36:21,94118,2,task-mn1e,NA,23521831,6893517,NA,complete,NA,62f0e3aafd49c74c0958035d,computer,Desktop or Laptop,Windows 10,Chrome 104.0.0.0,1536x864,1519x746,NA,ITT Ratings,2,against,4,NA,NA,ACCEPT,NA,NA,NA,NA,NA,NA,NA,batch4pro,batch4pro,12,54,1,Screen 1,continueButton,response_rating_scale_likert_active,5190.299999952316,NA,NA,Strongly Agree,1,0,1,0,NA,NA,NA,NA,1,statements,I might get covid anyway so what's the point,1,17/06/2021 12:43,17/06/2021 12:52,IP Address,For (I feel positively about the vaccines),Rarely,Most weeks,25,Female,NA,"Postgraduate degree (MSc, MA, MPhil)",choice,32,3,For,Against
57,1659954986184,08/08/2022 10:36:26,1659954985571,1,08/08/2022 11:36:25,94118,2,task-mn1e,NA,23521831,6893517,NA,complete,NA,62f0e3aafd49c74c0958035d,computer,Desktop or Laptop,Windows 10,Chrome 104.0.0.0,1536x864,1519x746,NA,ITT Ratings,2,against,4,NA,NA,ACCEPT,NA,NA,NA,NA,NA,NA,NA,batch4pro,batch4pro,63,55,1,Screen 1,continueButton,response_rating_scale_likert_active,4082.799999952316,NA,NA,Neither Agree nor Disagree,1,0,1,0,NA,NA,NA,NA,1,statements,I trust the scientists/science,1,17/06/2021 12:46,17/06/2021 12:54,IP Address,For (I feel positively about the vaccines),Once or twice a year,Once or twice a year,38,Female,NA,"Undergraduate degree (BSc, BA)",control,40,3,For,For
58,1659954989130,08/08/2022 10:36:29,1659954989151,1,08/08/2022 11:36:29,94118,2,task-mn1e,NA,23521831,6893517,NA,complete,NA,62f0e3aafd49c74c0958035d,computer,Desktop or Laptop,Windows 10,Chrome 104.0.0.0,1536x864,1519x746,NA,ITT Ratings,2,against,4,NA,NA,ACCEPT,NA,NA,NA,NA,NA,NA,NA,batch4pro,batch4pro,41,56,1,Screen 1,continueButton,response_rating_scale_likert_active,3565.699999988079,NA,NA,Strongly Agree,1,0,1,0,NA,NA,NA,NA,1,statements,I am worried about the side effevts,1,17/06/2021 12:45,17/06/2021 12:54,IP Address,For (I feel positively about the vaccines),Rarely,Rarely,30,Female,NA,"Undergraduate degree (BSc, BA)",choice,37,2,For,Against
59,1659954995020,08/08/2022 10:36:35,1659954994758,1,08/08/2022 11:36:34,94118,2,task-mn1e,NA,23521831,6893517,NA,complete,NA,62f0e3aafd49c74c0958035d,computer,Desktop or Laptop,Windows 10,Chrome 104.0.0.0,1536x864,1519x746,NA,ITT Ratings,2,against,4,NA,NA,ACCEPT,NA,NA,NA,NA,NA,NA,NA,batch4pro,batch4pro,5,57,1,Screen 1,continueButton,response_rating_scale_likert_active,5590.399999976158,NA,NA,Agree,1,0,1,0,NA,NA,NA,NA,1,statements,"Can cause a dramatic side effect, such as infertility",1,17/06/2021 12:43,17/06/2021 12:52,IP Address,For (I feel positively about the vaccines),Rarely,Rarely,34,Male,NA,Doctorate (PhD),control,31,2,For,Against
60,1659955000425,08/08/2022 10:36:40,1659955000447,1,08/08/2022 11:36:40,94118,2,task-mn1e,NA,23521831,6893517,NA,complete,NA,62f0e3aafd49c74c0958035d,computer,Desktop or Laptop,Windows 10,Chrome 104.0.0.0,1536x864,1519x746,NA,ITT Ratings,2,against,4,NA,NA,ACCEPT,NA,NA,NA,NA,NA,NA,NA,batch4pro,batch4pro,23,58,1,Screen 1,continueButton,response_rating_scale_likert_active,5674.200000047684,NA,NA,Neither Agree nor Disagree,1,0,1,0,NA,NA,NA,NA,1,statements,Protection for others,1,17/06/2021 12:45,17/06/2021 12:53,IP Address,For (I feel positively about the vaccines),Rarely,Rarely,38,Male,NA,"Undergraduate degree (BSc, BA)",choice,34,2,For,Against
61,1659955004942,08/08/2022 10:36:44,1659955004116,1,08/08/2022 11:36:44,94118,2,task-mn1e,NA,23521831,6893517,NA,complete,NA,62f0e3aafd49c74c0958035d,computer,Desktop or Laptop,Windows 10,Chrome 104.0.0.0,1536x864,1519x746,NA,ITT Ratings,2,against,4,NA,NA,ACCEPT,NA,NA,NA,NA,NA,NA,NA,batch4pro,batch4pro,16,59,1,Screen 1,continueButton,response_rating_scale_likert_active,3649.100000023842,NA,NA,Strongly Agree,1,0,1,0,NA,NA,NA,NA,1,statements,Side effects worrying,1,17/06/2021 12:41,17/06/2021 12:53,IP Address,For (I feel positively about the vaccines),Rarely,Rarely,45,Female,NA,"Undergraduate degree (BSc, BA)",choice,33,1,For,Against
62,1659955010045,08/08/2022 10:36:50,1659955010065,1,08/08/2022 11:36:50,94118,2,task-mn1e,NA,23521831,6893517,NA,complete,NA,62f0e3aafd49c74c0958035d,computer,Desktop or Laptop,Windows 10,Chrome 104.0.0.0,1536x864,1519x746,NA,ITT Ratings,2,against,4,NA,NA,ACCEPT,NA,NA,NA,NA,NA,NA,NA,batch4pro,batch4pro,54,60,1,Screen 1,continueButton,response_rating_scale_likert_active,5933,NA,NA,Somewhat Agree,1,0,1,0,NA,NA,NA,NA,1,statements,It's a conspiracy - Covid is man made and the government want us all to have vaccine,1,17/06/2021 12:47,17/06/2021 12:54,IP Address,For (I feel positively about the vaccines),Rarely,A few times a year,31,Female,NA,"Postgraduate degree (MSc, MA, MPhil)",choice,39,3,For,Against
63,1659955015114,08/08/2022 10:36:55,1659955014465,1,08/08/2022 11:36:54,94118,2,task-mn1e,NA,23521831,6893517,NA,complete,NA,62f0e3aafd49c74c0958035d,computer,Desktop or Laptop,Windows 10,Chrome 104.0.0.0,1536x864,1519x746,NA,ITT Ratings,2,against,4,NA,NA,ACCEPT,NA,NA,NA,NA,NA,NA,NA,batch4pro,batch4pro,15,61,1,Screen 1,continueButton,response_rating_scale_likert_active,4387.399999976158,NA,NA,Strongly Disagree,1,0,1,0,NA,NA,NA,NA,1,statements,For life to return to normal you need the vaccine,1,17/06/2021 12:43,17/06/2021 12:52,IP Address,For (I feel positively about the vaccines),Rarely,Most weeks,25,Female,NA,"Postgraduate degree (MSc, MA, MPhil)",choice,32,3,For,For
64,1659955030457,08/08/2022 10:37:10,1659955030477,1,08/08/2022 11:37:10,94118,2,task-mn1e,NA,23521831,6893517,NA,complete,NA,62f0e3aafd49c74c0958035d,computer,Desktop or Laptop,Windows 10,Chrome 104.0.0.0,1536x864,1519x746,NA,ITT Ratings,2,against,4,NA,NA,ACCEPT,NA,NA,NA,NA,NA,NA,NA,batch4pro,batch4pro,27,62,1,Screen 1,continueButton,response_rating_scale_likert_active,15984.400000035765,NA,NA,Strongly Disagree,1,0,1,0,NA,NA,NA,NA,1,statements,The ability to end lockdown and restart the economy fully in turn giving us all the freedom we have been used to. By not having the vaccine the chances of leaving lockdown and having a normal reduce,1,17/06/2021 12:45,17/06/2021 12:53,IP Address,For (I feel positively about the vaccines),Rarely,Rarely,38,Male,NA,"Undergraduate degree (BSc, BA)",choice,34,3,For,For
65,1659955030692,08/08/2022 10:37:10,1659955030495,1,08/08/2022 11:37:10,94118,2,task-mn1e,NA,23521831,6893517,NA,complete,NA,62f0e3aafd49c74c0958035d,computer,Desktop or Laptop,Windows 10,Chrome 104.0.0.0,1536x864,1519x746,NA,ITT Ratings,2,against,4,NA,NA,ACCEPT,NA,NA,NA,NA,NA,NA,NA,batch4pro,NA,NA,END TASK,NA,NA,NA,NA,850997,NA,NA,NA,NA,0,1,0,NA,NA,NA,NA,NA,NA,NA,NA,NA,NA,NA,NA,NA,NA,NA,NA,NA,NA,NA,NA,NA,NA,NA
1,1659954782535,08/08/2022 10:33:02,1659954783722,1,08/08/2022 11:33:03,94118,2,task-mn1e,NA,23522085,6893598,NA,complete,NA,62f0e60c61c08e644319c1b9,computer,Desktop or Laptop,Windows 10,Chrome 103.0.0.0,1920x1080,1920x1007,NA,ITT Ratings,2,against,4,NA,NA,ACCEPT,NA,NA,NA,NA,NA,NA,NA,batch4pro,NA,NA,BEGIN TASK,NA,NA,NA,NA,NA,NA,NA,NA,NA,0,1,0,NA,NA,NA,NA,NA,NA,NA,NA,NA,NA,NA,NA,NA,NA,NA,NA,NA,NA,NA,NA,NA,NA,NA
2,1659954793766,08/08/2022 10:33:13,1659954794998,1,08/08/2022 11:33:14,94118,2,task-mn1e,NA,23522085,6893598,NA,complete,NA,62f0e60c61c08e644319c1b9,computer,Desktop or Laptop,Windows 10,Chrome 103.0.0.0,1920x1080,1920x1007,NA,ITT Ratings,2,against,4,NA,NA,ACCEPT,NA,NA,NA,NA,NA,NA,NA,batch4pro,batch4pro,1,1,1,Screen 1,advancementZone,continue_button,11240.099999904633,NA,NA,NA,NA,0,1,0,NA,NA,NA,NA,NA,instructions,NA,NA,NA,NA,NA,NA,NA,NA,NA,NA,NA,NA,NA,NA,NA,NA,NA
3,1659954803025,08/08/2022 10:33:23,1659954804276,1,08/08/2022 11:33:24,94118,2,task-mn1e,NA,23522085,6893598,NA,complete,NA,62f0e60c61c08e644319c1b9,computer,Desktop or Laptop,Windows 10,Chrome 103.0.0.0,1920x1080,1920x1007,NA,ITT Ratings,2,against,4,NA,NA,ACCEPT,NA,NA,NA,NA,NA,NA,NA,batch4pro,batch4pro,24,1,1,Screen 1,continueButton,response_rating_scale_likert_active,9263.600000143051,NA,NA,Somewhat Agree,1,0,1,0,NA,NA,NA,NA,1,statements,Allow us to get back to normal life,1,17/06/2021 12:45,17/06/2021 12:53,IP Address,For (I feel positively about the vaccines),Rarely,Rarely,38,Male,NA,"Undergraduate degree (BSc, BA)",choice,34,3,For,Against
4,1659954805168,08/08/2022 10:33:25,1659954806388,1,08/08/2022 11:33:26,94118,2,task-mn1e,NA,23522085,6893598,NA,complete,NA,62f0e60c61c08e644319c1b9,computer,Desktop or Laptop,Windows 10,Chrome 103.0.0.0,1920x1080,1920x1007,NA,ITT Ratings,2,against,4,NA,NA,ACCEPT,NA,NA,NA,NA,NA,NA,NA,batch4pro,batch4pro,49,2,1,Screen 1,continueButton,response_rating_scale_likert_active,2103.300000190735,NA,NA,Somewhat Agree,1,0,1,0,NA,NA,NA,NA,1,statements,To help the world go back to normal,1,17/06/2021 12:49,17/06/2021 12:54,IP Address,For (I feel positively about the vaccines),Rarely,Once or twice a year,20,Female,NA,Vocational Training / Apprenticeship,control,38,1,For,For
5,1659954808989,08/08/2022 10:33:28,1659954810224,1,08/08/2022 11:33:30,94118,2,task-mn1e,NA,23522085,6893598,NA,complete,NA,62f0e60c61c08e644319c1b9,computer,Desktop or Laptop,Windows 10,Chrome 103.0.0.0,1920x1080,1920x1007,NA,ITT Ratings,2,against,4,NA,NA,ACCEPT,NA,NA,NA,NA,NA,NA,NA,batch4pro,batch4pro,60,3,1,Screen 1,continueButton,response_rating_scale_likert_active,3827.099999904633,NA,NA,Strongly Agree,1,0,1,0,NA,NA,NA,NA,1,statements,There are issues around blood clots and fertility,1,17/06/2021 12:46,17/06/2021 12:54,IP Address,For (I feel positively about the vaccines),Once or twice a year,Once or twice a year,38,Female,NA,"Undergraduate degree (BSc, BA)",control,40,3,For,Against
6,1659954815268,08/08/2022 10:33:35,1659954816512,1,08/08/2022 11:33:36,94118,2,task-mn1e,NA,23522085,6893598,NA,complete,NA,62f0e60c61c08e644319c1b9,computer,Desktop or Laptop,Windows 10,Chrome 103.0.0.0,1920x1080,1920x1007,NA,ITT Ratings,2,against,4,NA,NA,ACCEPT,NA,NA,NA,NA,NA,NA,NA,batch4pro,batch4pro,62,4,1,Screen 1,continueButton,response_rating_scale_likert_active,6278.100000143051,NA,NA,Strongly Agree,1,0,1,0,NA,NA,NA,NA,1,statements,"I wish to protect other people including family, friends and colleagues",1,17/06/2021 12:46,17/06/2021 12:54,IP Address,For (I feel positively about the vaccines),Once or twice a year,Once or twice a year,38,Female,NA,"Undergraduate degree (BSc, BA)",control,40,2,For,For
7,1659954818364,08/08/2022 10:33:38,1659954819600,1,08/08/2022 11:33:39,94118,2,task-mn1e,NA,23522085,6893598,NA,complete,NA,62f0e60c61c08e644319c1b9,computer,Desktop or Laptop,Windows 10,Chrome 103.0.0.0,1920x1080,1920x1007,NA,ITT Ratings,2,against,4,NA,NA,ACCEPT,NA,NA,NA,NA,NA,NA,NA,batch4pro,batch4pro,46,5,1,Screen 1,continueButton,response_rating_scale_likert_active,3072.399999856949,NA,NA,Strongly Disagree,1,0,1,0,NA,NA,NA,NA,1,statements,Can help prevent you getting it,1,17/06/2021 12:49,17/06/2021 12:54,IP Address,For (I feel positively about the vaccines),Rarely,Once or twice a year,20,Female,NA,Vocational Training / Apprenticeship,control,38,1,For,Against
8,1659954828786,08/08/2022 10:33:48,1659954830030,1,08/08/2022 11:33:50,94118,2,task-mn1e,NA,23522085,6893598,NA,complete,NA,62f0e60c61c08e644319c1b9,computer,Desktop or Laptop,Windows 10,Chrome 103.0.0.0,1920x1080,1920x1007,NA,ITT Ratings,2,against,4,NA,NA,ACCEPT,NA,NA,NA,NA,NA,NA,NA,batch4pro,batch4pro,25,6,1,Screen 1,continueButton,response_rating_scale_likert_active,10420.5,NA,NA,Somewhat Disagree,1,0,1,0,NA,NA,NA,NA,1,statements,Protecting Health of yourself and protecting people around you by breaking the infection trend therefore avoiding illness and hospital stays.,1,17/06/2021 12:45,17/06/2021 12:53,IP Address,For (I feel positively about the vaccines),Rarely,Rarely,38,Male,NA,"Undergraduate degree (BSc, BA)",choice,34,1,For,For
9,1659954832908,08/08/2022 10:33:52,1659954834141,1,08/08/2022 11:33:54,94118,2,task-mn1e,NA,23522085,6893598,NA,complete,NA,62f0e60c61c08e644319c1b9,computer,Desktop or Laptop,Windows 10,Chrome 103.0.0.0,1920x1080,1920x1007,NA,ITT Ratings,2,against,4,NA,NA,ACCEPT,NA,NA,NA,NA,NA,NA,NA,batch4pro,batch4pro,45,7,1,Screen 1,continueButton,response_rating_scale_likert_active,4098.299999952316,NA,NA,Strongly Disagree,1,0,1,0,NA,NA,NA,NA,1,statements,So they don't die from it,1,17/06/2021 12:45,17/06/2021 12:54,IP Address,For (I feel positively about the vaccines),Rarely,Rarely,30,Female,NA,"Undergraduate degree (BSc, BA)",choice,37,3,For,For
10,1659954836765,08/08/2022 10:33:56,1659954837995,1,08/08/2022 11:33:57,94118,2,task-mn1e,NA,23522085,6893598,NA,complete,NA,62f0e60c61c08e644319c1b9,computer,Desktop or Laptop,Windows 10,Chrome 103.0.0.0,1920x1080,1920x1007,NA,ITT Ratings,2,against,4,NA,NA,ACCEPT,NA,NA,NA,NA,NA,NA,NA,batch4pro,batch4pro,22,8,1,Screen 1,continueButton,response_rating_scale_likert_active,3845.900000095367,NA,NA,Somewhat Disagree,1,0,1,0,NA,NA,NA,NA,1,statements,Protection for yourself,1,17/06/2021 12:45,17/06/2021 12:53,IP Address,For (I feel positively about the vaccines),Rarely,Rarely,38,Male,NA,"Undergraduate degree (BSc, BA)",choice,34,1,For,Against
11,1659954839850,08/08/2022 10:33:59,1659954841081,1,08/08/2022 11:34:01,94118,2,task-mn1e,NA,23522085,6893598,NA,complete,NA,62f0e60c61c08e644319c1b9,computer,Desktop or Laptop,Windows 10,Chrome 103.0.0.0,1920x1080,1920x1007,NA,ITT Ratings,2,against,4,NA,NA,ACCEPT,NA,NA,NA,NA,NA,NA,NA,batch4pro,batch4pro,20,9,1,Screen 1,continueButton,response_rating_scale_likert_active,3076.899999856949,NA,NA,Somewhat Agree,1,0,1,0,NA,NA,NA,NA,1,statements,To get back to a sense of normality.,1,17/06/2021 12:41,17/06/2021 12:53,IP Address,For (I feel positively about the vaccines),Rarely,Rarely,45,Female,NA,"Undergraduate degree (BSc, BA)",choice,33,2,For,For
12,1659954842798,08/08/2022 10:34:02,1659954844036,1,08/08/2022 11:34:04,94118,2,task-mn1e,NA,23522085,6893598,NA,complete,NA,62f0e60c61c08e644319c1b9,computer,Desktop or Laptop,Windows 10,Chrome 103.0.0.0,1920x1080,1920x1007,NA,ITT Ratings,2,against,4,NA,NA,ACCEPT,NA,NA,NA,NA,NA,NA,NA,batch4pro,batch4pro,12,10,1,Screen 1,continueButton,response_rating_scale_likert_active,2945.7000000476837,NA,NA,Strongly Agree,1,0,1,0,NA,NA,NA,NA,1,statements,I might get covid anyway so what's the point,1,17/06/2021 12:43,17/06/2021 12:52,IP Address,For (I feel positively about the vaccines),Rarely,Most weeks,25,Female,NA,"Postgraduate degree (MSc, MA, MPhil)",choice,32,3,For,Against
13,1659954844829,08/08/2022 10:34:04,1659954846068,1,08/08/2022 11:34:06,94118,2,task-mn1e,NA,23522085,6893598,NA,complete,NA,62f0e60c61c08e644319c1b9,computer,Desktop or Laptop,Windows 10,Chrome 103.0.0.0,1920x1080,1920x1007,NA,ITT Ratings,2,against,4,NA,NA,ACCEPT,NA,NA,NA,NA,NA,NA,NA,batch4pro,batch4pro,29,11,1,Screen 1,continueButton,response_rating_scale_likert_active,2023.3999998569489,NA,NA,Strongly Agree,1,0,1,0,NA,NA,NA,NA,1,statements,We don't know the long term effects,1,17/06/2021 12:45,17/06/2021 12:53,IP Address,For (I feel positively about the vaccines),Rarely,Once or twice a year,30,Female,NA,"Undergraduate degree (BSc, BA)",choice,35,2,For,Against
14,1659954847769,08/08/2022 10:34:07,1659954849015,1,08/08/2022 11:34:09,94118,2,task-mn1e,NA,23522085,6893598,NA,complete,NA,62f0e60c61c08e644319c1b9,computer,Desktop or Laptop,Windows 10,Chrome 103.0.0.0,1920x1080,1920x1007,NA,ITT Ratings,2,against,4,NA,NA,ACCEPT,NA,NA,NA,NA,NA,NA,NA,batch4pro,batch4pro,41,12,1,Screen 1,continueButton,response_rating_scale_likert_active,2938.400000095367,NA,NA,Strongly Agree,1,0,1,0,NA,NA,NA,NA,1,statements,I am worried about the side effevts,1,17/06/2021 12:45,17/06/2021 12:54,IP Address,For (I feel positively about the vaccines),Rarely,Rarely,30,Female,NA,"Undergraduate degree (BSc, BA)",choice,37,2,For,Against
15,1659954853776,08/08/2022 10:34:13,1659954855014,1,08/08/2022 11:34:15,94118,2,task-mn1e,NA,23522085,6893598,NA,complete,NA,62f0e60c61c08e644319c1b9,computer,Desktop or Laptop,Windows 10,Chrome 103.0.0.0,1920x1080,1920x1007,NA,ITT Ratings,2,against,4,NA,NA,ACCEPT,NA,NA,NA,NA,NA,NA,NA,batch4pro,batch4pro,47,13,1,Screen 1,continueButton,response_rating_scale_likert_active,5990.299999952316,NA,NA,Somewhat Agree,1,0,1,0,NA,NA,NA,NA,1,statements,Will make the world go back to some sort of normal,1,17/06/2021 12:49,17/06/2021 12:54,IP Address,For (I feel positively about the vaccines),Rarely,Once or twice a year,20,Female,NA,Vocational Training / Apprenticeship,control,38,2,For,Against
16,1659954859722,08/08/2022 10:34:19,1659954860959,1,08/08/2022 11:34:20,94118,2,task-mn1e,NA,23522085,6893598,NA,complete,NA,62f0e60c61c08e644319c1b9,computer,Desktop or Laptop,Windows 10,Chrome 103.0.0.0,1920x1080,1920x1007,NA,ITT Ratings,2,against,4,NA,NA,ACCEPT,NA,NA,NA,NA,NA,NA,NA,batch4pro,batch4pro,21,14,1,Screen 1,continueButton,response_rating_scale_likert_active,5887.599999904633,NA,NA,Somewhat Disagree,1,0,1,0,NA,NA,NA,NA,1,statements,They don’t want the potential worry of getting COVID.,1,17/06/2021 12:41,17/06/2021 12:53,IP Address,For (I feel positively about the vaccines),Rarely,Rarely,45,Female,NA,"Undergraduate degree (BSc, BA)",choice,33,3,For,For
17,1659954863750,08/08/2022 10:34:23,1659954864964,1,08/08/2022 11:34:24,94118,2,task-mn1e,NA,23522085,6893598,NA,complete,NA,62f0e60c61c08e644319c1b9,computer,Desktop or Laptop,Windows 10,Chrome 103.0.0.0,1920x1080,1920x1007,NA,ITT Ratings,2,against,4,NA,NA,ACCEPT,NA,NA,NA,NA,NA,NA,NA,batch4pro,batch4pro,3,15,1,Screen 1,continueButton,response_rating_scale_likert_active,3997.5,NA,NA,Somewhat Disagree,1,0,1,0,NA,NA,NA,NA,1,statements,We would like to check you are reading each argument carefully. Please select 'Somewhat Disagree' for this answer,1,NA,NA,NA,NA,NA,NA,NA,NA,NA,NA,NA,NA,check2,NA,NA
18,1659954867012,08/08/2022 10:34:27,1659954868261,1,08/08/2022 11:34:28,94118,2,task-mn1e,NA,23522085,6893598,NA,complete,NA,62f0e60c61c08e644319c1b9,computer,Desktop or Laptop,Windows 10,Chrome 103.0.0.0,1920x1080,1920x1007,NA,ITT Ratings,2,against,4,NA,NA,ACCEPT,NA,NA,NA,NA,NA,NA,NA,batch4pro,batch4pro,5,16,1,Screen 1,continueButton,response_rating_scale_likert_active,3288.2000000476837,NA,NA,Strongly Agree,1,0,1,0,NA,NA,NA,NA,1,statements,"Can cause a dramatic side effect, such as infertility",1,17/06/2021 12:43,17/06/2021 12:52,IP Address,For (I feel positively about the vaccines),Rarely,Rarely,34,Male,NA,Doctorate (PhD),control,31,2,For,Against
19,1659954869796,08/08/2022 10:34:29,1659954871047,1,08/08/2022 11:34:31,94118,2,task-mn1e,NA,23522085,6893598,NA,complete,NA,62f0e60c61c08e644319c1b9,computer,Desktop or Laptop,Windows 10,Chrome 103.0.0.0,1920x1080,1920x1007,NA,ITT Ratings,2,against,4,NA,NA,ACCEPT,NA,NA,NA,NA,NA,NA,NA,batch4pro,batch4pro,26,17,1,Screen 1,continueButton,response_rating_scale_likert_active,2778.099999904633,NA,NA,Disagree,1,0,1,0,NA,NA,NA,NA,1,statements,Avoiding severe illness,1,17/06/2021 12:45,17/06/2021 12:53,IP Address,For (I feel positively about the vaccines),Rarely,Rarely,38,Male,NA,"Undergraduate degree (BSc, BA)",choice,34,2,For,For
20,1659954872398,08/08/2022 10:34:32,1659954873647,1,08/08/2022 11:34:33,94118,2,task-mn1e,NA,23522085,6893598,NA,complete,NA,62f0e60c61c08e644319c1b9,computer,Desktop or Laptop,Windows 10,Chrome 103.0.0.0,1920x1080,1920x1007,NA,ITT Ratings,2,against,4,NA,NA,ACCEPT,NA,NA,NA,NA,NA,NA,NA,batch4pro,batch4pro,56,18,1,Screen 1,continueButton,response_rating_scale_likert_active,2592.2999999523163,NA,NA,Agree,1,0,1,0,NA,NA,NA,NA,1,statements,"I want to protect myself, my friends and my family",1,17/06/2021 12:47,17/06/2021 12:54,IP Address,For (I feel positively about the vaccines),Rarely,A few times a year,31,Female,NA,"Postgraduate degree (MSc, MA, MPhil)",choice,39,2,For,For
21,1659954877245,08/08/2022 10:34:37,1659954878492,1,08/08/2022 11:34:38,94118,2,task-mn1e,NA,23522085,6893598,NA,complete,NA,62f0e60c61c08e644319c1b9,computer,Desktop or Laptop,Windows 10,Chrome 103.0.0.0,1920x1080,1920x1007,NA,ITT Ratings,2,against,4,NA,NA,ACCEPT,NA,NA,NA,NA,NA,NA,NA,batch4pro,batch4pro,15,19,1,Screen 1,continueButton,response_rating_scale_likert_active,4836.299999952316,NA,NA,Somewhat Disagree,1,0,1,0,NA,NA,NA,NA,1,statements,For life to return to normal you need the vaccine,1,17/06/2021 12:43,17/06/2021 12:52,IP Address,For (I feel positively about the vaccines),Rarely,Most weeks,25,Female,NA,"Postgraduate degree (MSc, MA, MPhil)",choice,32,3,For,For
22,1659954880716,08/08/2022 10:34:40,1659954881963,1,08/08/2022 11:34:41,94118,2,task-mn1e,NA,23522085,6893598,NA,complete,NA,62f0e60c61c08e644319c1b9,computer,Desktop or Laptop,Windows 10,Chrome 103.0.0.0,1920x1080,1920x1007,NA,ITT Ratings,2,against,4,NA,NA,ACCEPT,NA,NA,NA,NA,NA,NA,NA,batch4pro,batch4pro,38,20,1,Screen 1,continueButton,response_rating_scale_likert_active,3464.099999904633,NA,NA,Somewhat Agree,1,0,1,0,NA,NA,NA,NA,1,statements,I want to protect elderly relatives and friends,1,17/06/2021 12:46,17/06/2021 12:53,IP Address,For (I feel positively about the vaccines),Rarely,Most weeks,22,Non-binary,NA,"Undergraduate degree (BSc, BA)",control,36,2,For,For
23,1659954882193,08/08/2022 10:34:42,1659954883442,1,08/08/2022 11:34:43,94118,2,task-mn1e,NA,23522085,6893598,NA,complete,NA,62f0e60c61c08e644319c1b9,computer,Desktop or Laptop,Windows 10,Chrome 103.0.0.0,1920x1080,1920x1007,NA,ITT Ratings,2,against,4,NA,NA,ACCEPT,NA,NA,NA,NA,NA,NA,NA,batch4pro,batch4pro,23,21,1,Screen 1,continueButton,response_rating_scale_likert_active,1471.1000001430511,NA,NA,Somewhat Agree,1,0,1,0,NA,NA,NA,NA,1,statements,Protection for others,1,17/06/2021 12:45,17/06/2021 12:53,IP Address,For (I feel positively about the vaccines),Rarely,Rarely,38,Male,NA,"Undergraduate degree (BSc, BA)",choice,34,2,For,Against
24,1659954887564,08/08/2022 10:34:47,1659954888814,1,08/08/2022 11:34:48,94118,2,task-mn1e,NA,23522085,6893598,NA,complete,NA,62f0e60c61c08e644319c1b9,computer,Desktop or Laptop,Windows 10,Chrome 103.0.0.0,1920x1080,1920x1007,NA,ITT Ratings,2,against,4,NA,NA,ACCEPT,NA,NA,NA,NA,NA,NA,NA,batch4pro,batch4pro,6,22,1,Screen 1,continueButton,response_rating_scale_likert_active,5365,NA,NA,Neither Agree nor Disagree,1,0,1,0,NA,NA,NA,NA,1,statements,I don't like needles/felt unwell for a brief period after a previous vaccine,1,17/06/2021 12:43,17/06/2021 12:52,IP Address,For (I feel positively about the vaccines),Rarely,Rarely,34,Male,NA,Doctorate (PhD),control,31,3,For,Against
25,1659954891360,08/08/2022 10:34:51,1659954892600,1,08/08/2022 11:34:52,94118,2,task-mn1e,NA,23522085,6893598,NA,complete,NA,62f0e60c61c08e644319c1b9,computer,Desktop or Laptop,Windows 10,Chrome 103.0.0.0,1920x1080,1920x1007,NA,ITT Ratings,2,against,4,NA,NA,ACCEPT,NA,NA,NA,NA,NA,NA,NA,batch4pro,batch4pro,59,23,1,Screen 1,continueButton,response_rating_scale_likert_active,3777.5,NA,NA,Strongly Agree,1,0,1,0,NA,NA,NA,NA,1,statements,We do not know what harm they can cause in the future,1,17/06/2021 12:46,17/06/2021 12:54,IP Address,For (I feel positively about the vaccines),Once or twice a year,Once or twice a year,38,Female,NA,"Undergraduate degree (BSc, BA)",control,40,2,For,Against
26,1659954893957,08/08/2022 10:34:53,1659954895206,1,08/08/2022 11:34:55,94118,2,task-mn1e,NA,23522085,6893598,NA,complete,NA,62f0e60c61c08e644319c1b9,computer,Desktop or Laptop,Windows 10,Chrome 103.0.0.0,1920x1080,1920x1007,NA,ITT Ratings,2,against,4,NA,NA,ACCEPT,NA,NA,NA,NA,NA,NA,NA,batch4pro,batch4pro,19,24,1,Screen 1,continueButton,response_rating_scale_likert_active,2598,NA,NA,Somewhat Disagree,1,0,1,0,NA,NA,NA,NA,1,statements,To be safe and healthy,1,17/06/2021 12:41,17/06/2021 12:53,IP Address,For (I feel positively about the vaccines),Rarely,Rarely,45,Female,NA,"Undergraduate degree (BSc, BA)",choice,33,1,For,For
27,1659954899190,08/08/2022 10:34:59,1659954900437,1,08/08/2022 11:35:00,94118,2,task-mn1e,NA,23522085,6893598,NA,complete,NA,62f0e60c61c08e644319c1b9,computer,Desktop or Laptop,Windows 10,Chrome 103.0.0.0,1920x1080,1920x1007,NA,ITT Ratings,2,against,4,NA,NA,ACCEPT,NA,NA,NA,NA,NA,NA,NA,batch4pro,batch4pro,14,25,1,Screen 1,continueButton,response_rating_scale_likert_active,5222.799999952316,NA,NA,Strongly Disagree,1,0,1,0,NA,NA,NA,NA,1,statements,Vaccine companies are not making a profit so why not get it,1,17/06/2021 12:43,17/06/2021 12:52,IP Address,For (I feel positively about the vaccines),Rarely,Most weeks,25,Female,NA,"Postgraduate degree (MSc, MA, MPhil)",choice,32,2,For,For
28,1659954903547,08/08/2022 10:35:03,1659954904798,1,08/08/2022 11:35:04,94118,2,task-mn1e,NA,23522085,6893598,NA,complete,NA,62f0e60c61c08e644319c1b9,computer,Desktop or Laptop,Windows 10,Chrome 103.0.0.0,1920x1080,1920x1007,NA,ITT Ratings,2,against,4,NA,NA,ACCEPT,NA,NA,NA,NA,NA,NA,NA,batch4pro,batch4pro,44,26,1,Screen 1,continueButton,response_rating_scale_likert_active,4350.899999856949,NA,NA,Neither Agree nor Disagree,1,0,1,0,NA,NA,NA,NA,1,statements,To stop me becoming unwell with it,1,17/06/2021 12:45,17/06/2021 12:54,IP Address,For (I feel positively about the vaccines),Rarely,Rarely,30,Female,NA,"Undergraduate degree (BSc, BA)",choice,37,2,For,For
29,1659954907843,08/08/2022 10:35:07,1659954909091,1,08/08/2022 11:35:09,94118,2,task-mn1e,NA,23522085,6893598,NA,complete,NA,62f0e60c61c08e644319c1b9,computer,Desktop or Laptop,Windows 10,Chrome 103.0.0.0,1920x1080,1920x1007,NA,ITT Ratings,2,against,4,NA,NA,ACCEPT,NA,NA,NA,NA,NA,NA,NA,batch4pro,batch4pro,8,27,1,Screen 1,continueButton,response_rating_scale_likert_active,4283.799999952316,NA,NA,Strongly Disagree,1,0,1,0,NA,NA,NA,NA,1,statements,It helps me to protect myself and others from becoming seriously ill.,1,17/06/2021 12:43,17/06/2021 12:52,IP Address,For (I feel positively about the vaccines),Rarely,Rarely,34,Male,NA,Doctorate (PhD),control,31,2,For,For
30,1659954911040,08/08/2022 10:35:11,1659954912277,1,08/08/2022 11:35:12,94118,2,task-mn1e,NA,23522085,6893598,NA,complete,NA,62f0e60c61c08e644319c1b9,computer,Desktop or Laptop,Windows 10,Chrome 103.0.0.0,1920x1080,1920x1007,NA,ITT Ratings,2,against,4,NA,NA,ACCEPT,NA,NA,NA,NA,NA,NA,NA,batch4pro,batch4pro,32,28,1,Screen 1,continueButton,response_rating_scale_likert_active,3178.7000000476837,NA,NA,Somewhat Agree,1,0,1,0,NA,NA,NA,NA,1,statements,I want to help protect others,1,17/06/2021 12:45,17/06/2021 12:53,IP Address,For (I feel positively about the vaccines),Rarely,Once or twice a year,30,Female,NA,"Undergraduate degree (BSc, BA)",choice,35,2,For,For
31,1659954926422,08/08/2022 10:35:26,1659954927667,1,08/08/2022 11:35:27,94118,2,task-mn1e,NA,23522085,6893598,NA,complete,NA,62f0e60c61c08e644319c1b9,computer,Desktop or Laptop,Windows 10,Chrome 103.0.0.0,1920x1080,1920x1007,NA,ITT Ratings,2,against,4,NA,NA,ACCEPT,NA,NA,NA,NA,NA,NA,NA,batch4pro,batch4pro,61,29,1,Screen 1,continueButton,response_rating_scale_likert_active,15379.199999809263,NA,NA,Strongly Agree,1,0,1,0,NA,NA,NA,NA,1,statements,I am vulnerable to covid 19,1,17/06/2021 12:46,17/06/2021 12:54,IP Address,For (I feel positively about the vaccines),Once or twice a year,Once or twice a year,38,Female,NA,"Undergraduate degree (BSc, BA)",control,40,1,For,For
32,1659954941250,08/08/2022 10:35:41,1659954942487,1,08/08/2022 11:35:42,94118,2,task-mn1e,NA,23522085,6893598,NA,complete,NA,62f0e60c61c08e644319c1b9,computer,Desktop or Laptop,Windows 10,Chrome 103.0.0.0,1920x1080,1920x1007,NA,ITT Ratings,2,against,4,NA,NA,ACCEPT,NA,NA,NA,NA,NA,NA,NA,batch4pro,batch4pro,31,30,1,Screen 1,continueButton,response_rating_scale_likert_active,14811.5,NA,NA,Neither Agree nor Disagree,1,0,1,0,NA,NA,NA,NA,1,statements,I want to be well protected,1,17/06/2021 12:45,17/06/2021 12:53,IP Address,For (I feel positively about the vaccines),Rarely,Once or twice a year,30,Female,NA,"Undergraduate degree (BSc, BA)",choice,35,1,For,For
33,1659954944842,08/08/2022 10:35:44,1659954946094,1,08/08/2022 11:35:46,94118,2,task-mn1e,NA,23522085,6893598,NA,complete,NA,62f0e60c61c08e644319c1b9,computer,Desktop or Laptop,Windows 10,Chrome 103.0.0.0,1920x1080,1920x1007,NA,ITT Ratings,2,against,4,NA,NA,ACCEPT,NA,NA,NA,NA,NA,NA,NA,batch4pro,batch4pro,37,31,1,Screen 1,continueButton,response_rating_scale_likert_active,3598.899999856949,NA,NA,Neither Agree nor Disagree,1,0,1,0,NA,NA,NA,NA,1,statements,Idon't want to die from Covid-19,1,17/06/2021 12:46,17/06/2021 12:53,IP Address,For (I feel positively about the vaccines),Rarely,Most weeks,22,Non-binary,NA,"Undergraduate degree (BSc, BA)",control,36,1,For,For
34,1659954947879,08/08/2022 10:35:47,1659954949129,1,08/08/2022 11:35:49,94118,2,task-mn1e,NA,23522085,6893598,NA,complete,NA,62f0e60c61c08e644319c1b9,computer,Desktop or Laptop,Windows 10,Chrome 103.0.0.0,1920x1080,1920x1007,NA,ITT Ratings,2,against,4,NA,NA,ACCEPT,NA,NA,NA,NA,NA,NA,NA,batch4pro,batch4pro,18,32,1,Screen 1,continueButton,response_rating_scale_likert_active,3026.7999999523163,NA,NA,Strongly Disagree,1,0,1,0,NA,NA,NA,NA,1,statements,I have a bee allergy,1,17/06/2021 12:41,17/06/2021 12:53,IP Address,For (I feel positively about the vaccines),Rarely,Rarely,45,Female,NA,"Undergraduate degree (BSc, BA)",choice,33,3,For,Against
35,1659954951220,08/08/2022 10:35:51,1659954952475,1,08/08/2022 11:35:52,94118,2,task-mn1e,NA,23522085,6893598,NA,complete,NA,62f0e60c61c08e644319c1b9,computer,Desktop or Laptop,Windows 10,Chrome 103.0.0.0,1920x1080,1920x1007,NA,ITT Ratings,2,against,4,NA,NA,ACCEPT,NA,NA,NA,NA,NA,NA,NA,batch4pro,batch4pro,48,33,1,Screen 1,continueButton,response_rating_scale_likert_active,3337.5,NA,NA,Strongly Disagree,1,0,1,0,NA,NA,NA,NA,1,statements,You will most likely need it to travel,1,17/06/2021 12:49,17/06/2021 12:54,IP Address,For (I feel positively about the vaccines),Rarely,Once or twice a year,20,Female,NA,Vocational Training / Apprenticeship,control,38,3,For,Against
36,1659954953595,08/08/2022 10:35:53,1659954954838,1,08/08/2022 11:35:54,94118,2,task-mn1e,NA,23522085,6893598,NA,complete,NA,62f0e60c61c08e644319c1b9,computer,Desktop or Laptop,Windows 10,Chrome 103.0.0.0,1920x1080,1920x1007,NA,ITT Ratings,2,against,4,NA,NA,ACCEPT,NA,NA,NA,NA,NA,NA,NA,batch4pro,batch4pro,17,34,1,Screen 1,continueButton,response_rating_scale_likert_active,2355.7000000476837,NA,NA,Strongly Agree,1,0,1,0,NA,NA,NA,NA,1,statements,We don't know what's in it,1,17/06/2021 12:41,17/06/2021 12:53,IP Address,For (I feel positively about the vaccines),Rarely,Rarely,45,Female,NA,"Undergraduate degree (BSc, BA)",choice,33,2,For,Against
37,1659954956322,08/08/2022 10:35:56,1659954957573,1,08/08/2022 11:35:57,94118,2,task-mn1e,NA,23522085,6893598,NA,complete,NA,62f0e60c61c08e644319c1b9,computer,Desktop or Laptop,Windows 10,Chrome 103.0.0.0,1920x1080,1920x1007,NA,ITT Ratings,2,against,4,NA,NA,ACCEPT,NA,NA,NA,NA,NA,NA,NA,batch4pro,batch4pro,42,35,1,Screen 1,continueButton,response_rating_scale_likert_active,2726.900000095367,NA,NA,Strongly Disagree,1,0,1,0,NA,NA,NA,NA,1,statements,Scared of needles and injections,1,17/06/2021 12:45,17/06/2021 12:54,IP Address,For (I feel positively about the vaccines),Rarely,Rarely,30,Female,NA,"Undergraduate degree (BSc, BA)",choice,37,3,For,Against
38,1659954959558,08/08/2022 10:35:59,1659954960809,1,08/08/2022 11:36:00,94118,2,task-mn1e,NA,23522085,6893598,NA,complete,NA,62f0e60c61c08e644319c1b9,computer,Desktop or Laptop,Windows 10,Chrome 103.0.0.0,1920x1080,1920x1007,NA,ITT Ratings,2,against,4,NA,NA,ACCEPT,NA,NA,NA,NA,NA,NA,NA,batch4pro,batch4pro,51,36,1,Screen 1,continueButton,response_rating_scale_likert_active,3227.199999809265,NA,NA,Somewhat Disagree,1,0,1,0,NA,NA,NA,NA,1,statements,to help protect the nhs so they are not too busy,1,17/06/2021 12:49,17/06/2021 12:54,IP Address,For (I feel positively about the vaccines),Rarely,Once or twice a year,20,Female,NA,Vocational Training / Apprenticeship,control,38,3,For,For
39,1659954964024,08/08/2022 10:36:04,1659954965278,1,08/08/2022 11:36:05,94118,2,task-mn1e,NA,23522085,6893598,NA,complete,NA,62f0e60c61c08e644319c1b9,computer,Desktop or Laptop,Windows 10,Chrome 103.0.0.0,1920x1080,1920x1007,NA,ITT Ratings,2,against,4,NA,NA,ACCEPT,NA,NA,NA,NA,NA,NA,NA,batch4pro,batch4pro,52,37,1,Screen 1,continueButton,response_rating_scale_likert_active,4460.599999904633,NA,NA,Strongly Agree,1,0,1,0,NA,NA,NA,NA,1,statements,It's unsafe - not had enough time to develop safely,1,17/06/2021 12:47,17/06/2021 12:54,IP Address,For (I feel positively about the vaccines),Rarely,A few times a year,31,Female,NA,"Postgraduate degree (MSc, MA, MPhil)",choice,39,1,For,Against
40,1659954966875,08/08/2022 10:36:06,1659954968117,1,08/08/2022 11:36:08,94118,2,task-mn1e,NA,23522085,6893598,NA,complete,NA,62f0e60c61c08e644319c1b9,computer,Desktop or Laptop,Windows 10,Chrome 103.0.0.0,1920x1080,1920x1007,NA,ITT Ratings,2,against,4,NA,NA,ACCEPT,NA,NA,NA,NA,NA,NA,NA,batch4pro,batch4pro,57,38,1,Screen 1,continueButton,response_rating_scale_likert_active,2830.100000143051,NA,NA,Disagree,1,0,1,0,NA,NA,NA,NA,1,statements,It's the safest option rather than catching the virus,1,17/06/2021 12:47,17/06/2021 12:54,IP Address,For (I feel positively about the vaccines),Rarely,A few times a year,31,Female,NA,"Postgraduate degree (MSc, MA, MPhil)",choice,39,3,For,For
41,1659954977255,08/08/2022 10:36:17,1659954978484,1,08/08/2022 11:36:18,94118,2,task-mn1e,NA,23522085,6893598,NA,complete,NA,62f0e60c61c08e644319c1b9,computer,Desktop or Laptop,Windows 10,Chrome 103.0.0.0,1920x1080,1920x1007,NA,ITT Ratings,2,against,4,NA,NA,ACCEPT,NA,NA,NA,NA,NA,NA,NA,batch4pro,batch4pro,27,39,1,Screen 1,continueButton,response_rating_scale_likert_active,10358,NA,NA,Somewhat Disagree,1,0,1,0,NA,NA,NA,NA,1,statements,The ability to end lockdown and restart the economy fully in turn giving us all the freedom we have been used to. By not having the vaccine the chances of leaving lockdown and having a normal reduce,1,17/06/2021 12:45,17/06/2021 12:53,IP Address,For (I feel positively about the vaccines),Rarely,Rarely,38,Male,NA,"Undergraduate degree (BSc, BA)",choice,34,3,For,For
42,1659954979921,08/08/2022 10:36:19,1659954981160,1,08/08/2022 11:36:21,94118,2,task-mn1e,NA,23522085,6893598,NA,complete,NA,62f0e60c61c08e644319c1b9,computer,Desktop or Laptop,Windows 10,Chrome 103.0.0.0,1920x1080,1920x1007,NA,ITT Ratings,2,against,4,NA,NA,ACCEPT,NA,NA,NA,NA,NA,NA,NA,batch4pro,batch4pro,43,40,1,Screen 1,continueButton,response_rating_scale_likert_active,2666,NA,NA,Somewhat Agree,1,0,1,0,NA,NA,NA,NA,1,statements,To protect my family and friends,1,17/06/2021 12:45,17/06/2021 12:54,IP Address,For (I feel positively about the vaccines),Rarely,Rarely,30,Female,NA,"Undergraduate degree (BSc, BA)",choice,37,1,For,For
43,1659954981911,08/08/2022 10:36:21,1659954983150,1,08/08/2022 11:36:23,94118,2,task-mn1e,NA,23522085,6893598,NA,complete,NA,62f0e60c61c08e644319c1b9,computer,Desktop or Laptop,Windows 10,Chrome 103.0.0.0,1920x1080,1920x1007,NA,ITT Ratings,2,against,4,NA,NA,ACCEPT,NA,NA,NA,NA,NA,NA,NA,batch4pro,batch4pro,16,41,1,Screen 1,continueButton,response_rating_scale_likert_active,1981.9000000953672,NA,NA,Strongly Agree,1,0,1,0,NA,NA,NA,NA,1,statements,Side effects worrying,1,17/06/2021 12:41,17/06/2021 12:53,IP Address,For (I feel positively about the vaccines),Rarely,Rarely,45,Female,NA,"Undergraduate degree (BSc, BA)",choice,33,1,For,Against
44,1659954984825,08/08/2022 10:36:24,1659954986040,1,08/08/2022 11:36:26,94118,2,task-mn1e,NA,23522085,6893598,NA,complete,NA,62f0e60c61c08e644319c1b9,computer,Desktop or Laptop,Windows 10,Chrome 103.0.0.0,1920x1080,1920x1007,NA,ITT Ratings,2,against,4,NA,NA,ACCEPT,NA,NA,NA,NA,NA,NA,NA,batch4pro,batch4pro,10,42,1,Screen 1,continueButton,response_rating_scale_likert_active,2881,NA,NA,Strongly Agree,1,0,1,0,NA,NA,NA,NA,1,statements,The has not been enough time to test the vaccine to ensure its not harmful,1,17/06/2021 12:43,17/06/2021 12:52,IP Address,For (I feel positively about the vaccines),Rarely,Most weeks,25,Female,NA,"Postgraduate degree (MSc, MA, MPhil)",choice,32,1,For,Against
45,1659954990790,08/08/2022 10:36:30,1659954992036,1,08/08/2022 11:36:32,94118,2,task-mn1e,NA,23522085,6893598,NA,complete,NA,62f0e60c61c08e644319c1b9,computer,Desktop or Laptop,Windows 10,Chrome 103.0.0.0,1920x1080,1920x1007,NA,ITT Ratings,2,against,4,NA,NA,ACCEPT,NA,NA,NA,NA,NA,NA,NA,batch4pro,batch4pro,39,43,1,Screen 1,continueButton,response_rating_scale_likert_active,5987.799999952316,NA,NA,Strongly Disagree,1,0,1,0,NA,NA,NA,NA,1,statements,I don't want to risk being affected by the symptoms of 'long covid' for the rest of my life,1,17/06/2021 12:46,17/06/2021 12:53,IP Address,For (I feel positively about the vaccines),Rarely,Most weeks,22,Non-binary,NA,"Undergraduate degree (BSc, BA)",control,36,3,For,For
46,1659954993681,08/08/2022 10:36:33,1659954994929,1,08/08/2022 11:36:34,94118,2,task-mn1e,NA,23522085,6893598,NA,complete,NA,62f0e60c61c08e644319c1b9,computer,Desktop or Laptop,Windows 10,Chrome 103.0.0.0,1920x1080,1920x1007,NA,ITT Ratings,2,against,4,NA,NA,ACCEPT,NA,NA,NA,NA,NA,NA,NA,batch4pro,batch4pro,58,44,1,Screen 1,continueButton,response_rating_scale_likert_active,2881.2999999523163,NA,NA,Strongly Agree,1,0,1,0,NA,NA,NA,NA,1,statements,Scientists have developed it too quickly,1,17/06/2021 12:46,17/06/2021 12:54,IP Address,For (I feel positively about the vaccines),Once or twice a year,Once or twice a year,38,Female,NA,"Undergraduate degree (BSc, BA)",control,40,1,For,Against
47,1659955001842,08/08/2022 10:36:41,1659955003092,1,08/08/2022 11:36:43,94118,2,task-mn1e,NA,23522085,6893598,NA,complete,NA,62f0e60c61c08e644319c1b9,computer,Desktop or Laptop,Windows 10,Chrome 103.0.0.0,1920x1080,1920x1007,NA,ITT Ratings,2,against,4,NA,NA,ACCEPT,NA,NA,NA,NA,NA,NA,NA,batch4pro,batch4pro,9,45,1,Screen 1,continueButton,response_rating_scale_likert_active,8156,NA,NA,Strongly Disagree,1,0,1,0,NA,NA,NA,NA,1,statements,Aren't we lucky/fortunate how quickly this has been developed and we are in a position where we can get a vaccine.,1,17/06/2021 12:43,17/06/2021 12:52,IP Address,For (I feel positively about the vaccines),Rarely,Rarely,34,Male,NA,Doctorate (PhD),control,31,3,For,For
48,1659955005330,08/08/2022 10:36:45,1659955006571,1,08/08/2022 11:36:46,94118,2,task-mn1e,NA,23522085,6893598,NA,complete,NA,62f0e60c61c08e644319c1b9,computer,Desktop or Laptop,Windows 10,Chrome 103.0.0.0,1920x1080,1920x1007,NA,ITT Ratings,2,against,4,NA,NA,ACCEPT,NA,NA,NA,NA,NA,NA,NA,batch4pro,batch4pro,2,46,1,Screen 1,continueButton,response_rating_scale_likert_active,3469.7999999523163,NA,NA,Somewhat Agree,1,0,1,0,NA,NA,NA,NA,1,statements,We would like to check you are reading each argument carefully. Please select 'Somewhat Agree' for this answer,1,NA,NA,NA,NA,NA,NA,NA,NA,NA,NA,NA,NA,check1,NA,NA
49,1659955008108,08/08/2022 10:36:48,1659955009358,1,08/08/2022 11:36:49,94118,2,task-mn1e,NA,23522085,6893598,NA,complete,NA,62f0e60c61c08e644319c1b9,computer,Desktop or Laptop,Windows 10,Chrome 103.0.0.0,1920x1080,1920x1007,NA,ITT Ratings,2,against,4,NA,NA,ACCEPT,NA,NA,NA,NA,NA,NA,NA,batch4pro,batch4pro,50,47,1,Screen 1,continueButton,response_rating_scale_likert_active,2778.300000190735,NA,NA,Somewhat Agree,1,0,1,0,NA,NA,NA,NA,1,statements,to help try and save lives,1,17/06/2021 12:49,17/06/2021 12:54,IP Address,For (I feel positively about the vaccines),Rarely,Once or twice a year,20,Female,NA,Vocational Training / Apprenticeship,control,38,2,For,For
50,1659955011481,08/08/2022 10:36:51,1659955012730,1,08/08/2022 11:36:52,94118,2,task-mn1e,NA,23522085,6893598,NA,complete,NA,62f0e60c61c08e644319c1b9,computer,Desktop or Laptop,Windows 10,Chrome 103.0.0.0,1920x1080,1920x1007,NA,ITT Ratings,2,against,4,NA,NA,ACCEPT,NA,NA,NA,NA,NA,NA,NA,batch4pro,batch4pro,36,48,1,Screen 1,continueButton,response_rating_scale_likert_active,3363.5,NA,NA,Agree,1,0,1,0,NA,NA,NA,NA,1,statements,They think Covid-19 is a media hoax,1,17/06/2021 12:46,17/06/2021 12:53,IP Address,For (I feel positively about the vaccines),Rarely,Most weeks,22,Non-binary,NA,"Undergraduate degree (BSc, BA)",control,36,3,For,Against
51,1659955014180,08/08/2022 10:36:54,1659955015427,1,08/08/2022 11:36:55,94118,2,task-mn1e,NA,23522085,6893598,NA,complete,NA,62f0e60c61c08e644319c1b9,computer,Desktop or Laptop,Windows 10,Chrome 103.0.0.0,1920x1080,1920x1007,NA,ITT Ratings,2,against,4,NA,NA,ACCEPT,NA,NA,NA,NA,NA,NA,NA,batch4pro,batch4pro,33,49,1,Screen 1,continueButton,response_rating_scale_likert_active,2687.400000095367,NA,NA,Strongly Disagree,1,0,1,0,NA,NA,NA,NA,1,statements,I trust those who have made the vaccine,1,17/06/2021 12:45,17/06/2021 12:53,IP Address,For (I feel positively about the vaccines),Rarely,Once or twice a year,30,Female,NA,"Undergraduate degree (BSc, BA)",choice,35,3,For,For
52,1659955016486,08/08/2022 10:36:56,1659955017738,1,08/08/2022 11:36:57,94118,2,task-mn1e,NA,23522085,6893598,NA,complete,NA,62f0e60c61c08e644319c1b9,computer,Desktop or Laptop,Windows 10,Chrome 103.0.0.0,1920x1080,1920x1007,NA,ITT Ratings,2,against,4,NA,NA,ACCEPT,NA,NA,NA,NA,NA,NA,NA,batch4pro,batch4pro,63,50,1,Screen 1,continueButton,response_rating_scale_likert_active,2302,NA,NA,Strongly Disagree,1,0,1,0,NA,NA,NA,NA,1,statements,I trust the scientists/science,1,17/06/2021 12:46,17/06/2021 12:54,IP Address,For (I feel positively about the vaccines),Once or twice a year,Once or twice a year,38,Female,NA,"Undergraduate degree (BSc, BA)",control,40,3,For,For
53,1659955018881,08/08/2022 10:36:58,1659955020127,1,08/08/2022 11:37:00,94118,2,task-mn1e,NA,23522085,6893598,NA,complete,NA,62f0e60c61c08e644319c1b9,computer,Desktop or Laptop,Windows 10,Chrome 103.0.0.0,1920x1080,1920x1007,NA,ITT Ratings,2,against,4,NA,NA,ACCEPT,NA,NA,NA,NA,NA,NA,NA,batch4pro,batch4pro,55,51,1,Screen 1,continueButton,response_rating_scale_likert_active,2379.599999904633,NA,NA,Somewhat Agree,1,0,1,0,NA,NA,NA,NA,1,statements,We need to get back to normal life,1,17/06/2021 12:47,17/06/2021 12:54,IP Address,For (I feel positively about the vaccines),Rarely,A few times a year,31,Female,NA,"Postgraduate degree (MSc, MA, MPhil)",choice,39,1,For,For
54,1659955023263,08/08/2022 10:37:03,1659955024514,1,08/08/2022 11:37:04,94118,2,task-mn1e,NA,23522085,6893598,NA,complete,NA,62f0e60c61c08e644319c1b9,computer,Desktop or Laptop,Windows 10,Chrome 103.0.0.0,1920x1080,1920x1007,NA,ITT Ratings,2,against,4,NA,NA,ACCEPT,NA,NA,NA,NA,NA,NA,NA,batch4pro,batch4pro,54,52,1,Screen 1,continueButton,response_rating_scale_likert_active,4379,NA,NA,Strongly Agree,1,0,1,0,NA,NA,NA,NA,1,statements,It's a conspiracy - Covid is man made and the government want us all to have vaccine,1,17/06/2021 12:47,17/06/2021 12:54,IP Address,For (I feel positively about the vaccines),Rarely,A few times a year,31,Female,NA,"Postgraduate degree (MSc, MA, MPhil)",choice,39,3,For,Against
55,1659955027382,08/08/2022 10:37:07,1659955028631,1,08/08/2022 11:37:08,94118,2,task-mn1e,NA,23522085,6893598,NA,complete,NA,62f0e60c61c08e644319c1b9,computer,Desktop or Laptop,Windows 10,Chrome 103.0.0.0,1920x1080,1920x1007,NA,ITT Ratings,2,against,4,NA,NA,ACCEPT,NA,NA,NA,NA,NA,NA,NA,batch4pro,batch4pro,35,53,1,Screen 1,continueButton,response_rating_scale_likert_active,4109.200000047684,NA,NA,Strongly Disagree,1,0,1,0,NA,NA,NA,NA,1,statements,Fear of needles/injections,1,17/06/2021 12:46,17/06/2021 12:53,IP Address,For (I feel positively about the vaccines),Rarely,Most weeks,22,Non-binary,NA,"Undergraduate degree (BSc, BA)",control,36,2,For,Against
56,1659955030032,08/08/2022 10:37:10,1659955031276,1,08/08/2022 11:37:11,94118,2,task-mn1e,NA,23522085,6893598,NA,complete,NA,62f0e60c61c08e644319c1b9,computer,Desktop or Laptop,Windows 10,Chrome 103.0.0.0,1920x1080,1920x1007,NA,ITT Ratings,2,against,4,NA,NA,ACCEPT,NA,NA,NA,NA,NA,NA,NA,batch4pro,batch4pro,30,54,1,Screen 1,continueButton,response_rating_scale_likert_active,2635.199999809265,NA,NA,Strongly Disagree,1,0,1,0,NA,NA,NA,NA,1,statements,I don't need a vaccine - I'm young and healthy.,1,17/06/2021 12:45,17/06/2021 12:53,IP Address,For (I feel positively about the vaccines),Rarely,Once or twice a year,30,Female,NA,"Undergraduate degree (BSc, BA)",choice,35,3,For,Against
57,1659955033453,08/08/2022 10:37:13,1659955034703,1,08/08/2022 11:37:14,94118,2,task-mn1e,NA,23522085,6893598,NA,complete,NA,62f0e60c61c08e644319c1b9,computer,Desktop or Laptop,Windows 10,Chrome 103.0.0.0,1920x1080,1920x1007,NA,ITT Ratings,2,against,4,NA,NA,ACCEPT,NA,NA,NA,NA,NA,NA,NA,batch4pro,batch4pro,34,55,1,Screen 1,continueButton,response_rating_scale_likert_active,3419.599999904633,NA,NA,Strongly Agree,1,0,1,0,NA,NA,NA,NA,1,statements,The government is denying our right to say no,1,17/06/2021 12:46,17/06/2021 12:53,IP Address,For (I feel positively about the vaccines),Rarely,Most weeks,22,Non-binary,NA,"Undergraduate degree (BSc, BA)",control,36,1,For,Against
58,1659955036826,08/08/2022 10:37:16,1659955038074,1,08/08/2022 11:37:18,94118,2,task-mn1e,NA,23522085,6893598,NA,complete,NA,62f0e60c61c08e644319c1b9,computer,Desktop or Laptop,Windows 10,Chrome 103.0.0.0,1920x1080,1920x1007,NA,ITT Ratings,2,against,4,NA,NA,ACCEPT,NA,NA,NA,NA,NA,NA,NA,batch4pro,batch4pro,53,56,1,Screen 1,continueButton,response_rating_scale_likert_active,3362.399999856949,NA,NA,Neither Agree nor Disagree,1,0,1,0,NA,NA,NA,NA,1,statements,It's unnecessary - Covid won’t make me very unwell,1,17/06/2021 12:47,17/06/2021 12:54,IP Address,For (I feel positively about the vaccines),Rarely,A few times a year,31,Female,NA,"Postgraduate degree (MSc, MA, MPhil)",choice,39,2,For,Against
59,1659955039638,08/08/2022 10:37:19,1659955040887,1,08/08/2022 11:37:20,94118,2,task-mn1e,NA,23522085,6893598,NA,complete,NA,62f0e60c61c08e644319c1b9,computer,Desktop or Laptop,Windows 10,Chrome 103.0.0.0,1920x1080,1920x1007,NA,ITT Ratings,2,against,4,NA,NA,ACCEPT,NA,NA,NA,NA,NA,NA,NA,batch4pro,batch4pro,11,57,1,Screen 1,continueButton,response_rating_scale_likert_active,2805.600000143051,NA,NA,Strongly Agree,1,0,1,0,NA,NA,NA,NA,1,statements,The vaccine puts a chip in you so you can be tracked,1,17/06/2021 12:43,17/06/2021 12:52,IP Address,For (I feel positively about the vaccines),Rarely,Most weeks,25,Female,NA,"Postgraduate degree (MSc, MA, MPhil)",choice,32,2,For,Against
60,1659955046922,08/08/2022 10:37:26,1659955048174,1,08/08/2022 11:37:28,94118,2,task-mn1e,NA,23522085,6893598,NA,complete,NA,62f0e60c61c08e644319c1b9,computer,Desktop or Laptop,Windows 10,Chrome 103.0.0.0,1920x1080,1920x1007,NA,ITT Ratings,2,against,4,NA,NA,ACCEPT,NA,NA,NA,NA,NA,NA,NA,batch4pro,batch4pro,7,58,1,Screen 1,continueButton,response_rating_scale_likert_active,7277.899999856949,NA,NA,Somewhat Disagree,1,0,1,0,NA,NA,NA,NA,1,statements,It can help us return to 'normal' sooner than if I didn't do it.,1,17/06/2021 12:43,17/06/2021 12:52,IP Address,For (I feel positively about the vaccines),Rarely,Rarely,34,Male,NA,Doctorate (PhD),control,31,1,For,For
61,1659955051440,08/08/2022 10:37:31,1659955052673,1,08/08/2022 11:37:32,94118,2,task-mn1e,NA,23522085,6893598,NA,complete,NA,62f0e60c61c08e644319c1b9,computer,Desktop or Laptop,Windows 10,Chrome 103.0.0.0,1920x1080,1920x1007,NA,ITT Ratings,2,against,4,NA,NA,ACCEPT,NA,NA,NA,NA,NA,NA,NA,batch4pro,batch4pro,4,59,1,Screen 1,continueButton,response_rating_scale_likert_active,4490,NA,NA,Strongly Agree,1,0,1,0,NA,NA,NA,NA,1,statements,We don't know what the long term impact or effects are yet,1,17/06/2021 12:43,17/06/2021 12:52,IP Address,For (I feel positively about the vaccines),Rarely,Rarely,34,Male,NA,Doctorate (PhD),control,31,1,For,Against
62,1659955053684,08/08/2022 10:37:33,1659955054926,1,08/08/2022 11:37:34,94118,2,task-mn1e,NA,23522085,6893598,NA,complete,NA,62f0e60c61c08e644319c1b9,computer,Desktop or Laptop,Windows 10,Chrome 103.0.0.0,1920x1080,1920x1007,NA,ITT Ratings,2,against,4,NA,NA,ACCEPT,NA,NA,NA,NA,NA,NA,NA,batch4pro,batch4pro,28,60,1,Screen 1,continueButton,response_rating_scale_likert_active,2245.099999904633,NA,NA,Strongly Agree,1,0,1,0,NA,NA,NA,NA,1,statements,We haven't had long enough to test the vaccines,1,17/06/2021 12:45,17/06/2021 12:53,IP Address,For (I feel positively about the vaccines),Rarely,Once or twice a year,30,Female,NA,"Undergraduate degree (BSc, BA)",choice,35,1,For,Against
63,1659955057120,08/08/2022 10:37:37,1659955058367,1,08/08/2022 11:37:38,94118,2,task-mn1e,NA,23522085,6893598,NA,complete,NA,62f0e60c61c08e644319c1b9,computer,Desktop or Laptop,Windows 10,Chrome 103.0.0.0,1920x1080,1920x1007,NA,ITT Ratings,2,against,4,NA,NA,ACCEPT,NA,NA,NA,NA,NA,NA,NA,batch4pro,batch4pro,13,61,1,Screen 1,continueButton,response_rating_scale_likert_active,3433.699999809265,NA,NA,Strongly Disagree,1,0,1,0,NA,NA,NA,NA,1,statements,Vaccines have been going on for years so they are good to protect us,1,17/06/2021 12:43,17/06/2021 12:52,IP Address,For (I feel positively about the vaccines),Rarely,Most weeks,25,Female,NA,"Postgraduate degree (MSc, MA, MPhil)",choice,32,1,For,For
64,1659955060696,08/08/2022 10:37:40,1659955061949,1,08/08/2022 11:37:41,94118,2,task-mn1e,NA,23522085,6893598,NA,complete,NA,62f0e60c61c08e644319c1b9,computer,Desktop or Laptop,Windows 10,Chrome 103.0.0.0,1920x1080,1920x1007,NA,ITT Ratings,2,against,4,NA,NA,ACCEPT,NA,NA,NA,NA,NA,NA,NA,batch4pro,batch4pro,40,62,1,Screen 1,continueButton,response_rating_scale_likert_active,3573.199999809265,NA,NA,Somewhat Disagree,1,0,1,0,NA,NA,NA,NA,1,statements,I don't believe in vaccines,1,17/06/2021 12:45,17/06/2021 12:54,IP Address,For (I feel positively about the vaccines),Rarely,Rarely,30,Female,NA,"Undergraduate degree (BSc, BA)",choice,37,1,For,Against
65,1659955060765,08/08/2022 10:37:40,1659955061955,1,08/08/2022 11:37:41,94118,2,task-mn1e,NA,23522085,6893598,NA,complete,NA,62f0e60c61c08e644319c1b9,computer,Desktop or Laptop,Windows 10,Chrome 103.0.0.0,1920x1080,1920x1007,NA,ITT Ratings,2,against,4,NA,NA,ACCEPT,NA,NA,NA,NA,NA,NA,NA,batch4pro,NA,NA,END TASK,NA,NA,NA,NA,278233,NA,NA,NA,NA,0,1,0,NA,NA,NA,NA,NA,NA,NA,NA,NA,NA,NA,NA,NA,NA,NA,NA,NA,NA,NA,NA,NA,NA,NA
1,1659954819150,08/08/2022 10:33:39,1659954819012,1,08/08/2022 11:33:39,94118,2,task-mn1e,NA,23522099,6893605,NA,complete,NA,62f0e65b642a0ac4a88c9058,computer,Desktop or Laptop,Windows 10,Chrome 104.0.0.0,1920x1080,1920x937,NA,ITT Ratings,2,against,4,NA,NA,ACCEPT,NA,NA,NA,NA,NA,NA,NA,batch4pro,NA,NA,BEGIN TASK,NA,NA,NA,NA,NA,NA,NA,NA,NA,0,1,0,NA,NA,NA,NA,NA,NA,NA,NA,NA,NA,NA,NA,NA,NA,NA,NA,NA,NA,NA,NA,NA,NA,NA
2,1659954825714,08/08/2022 10:33:45,1659954825476,1,08/08/2022 11:33:45,94118,2,task-mn1e,NA,23522099,6893605,NA,complete,NA,62f0e65b642a0ac4a88c9058,computer,Desktop or Laptop,Windows 10,Chrome 104.0.0.0,1920x1080,1920x937,NA,ITT Ratings,2,against,4,NA,NA,ACCEPT,NA,NA,NA,NA,NA,NA,NA,batch4pro,batch4pro,1,1,1,Screen 1,advancementZone,continue_button,6428.700000000186,NA,NA,NA,NA,0,1,0,NA,NA,NA,NA,NA,instructions,NA,NA,NA,NA,NA,NA,NA,NA,NA,NA,NA,NA,NA,NA,NA,NA,NA
3,1659954831449,08/08/2022 10:33:51,1659954831284,1,08/08/2022 11:33:51,94118,2,task-mn1e,NA,23522099,6893605,NA,complete,NA,62f0e65b642a0ac4a88c9058,computer,Desktop or Laptop,Windows 10,Chrome 104.0.0.0,1920x1080,1920x937,NA,ITT Ratings,2,against,4,NA,NA,ACCEPT,NA,NA,NA,NA,NA,NA,NA,batch4pro,batch4pro,21,1,1,Screen 1,continueButton,response_rating_scale_likert_active,5723.5,NA,NA,Neither Agree nor Disagree,1,0,1,0,NA,NA,NA,NA,1,statements,They don’t want the potential worry of getting COVID.,1,17/06/2021 12:41,17/06/2021 12:53,IP Address,For (I feel positively about the vaccines),Rarely,Rarely,45,Female,NA,"Undergraduate degree (BSc, BA)",choice,33,3,For,For
4,1659954835551,08/08/2022 10:33:55,1659954835347,1,08/08/2022 11:33:55,94118,2,task-mn1e,NA,23522099,6893605,NA,complete,NA,62f0e65b642a0ac4a88c9058,computer,Desktop or Laptop,Windows 10,Chrome 104.0.0.0,1920x1080,1920x937,NA,ITT Ratings,2,against,4,NA,NA,ACCEPT,NA,NA,NA,NA,NA,NA,NA,batch4pro,batch4pro,11,2,1,Screen 1,continueButton,response_rating_scale_likert_active,4044.7999999998137,NA,NA,Disagree,1,0,1,0,NA,NA,NA,NA,1,statements,The vaccine puts a chip in you so you can be tracked,1,17/06/2021 12:43,17/06/2021 12:52,IP Address,For (I feel positively about the vaccines),Rarely,Most weeks,25,Female,NA,"Postgraduate degree (MSc, MA, MPhil)",choice,32,2,For,Against
5,1659954838081,08/08/2022 10:33:58,1659954837899,1,08/08/2022 11:33:57,94118,2,task-mn1e,NA,23522099,6893605,NA,complete,NA,62f0e65b642a0ac4a88c9058,computer,Desktop or Laptop,Windows 10,Chrome 104.0.0.0,1920x1080,1920x937,NA,ITT Ratings,2,against,4,NA,NA,ACCEPT,NA,NA,NA,NA,NA,NA,NA,batch4pro,batch4pro,52,3,1,Screen 1,continueButton,response_rating_scale_likert_active,2543.2999999998137,NA,NA,Strongly Agree,1,0,1,0,NA,NA,NA,NA,1,statements,It's unsafe - not had enough time to develop safely,1,17/06/2021 12:47,17/06/2021 12:54,IP Address,For (I feel positively about the vaccines),Rarely,A few times a year,31,Female,NA,"Postgraduate degree (MSc, MA, MPhil)",choice,39,1,For,Against
6,1659954841105,08/08/2022 10:34:01,1659954840939,1,08/08/2022 11:34:00,94118,2,task-mn1e,NA,23522099,6893605,NA,complete,NA,62f0e65b642a0ac4a88c9058,computer,Desktop or Laptop,Windows 10,Chrome 104.0.0.0,1920x1080,1920x937,NA,ITT Ratings,2,against,4,NA,NA,ACCEPT,NA,NA,NA,NA,NA,NA,NA,batch4pro,batch4pro,59,4,1,Screen 1,continueButton,response_rating_scale_likert_active,3031.5999999996275,NA,NA,Strongly Agree,1,0,1,0,NA,NA,NA,NA,1,statements,We do not know what harm they can cause in the future,1,17/06/2021 12:46,17/06/2021 12:54,IP Address,For (I feel positively about the vaccines),Once or twice a year,Once or twice a year,38,Female,NA,"Undergraduate degree (BSc, BA)",control,40,2,For,Against
7,1659954844522,08/08/2022 10:34:04,1659954844355,1,08/08/2022 11:34:04,94118,2,task-mn1e,NA,23522099,6893605,NA,complete,NA,62f0e65b642a0ac4a88c9058,computer,Desktop or Laptop,Windows 10,Chrome 104.0.0.0,1920x1080,1920x937,NA,ITT Ratings,2,against,4,NA,NA,ACCEPT,NA,NA,NA,NA,NA,NA,NA,batch4pro,batch4pro,36,5,1,Screen 1,continueButton,response_rating_scale_likert_active,3408,NA,NA,Neither Agree nor Disagree,1,0,1,0,NA,NA,NA,NA,1,statements,They think Covid-19 is a media hoax,1,17/06/2021 12:46,17/06/2021 12:53,IP Address,For (I feel positively about the vaccines),Rarely,Most weeks,22,Non-binary,NA,"Undergraduate degree (BSc, BA)",control,36,3,For,Against
8,1659954847935,08/08/2022 10:34:07,1659954847763,1,08/08/2022 11:34:07,94118,2,task-mn1e,NA,23522099,6893605,NA,complete,NA,62f0e65b642a0ac4a88c9058,computer,Desktop or Laptop,Windows 10,Chrome 104.0.0.0,1920x1080,1920x937,NA,ITT Ratings,2,against,4,NA,NA,ACCEPT,NA,NA,NA,NA,NA,NA,NA,batch4pro,batch4pro,7,6,1,Screen 1,continueButton,response_rating_scale_likert_active,3400.2999999998137,NA,NA,Somewhat Disagree,1,0,1,0,NA,NA,NA,NA,1,statements,It can help us return to 'normal' sooner than if I didn't do it.,1,17/06/2021 12:43,17/06/2021 12:52,IP Address,For (I feel positively about the vaccines),Rarely,Rarely,34,Male,NA,Doctorate (PhD),control,31,1,For,For
9,1659954850274,08/08/2022 10:34:10,1659954850051,1,08/08/2022 11:34:10,94118,2,task-mn1e,NA,23522099,6893605,NA,complete,NA,62f0e65b642a0ac4a88c9058,computer,Desktop or Laptop,Windows 10,Chrome 104.0.0.0,1920x1080,1920x937,NA,ITT Ratings,2,against,4,NA,NA,ACCEPT,NA,NA,NA,NA,NA,NA,NA,batch4pro,batch4pro,32,7,1,Screen 1,continueButton,response_rating_scale_likert_active,2279.4000000003725,NA,NA,Somewhat Disagree,1,0,1,0,NA,NA,NA,NA,1,statements,I want to help protect others,1,17/06/2021 12:45,17/06/2021 12:53,IP Address,For (I feel positively about the vaccines),Rarely,Once or twice a year,30,Female,NA,"Undergraduate degree (BSc, BA)",choice,35,2,For,For
10,1659954852810,08/08/2022 10:34:12,1659954852507,1,08/08/2022 11:34:12,94118,2,task-mn1e,NA,23522099,6893605,NA,complete,NA,62f0e65b642a0ac4a88c9058,computer,Desktop or Laptop,Windows 10,Chrome 104.0.0.0,1920x1080,1920x937,NA,ITT Ratings,2,against,4,NA,NA,ACCEPT,NA,NA,NA,NA,NA,NA,NA,batch4pro,batch4pro,4,8,1,Screen 1,continueButton,response_rating_scale_likert_active,2447.899999999441,NA,NA,Agree,1,0,1,0,NA,NA,NA,NA,1,statements,We don't know what the long term impact or effects are yet,1,17/06/2021 12:43,17/06/2021 12:52,IP Address,For (I feel positively about the vaccines),Rarely,Rarely,34,Male,NA,Doctorate (PhD),control,31,1,For,Against
11,1659954854685,08/08/2022 10:34:14,1659954854531,1,08/08/2022 11:34:14,94118,2,task-mn1e,NA,23522099,6893605,NA,complete,NA,62f0e65b642a0ac4a88c9058,computer,Desktop or Laptop,Windows 10,Chrome 104.0.0.0,1920x1080,1920x937,NA,ITT Ratings,2,against,4,NA,NA,ACCEPT,NA,NA,NA,NA,NA,NA,NA,batch4pro,batch4pro,46,9,1,Screen 1,continueButton,response_rating_scale_likert_active,2016.3999999994412,NA,NA,Somewhat Disagree,1,0,1,0,NA,NA,NA,NA,1,statements,Can help prevent you getting it,1,17/06/2021 12:49,17/06/2021 12:54,IP Address,For (I feel positively about the vaccines),Rarely,Once or twice a year,20,Female,NA,Vocational Training / Apprenticeship,control,38,1,For,Against
12,1659954858704,08/08/2022 10:34:18,1659954858531,1,08/08/2022 11:34:18,94118,2,task-mn1e,NA,23522099,6893605,NA,complete,NA,62f0e65b642a0ac4a88c9058,computer,Desktop or Laptop,Windows 10,Chrome 104.0.0.0,1920x1080,1920x937,NA,ITT Ratings,2,against,4,NA,NA,ACCEPT,NA,NA,NA,NA,NA,NA,NA,batch4pro,batch4pro,47,10,1,Screen 1,continueButton,response_rating_scale_likert_active,3992.900000000373,NA,NA,Neither Agree nor Disagree,1,0,1,0,NA,NA,NA,NA,1,statements,Will make the world go back to some sort of normal,1,17/06/2021 12:49,17/06/2021 12:54,IP Address,For (I feel positively about the vaccines),Rarely,Once or twice a year,20,Female,NA,Vocational Training / Apprenticeship,control,38,2,For,Against
13,1659954860757,08/08/2022 10:34:20,1659954860587,1,08/08/2022 11:34:20,94118,2,task-mn1e,NA,23522099,6893605,NA,complete,NA,62f0e65b642a0ac4a88c9058,computer,Desktop or Laptop,Windows 10,Chrome 104.0.0.0,1920x1080,1920x937,NA,ITT Ratings,2,against,4,NA,NA,ACCEPT,NA,NA,NA,NA,NA,NA,NA,batch4pro,batch4pro,40,11,1,Screen 1,continueButton,response_rating_scale_likert_active,2047.5,NA,NA,Somewhat Disagree,1,0,1,0,NA,NA,NA,NA,1,statements,I don't believe in vaccines,1,17/06/2021 12:45,17/06/2021 12:54,IP Address,For (I feel positively about the vaccines),Rarely,Rarely,30,Female,NA,"Undergraduate degree (BSc, BA)",choice,37,1,For,Against
14,1659954862780,08/08/2022 10:34:22,1659954862627,1,08/08/2022 11:34:22,94118,2,task-mn1e,NA,23522099,6893605,NA,complete,NA,62f0e65b642a0ac4a88c9058,computer,Desktop or Laptop,Windows 10,Chrome 104.0.0.0,1920x1080,1920x937,NA,ITT Ratings,2,against,4,NA,NA,ACCEPT,NA,NA,NA,NA,NA,NA,NA,batch4pro,batch4pro,38,12,1,Screen 1,continueButton,response_rating_scale_likert_active,2032.7999999998135,NA,NA,Neither Agree nor Disagree,1,0,1,0,NA,NA,NA,NA,1,statements,I want to protect elderly relatives and friends,1,17/06/2021 12:46,17/06/2021 12:53,IP Address,For (I feel positively about the vaccines),Rarely,Most weeks,22,Non-binary,NA,"Undergraduate degree (BSc, BA)",control,36,2,For,For
15,1659954865471,08/08/2022 10:34:25,1659954865227,1,08/08/2022 11:34:25,94118,2,task-mn1e,NA,23522099,6893605,NA,complete,NA,62f0e65b642a0ac4a88c9058,computer,Desktop or Laptop,Windows 10,Chrome 104.0.0.0,1920x1080,1920x937,NA,ITT Ratings,2,against,4,NA,NA,ACCEPT,NA,NA,NA,NA,NA,NA,NA,batch4pro,batch4pro,61,13,1,Screen 1,continueButton,response_rating_scale_likert_active,2593.399999999441,NA,NA,Somewhat Disagree,1,0,1,0,NA,NA,NA,NA,1,statements,I am vulnerable to covid 19,1,17/06/2021 12:46,17/06/2021 12:54,IP Address,For (I feel positively about the vaccines),Once or twice a year,Once or twice a year,38,Female,NA,"Undergraduate degree (BSc, BA)",control,40,1,For,For
16,1659954871475,08/08/2022 10:34:31,1659954871291,1,08/08/2022 11:34:31,94118,2,task-mn1e,NA,23522099,6893605,NA,complete,NA,62f0e65b642a0ac4a88c9058,computer,Desktop or Laptop,Windows 10,Chrome 104.0.0.0,1920x1080,1920x937,NA,ITT Ratings,2,against,4,NA,NA,ACCEPT,NA,NA,NA,NA,NA,NA,NA,batch4pro,batch4pro,57,14,1,Screen 1,continueButton,response_rating_scale_likert_active,6057.4000000003725,NA,NA,Somewhat Disagree,1,0,1,0,NA,NA,NA,NA,1,statements,It's the safest option rather than catching the virus,1,17/06/2021 12:47,17/06/2021 12:54,IP Address,For (I feel positively about the vaccines),Rarely,A few times a year,31,Female,NA,"Postgraduate degree (MSc, MA, MPhil)",choice,39,3,For,For
17,1659954873966,08/08/2022 10:34:33,1659954873811,1,08/08/2022 11:34:33,94118,2,task-mn1e,NA,23522099,6893605,NA,complete,NA,62f0e65b642a0ac4a88c9058,computer,Desktop or Laptop,Windows 10,Chrome 104.0.0.0,1920x1080,1920x937,NA,ITT Ratings,2,against,4,NA,NA,ACCEPT,NA,NA,NA,NA,NA,NA,NA,batch4pro,batch4pro,15,15,1,Screen 1,continueButton,response_rating_scale_likert_active,2512.9000000003725,NA,NA,Strongly Disagree,1,0,1,0,NA,NA,NA,NA,1,statements,For life to return to normal you need the vaccine,1,17/06/2021 12:43,17/06/2021 12:52,IP Address,For (I feel positively about the vaccines),Rarely,Most weeks,25,Female,NA,"Postgraduate degree (MSc, MA, MPhil)",choice,32,3,For,For
18,1659954878316,08/08/2022 10:34:38,1659954878147,1,08/08/2022 11:34:38,94118,2,task-mn1e,NA,23522099,6893605,NA,complete,NA,62f0e65b642a0ac4a88c9058,computer,Desktop or Laptop,Windows 10,Chrome 104.0.0.0,1920x1080,1920x937,NA,ITT Ratings,2,against,4,NA,NA,ACCEPT,NA,NA,NA,NA,NA,NA,NA,batch4pro,batch4pro,9,16,1,Screen 1,continueButton,response_rating_scale_likert_active,4327.60000000149,NA,NA,Disagree,1,0,1,0,NA,NA,NA,NA,1,statements,Aren't we lucky/fortunate how quickly this has been developed and we are in a position where we can get a vaccine.,1,17/06/2021 12:43,17/06/2021 12:52,IP Address,For (I feel positively about the vaccines),Rarely,Rarely,34,Male,NA,Doctorate (PhD),control,31,3,For,For
19,1659954881518,08/08/2022 10:34:41,1659954881339,1,08/08/2022 11:34:41,94118,2,task-mn1e,NA,23522099,6893605,NA,complete,NA,62f0e65b642a0ac4a88c9058,computer,Desktop or Laptop,Windows 10,Chrome 104.0.0.0,1920x1080,1920x937,NA,ITT Ratings,2,against,4,NA,NA,ACCEPT,NA,NA,NA,NA,NA,NA,NA,batch4pro,batch4pro,48,17,1,Screen 1,continueButton,response_rating_scale_likert_active,3185.0999999996275,NA,NA,Disagree,1,0,1,0,NA,NA,NA,NA,1,statements,You will most likely need it to travel,1,17/06/2021 12:49,17/06/2021 12:54,IP Address,For (I feel positively about the vaccines),Rarely,Once or twice a year,20,Female,NA,Vocational Training / Apprenticeship,control,38,3,For,Against
20,1659954883040,08/08/2022 10:34:43,1659954882875,1,08/08/2022 11:34:42,94118,2,task-mn1e,NA,23522099,6893605,NA,complete,NA,62f0e65b642a0ac4a88c9058,computer,Desktop or Laptop,Windows 10,Chrome 104.0.0.0,1920x1080,1920x937,NA,ITT Ratings,2,against,4,NA,NA,ACCEPT,NA,NA,NA,NA,NA,NA,NA,batch4pro,batch4pro,18,18,1,Screen 1,continueButton,response_rating_scale_likert_active,1529.199999999255,NA,NA,Disagree,1,0,1,0,NA,NA,NA,NA,1,statements,I have a bee allergy,1,17/06/2021 12:41,17/06/2021 12:53,IP Address,For (I feel positively about the vaccines),Rarely,Rarely,45,Female,NA,"Undergraduate degree (BSc, BA)",choice,33,3,For,Against
