Event.Index,UTC.Timestamp,UTC.Date,Local.Timestamp,Local.Timezone,Local.Date,Experiment.ID,Experiment.Version,Tree.Node.Key,Repeat.Key,Schedule.ID,Participant.Private.ID,Participant.Starting.Group,Participant.Status,Participant.Completion.Code,Participant.External.Session.ID,Participant.Device.Type,Participant.Device,Participant.OS,Participant.Browser,Participant.Monitor.Size,Participant.Viewport.Size,Checkpoint,Task.Name,Task.Version,branch.69an,randomiser.8vg2,quota.bqtt,quota.rycs,quota.wtfi,quota.usve,quota.zgic,quota.f3yz,quota.r9vy,quota.tfqq,quota.3dga,quota.dtj6,Spreadsheet,Spreadsheet.Name,Spreadsheet.Row,Trial.Number,Screen.Number,Screen.Name,Zone.Name,Zone.Type,Reaction.Time,Reaction.Onset,Response.Type,Response,Attempt,Correct,Incorrect,Dishonest,X.Coordinate,Y.Coordinate,Timed.Out,randomise_blocks,randomise_trials,display,Arguments,ShowProgressBar,StartDate,EndDate,Status,prolif_check,discuss_1,read_1,age,gender,gender_4_TEXT,edu,condition,ID,arg_ID,Position,Arg_Position
1,1659953328695,08/08/2022 10:08:48,1659953331073,1,08/08/2022 11:08:51,94118,2,task-lkrz,NA,23521309,6893369,NA,complete,NA,62f0e07f72fb446fb73f4183,computer,Desktop or Laptop,Windows 10,Chrome 104.0.0.0,1366x768,1366x657,NA,ITT Ratings,2,against,1,ACCEPT,NA,NA,NA,NA,NA,NA,NA,NA,REJECT,batch2pro,NA,NA,BEGIN TASK,NA,NA,NA,NA,NA,NA,NA,NA,NA,0,1,0,NA,NA,NA,NA,NA,NA,NA,NA,NA,NA,NA,NA,NA,NA,NA,NA,NA,NA,NA,NA,NA,NA,NA
2,1659953337139,08/08/2022 10:08:57,1659953339557,1,08/08/2022 11:08:59,94118,2,task-lkrz,NA,23521309,6893369,NA,complete,NA,62f0e07f72fb446fb73f4183,computer,Desktop or Laptop,Windows 10,Chrome 104.0.0.0,1366x768,1366x657,NA,ITT Ratings,2,against,1,ACCEPT,NA,NA,NA,NA,NA,NA,NA,NA,REJECT,batch2pro,batch2pro,1,1,1,Screen 1,advancementZone,continue_button,8365.799999952316,NA,NA,NA,NA,0,1,0,NA,NA,NA,NA,NA,instructions,NA,NA,NA,NA,NA,NA,NA,NA,NA,NA,NA,NA,NA,NA,NA,NA,NA
3,1659953351070,08/08/2022 10:09:11,1659953353484,1,08/08/2022 11:09:13,94118,2,task-lkrz,NA,23521309,6893369,NA,complete,NA,62f0e07f72fb446fb73f4183,computer,Desktop or Laptop,Windows 10,Chrome 104.0.0.0,1366x768,1366x657,NA,ITT Ratings,2,against,1,ACCEPT,NA,NA,NA,NA,NA,NA,NA,NA,REJECT,batch2pro,batch2pro,18,1,1,Screen 1,continueButton,response_rating_scale_likert_active,13902.099999904633,NA,NA,Neither Agree nor Disagree,1,0,1,0,NA,NA,NA,NA,1,statements,what if i have a reaction to it?,1,17/06/2021 12:37,17/06/2021 12:44,IP Address,For (I feel positively about the vaccines),Rarely,Rarely,33,Female,NA,A levels,choice,13,3,For,Against
4,1659953358781,08/08/2022 10:09:18,1659953361181,1,08/08/2022 11:09:21,94118,2,task-lkrz,NA,23521309,6893369,NA,complete,NA,62f0e07f72fb446fb73f4183,computer,Desktop or Laptop,Windows 10,Chrome 104.0.0.0,1366x768,1366x657,NA,ITT Ratings,2,against,1,ACCEPT,NA,NA,NA,NA,NA,NA,NA,NA,REJECT,batch2pro,batch2pro,11,2,1,Screen 1,continueButton,response_rating_scale_likert_active,7680.900000095367,NA,NA,Agree,1,0,1,0,NA,NA,NA,NA,1,statements,They know people who have had bad side effects.,1,17/06/2021 12:36,17/06/2021 12:44,IP Address,For (I feel positively about the vaccines),Most months,Most months,24,Male,NA,"Undergraduate degree (BSc, BA)",control,12,2,For,Against
5,1659953364641,08/08/2022 10:09:24,1659953367046,1,08/08/2022 11:09:27,94118,2,task-lkrz,NA,23521309,6893369,NA,complete,NA,62f0e07f72fb446fb73f4183,computer,Desktop or Laptop,Windows 10,Chrome 104.0.0.0,1366x768,1366x657,NA,ITT Ratings,2,against,1,ACCEPT,NA,NA,NA,NA,NA,NA,NA,NA,REJECT,batch2pro,batch2pro,41,3,1,Screen 1,continueButton,response_rating_scale_likert_active,5851.899999856949,NA,NA,Disagree,1,0,1,0,NA,NA,NA,NA,1,statements,The government might impact a chip in me through the needle or change my dna,1,17/06/2021 12:32,17/06/2021 12:45,IP Address,For (I feel positively about the vaccines),A few times a year,A few times a year,20,Female,NA,A levels,choice,17,2,For,Against
6,1659953369403,08/08/2022 10:09:29,1659953371808,1,08/08/2022 11:09:31,94118,2,task-lkrz,NA,23521309,6893369,NA,complete,NA,62f0e07f72fb446fb73f4183,computer,Desktop or Laptop,Windows 10,Chrome 104.0.0.0,1366x768,1366x657,NA,ITT Ratings,2,against,1,ACCEPT,NA,NA,NA,NA,NA,NA,NA,NA,REJECT,batch2pro,batch2pro,60,4,1,Screen 1,continueButton,response_rating_scale_likert_active,4748.400000095367,NA,NA,Disagree,1,0,1,0,NA,NA,NA,NA,1,statements,I think some people are influenced against the vaccine by family or friends who believe the above reasons,1,17/06/2021 12:29,17/06/2021 12:46,IP Address,For (I feel positively about the vaccines),Never,A few times a year,57,Female,NA,"Undergraduate degree (BSc, BA)",choice,20,3,For,Against
7,1659953375509,08/08/2022 10:09:35,1659953377926,1,08/08/2022 11:09:37,94118,2,task-lkrz,NA,23521309,6893369,NA,complete,NA,62f0e07f72fb446fb73f4183,computer,Desktop or Laptop,Windows 10,Chrome 104.0.0.0,1366x768,1366x657,NA,ITT Ratings,2,against,1,ACCEPT,NA,NA,NA,NA,NA,NA,NA,NA,REJECT,batch2pro,batch2pro,52,5,1,Screen 1,continueButton,response_rating_scale_likert_active,6101.5,NA,NA,Disagree,1,0,1,0,NA,NA,NA,NA,1,statements,We have no information about long term side effects,1,17/06/2021 12:31,17/06/2021 12:46,IP Address,For (I feel positively about the vaccines),A few times a year,Most months,21,Female,NA,A levels,choice,19,1,For,Against
8,1659953382954,08/08/2022 10:09:42,1659953385351,1,08/08/2022 11:09:45,94118,2,task-lkrz,NA,23521309,6893369,NA,complete,NA,62f0e07f72fb446fb73f4183,computer,Desktop or Laptop,Windows 10,Chrome 104.0.0.0,1366x768,1366x657,NA,ITT Ratings,2,against,1,ACCEPT,NA,NA,NA,NA,NA,NA,NA,NA,REJECT,batch2pro,batch2pro,5,6,1,Screen 1,continueButton,response_rating_scale_likert_active,7408.199999809265,NA,NA,Neither Agree nor Disagree,1,0,1,0,NA,NA,NA,NA,1,statements,It's a money making scheme,1,17/06/2021 12:39,17/06/2021 12:44,IP Address,For (I feel positively about the vaccines),Most weeks,Once or twice a year,25,Female,NA,"Undergraduate degree (BSc, BA)",control,11,2,For,Against
9,1659953391325,08/08/2022 10:09:51,1659953393716,1,08/08/2022 11:09:53,94118,2,task-lkrz,NA,23521309,6893369,NA,complete,NA,62f0e07f72fb446fb73f4183,computer,Desktop or Laptop,Windows 10,Chrome 104.0.0.0,1366x768,1366x657,NA,ITT Ratings,2,against,1,ACCEPT,NA,NA,NA,NA,NA,NA,NA,NA,REJECT,batch2pro,batch2pro,33,7,1,Screen 1,continueButton,response_rating_scale_likert_active,8350.399999856949,NA,NA,Disagree,1,0,1,0,NA,NA,NA,NA,1,statements,Get back to life without restrictions faster,1,17/06/2021 12:39,17/06/2021 12:45,IP Address,For (I feel positively about the vaccines),Rarely,Rarely,35,Female,NA,"Undergraduate degree (BSc, BA)",choice,15,3,For,For
10,1659953399350,08/08/2022 10:09:59,1659953401728,1,08/08/2022 11:10:01,94118,2,task-lkrz,NA,23521309,6893369,NA,complete,NA,62f0e07f72fb446fb73f4183,computer,Desktop or Laptop,Windows 10,Chrome 104.0.0.0,1366x768,1366x657,NA,ITT Ratings,2,against,1,ACCEPT,NA,NA,NA,NA,NA,NA,NA,NA,REJECT,batch2pro,batch2pro,20,8,1,Screen 1,continueButton,response_rating_scale_likert_active,7997.799999952316,NA,NA,Disagree,1,0,1,0,NA,NA,NA,NA,1,statements,i want to protect the vulnerable people and people who cant have it,1,17/06/2021 12:37,17/06/2021 12:44,IP Address,For (I feel positively about the vaccines),Rarely,Rarely,33,Female,NA,A levels,choice,13,2,For,For
11,1659953402309,08/08/2022 10:10:02,1659953404726,1,08/08/2022 11:10:04,94118,2,task-lkrz,NA,23521309,6893369,NA,complete,NA,62f0e07f72fb446fb73f4183,computer,Desktop or Laptop,Windows 10,Chrome 104.0.0.0,1366x768,1366x657,NA,ITT Ratings,2,against,1,ACCEPT,NA,NA,NA,NA,NA,NA,NA,NA,REJECT,batch2pro,batch2pro,14,9,1,Screen 1,continueButton,response_rating_scale_likert_active,2983.2999999523163,NA,NA,Disagree,1,0,1,0,NA,NA,NA,NA,1,statements,They want to be able to travel.,1,17/06/2021 12:36,17/06/2021 12:44,IP Address,For (I feel positively about the vaccines),Most months,Most months,24,Male,NA,"Undergraduate degree (BSc, BA)",control,12,2,For,For
12,1659953406379,08/08/2022 10:10:06,1659953408786,1,08/08/2022 11:10:08,94118,2,task-lkrz,NA,23521309,6893369,NA,complete,NA,62f0e07f72fb446fb73f4183,computer,Desktop or Laptop,Windows 10,Chrome 104.0.0.0,1366x768,1366x657,NA,ITT Ratings,2,against,1,ACCEPT,NA,NA,NA,NA,NA,NA,NA,NA,REJECT,batch2pro,batch2pro,59,10,1,Screen 1,continueButton,response_rating_scale_likert_active,4046.400000095367,NA,NA,Disagree,1,0,1,0,NA,NA,NA,NA,1,statements,I have heard that some people believe the vaccine contains a microchip,1,17/06/2021 12:29,17/06/2021 12:46,IP Address,For (I feel positively about the vaccines),Never,A few times a year,57,Female,NA,"Undergraduate degree (BSc, BA)",choice,20,2,For,Against
13,1659953411891,08/08/2022 10:10:11,1659953414295,1,08/08/2022 11:10:14,94118,2,task-lkrz,NA,23521309,6893369,NA,complete,NA,62f0e07f72fb446fb73f4183,computer,Desktop or Laptop,Windows 10,Chrome 104.0.0.0,1366x768,1366x657,NA,ITT Ratings,2,against,1,ACCEPT,NA,NA,NA,NA,NA,NA,NA,NA,REJECT,batch2pro,batch2pro,15,11,1,Screen 1,continueButton,response_rating_scale_likert_active,5496.5,NA,NA,Disagree,1,0,1,0,NA,NA,NA,NA,1,statements,They regularly come into contact with someone who is at high risk.,1,17/06/2021 12:36,17/06/2021 12:44,IP Address,For (I feel positively about the vaccines),Most months,Most months,24,Male,NA,"Undergraduate degree (BSc, BA)",control,12,3,For,For
14,1659953420620,08/08/2022 10:10:20,1659953423036,1,08/08/2022 11:10:23,94118,2,task-lkrz,NA,23521309,6893369,NA,complete,NA,62f0e07f72fb446fb73f4183,computer,Desktop or Laptop,Windows 10,Chrome 104.0.0.0,1366x768,1366x657,NA,ITT Ratings,2,against,1,ACCEPT,NA,NA,NA,NA,NA,NA,NA,NA,REJECT,batch2pro,batch2pro,3,12,1,Screen 1,continueButton,response_rating_scale_likert_active,8727.600000143051,NA,NA,Somewhat Disagree,1,0,1,0,NA,NA,NA,NA,1,statements,We would like to check you are reading each argument carefully. Please select 'Somewhat Disagree' for this answer,1,NA,NA,NA,NA,NA,NA,NA,NA,NA,NA,NA,NA,check2,NA,NA
15,1659953430423,08/08/2022 10:10:30,1659953432809,1,08/08/2022 11:10:32,94118,2,task-lkrz,NA,23521309,6893369,NA,complete,NA,62f0e07f72fb446fb73f4183,computer,Desktop or Laptop,Windows 10,Chrome 104.0.0.0,1366x768,1366x657,NA,ITT Ratings,2,against,1,ACCEPT,NA,NA,NA,NA,NA,NA,NA,NA,REJECT,batch2pro,batch2pro,9,13,1,Screen 1,continueButton,response_rating_scale_likert_active,9755.600000143051,NA,NA,Somewhat Agree,1,0,1,0,NA,NA,NA,NA,1,statements,Personal protection,1,17/06/2021 12:39,17/06/2021 12:44,IP Address,For (I feel positively about the vaccines),Most weeks,Once or twice a year,25,Female,NA,"Undergraduate degree (BSc, BA)",control,11,3,For,For
16,1659953434506,08/08/2022 10:10:34,1659953436901,1,08/08/2022 11:10:36,94118,2,task-lkrz,NA,23521309,6893369,NA,complete,NA,62f0e07f72fb446fb73f4183,computer,Desktop or Laptop,Windows 10,Chrome 104.0.0.0,1366x768,1366x657,NA,ITT Ratings,2,against,1,ACCEPT,NA,NA,NA,NA,NA,NA,NA,NA,REJECT,batch2pro,batch2pro,37,14,1,Screen 1,continueButton,response_rating_scale_likert_active,4078.5,NA,NA,Disagree,1,0,1,0,NA,NA,NA,NA,1,statements,It will protect you and your family,1,17/06/2021 12:14,17/06/2021 12:45,IP Address,For (I feel positively about the vaccines),Rarely,Once or twice a year,48,Female,NA,GCSEs,choice,16,1,For,For
17,1659953440600,08/08/2022 10:10:40,1659953443007,1,08/08/2022 11:10:43,94118,2,task-lkrz,NA,23521309,6893369,NA,complete,NA,62f0e07f72fb446fb73f4183,computer,Desktop or Laptop,Windows 10,Chrome 104.0.0.0,1366x768,1366x657,NA,ITT Ratings,2,against,1,ACCEPT,NA,NA,NA,NA,NA,NA,NA,NA,REJECT,batch2pro,batch2pro,30,15,1,Screen 1,continueButton,response_rating_scale_likert_active,6092,NA,NA,Somewhat Agree,1,0,1,0,NA,NA,NA,NA,1,statements,Bad side effects mean they don't want to take it,1,17/06/2021 12:39,17/06/2021 12:45,IP Address,For (I feel positively about the vaccines),Rarely,Rarely,35,Female,NA,"Undergraduate degree (BSc, BA)",choice,15,3,For,Against
18,1659953443581,08/08/2022 10:10:43,1659953445995,1,08/08/2022 11:10:45,94118,2,task-lkrz,NA,23521309,6893369,NA,complete,NA,62f0e07f72fb446fb73f4183,computer,Desktop or Laptop,Windows 10,Chrome 104.0.0.0,1366x768,1366x657,NA,ITT Ratings,2,against,1,ACCEPT,NA,NA,NA,NA,NA,NA,NA,NA,REJECT,batch2pro,batch2pro,31,16,1,Screen 1,continueButton,response_rating_scale_likert_active,2975.2999999523163,NA,NA,Somewhat Disagree,1,0,1,0,NA,NA,NA,NA,1,statements,Protect myself from Covid,1,17/06/2021 12:39,17/06/2021 12:45,IP Address,For (I feel positively about the vaccines),Rarely,Rarely,35,Female,NA,"Undergraduate degree (BSc, BA)",choice,15,1,For,For
19,1659953447467,08/08/2022 10:10:47,1659953449874,1,08/08/2022 11:10:49,94118,2,task-lkrz,NA,23521309,6893369,NA,complete,NA,62f0e07f72fb446fb73f4183,computer,Desktop or Laptop,Windows 10,Chrome 104.0.0.0,1366x768,1366x657,NA,ITT Ratings,2,against,1,ACCEPT,NA,NA,NA,NA,NA,NA,NA,NA,REJECT,batch2pro,batch2pro,12,17,1,Screen 1,continueButton,response_rating_scale_likert_active,3867.099999904633,NA,NA,Neither Agree nor Disagree,1,0,1,0,NA,NA,NA,NA,1,statements,They don't trust the companies that make it.,1,17/06/2021 12:36,17/06/2021 12:44,IP Address,For (I feel positively about the vaccines),Most months,Most months,24,Male,NA,"Undergraduate degree (BSc, BA)",control,12,3,For,Against
20,1659953450851,08/08/2022 10:10:50,1659953453194,1,08/08/2022 11:10:53,94118,2,task-lkrz,NA,23521309,6893369,NA,complete,NA,62f0e07f72fb446fb73f4183,computer,Desktop or Laptop,Windows 10,Chrome 104.0.0.0,1366x768,1366x657,NA,ITT Ratings,2,against,1,ACCEPT,NA,NA,NA,NA,NA,NA,NA,NA,REJECT,batch2pro,batch2pro,48,18,1,Screen 1,continueButton,response_rating_scale_likert_active,3308.7999999523163,NA,NA,Disagree,1,0,1,0,NA,NA,NA,NA,1,statements,I'm getting microchipped by Big Pharma!,1,17/06/2021 12:39,17/06/2021 12:46,IP Address,For (I feel positively about the vaccines),A few times a year,Most weeks,22,Female,NA,"GCSEs,A levels,Undergraduate degree (BSc, BA)",choice,18,3,For,Against
21,1659953454607,08/08/2022 10:10:54,1659953457002,1,08/08/2022 11:10:57,94118,2,task-lkrz,NA,23521309,6893369,NA,complete,NA,62f0e07f72fb446fb73f4183,computer,Desktop or Laptop,Windows 10,Chrome 104.0.0.0,1366x768,1366x657,NA,ITT Ratings,2,against,1,ACCEPT,NA,NA,NA,NA,NA,NA,NA,NA,REJECT,batch2pro,batch2pro,61,19,1,Screen 1,continueButton,response_rating_scale_likert_active,3793,NA,NA,Disagree,1,0,1,0,NA,NA,NA,NA,1,statements,Feel safer to go out with friends or to shops if vaccinated,1,17/06/2021 12:29,17/06/2021 12:46,IP Address,For (I feel positively about the vaccines),Never,A few times a year,57,Female,NA,"Undergraduate degree (BSc, BA)",choice,20,1,For,For
22,1659953458573,08/08/2022 10:10:58,1659953460962,1,08/08/2022 11:11:00,94118,2,task-lkrz,NA,23521309,6893369,NA,complete,NA,62f0e07f72fb446fb73f4183,computer,Desktop or Laptop,Windows 10,Chrome 104.0.0.0,1366x768,1366x657,NA,ITT Ratings,2,against,1,ACCEPT,NA,NA,NA,NA,NA,NA,NA,NA,REJECT,batch2pro,batch2pro,23,20,1,Screen 1,continueButton,response_rating_scale_likert_active,3947.299999952316,NA,NA,Neither Agree nor Disagree,1,0,1,0,NA,NA,NA,NA,1,statements,Affects my fertility,1,17/06/2021 12:37,17/06/2021 12:45,IP Address,For (I feel positively about the vaccines),Most months,Most days,51,Female,NA,"Undergraduate degree (BSc, BA)",control,14,2,For,Against
23,1659953462558,08/08/2022 10:11:02,1659953464962,1,08/08/2022 11:11:04,94118,2,task-lkrz,NA,23521309,6893369,NA,complete,NA,62f0e07f72fb446fb73f4183,computer,Desktop or Laptop,Windows 10,Chrome 104.0.0.0,1366x768,1366x657,NA,ITT Ratings,2,against,1,ACCEPT,NA,NA,NA,NA,NA,NA,NA,NA,REJECT,batch2pro,batch2pro,39,21,1,Screen 1,continueButton,response_rating_scale_likert_active,3987.799999952316,NA,NA,Disagree,1,0,1,0,NA,NA,NA,NA,1,statements,With 2 does it will at least slow the spreading or hopefully stop,1,17/06/2021 12:14,17/06/2021 12:45,IP Address,For (I feel positively about the vaccines),Rarely,Once or twice a year,48,Female,NA,GCSEs,choice,16,3,For,For
24,1659953464939,08/08/2022 10:11:04,1659953467312,1,08/08/2022 11:11:07,94118,2,task-lkrz,NA,23521309,6893369,NA,complete,NA,62f0e07f72fb446fb73f4183,computer,Desktop or Laptop,Windows 10,Chrome 104.0.0.0,1366x768,1366x657,NA,ITT Ratings,2,against,1,ACCEPT,NA,NA,NA,NA,NA,NA,NA,NA,REJECT,batch2pro,batch2pro,25,22,1,Screen 1,continueButton,response_rating_scale_likert_active,2335.2999999523163,NA,NA,Disagree,1,0,1,0,NA,NA,NA,NA,1,statements,It will help to keep you safe,1,17/06/2021 12:37,17/06/2021 12:45,IP Address,For (I feel positively about the vaccines),Most months,Most days,51,Female,NA,"Undergraduate degree (BSc, BA)",control,14,1,For,For
25,1659953471456,08/08/2022 10:11:11,1659953473864,1,08/08/2022 11:11:13,94118,2,task-lkrz,NA,23521309,6893369,NA,complete,NA,62f0e07f72fb446fb73f4183,computer,Desktop or Laptop,Windows 10,Chrome 104.0.0.0,1366x768,1366x657,NA,ITT Ratings,2,against,1,ACCEPT,NA,NA,NA,NA,NA,NA,NA,NA,REJECT,batch2pro,batch2pro,6,23,1,Screen 1,continueButton,response_rating_scale_likert_active,6479.599999904633,NA,NA,Somewhat Agree,1,0,1,0,NA,NA,NA,NA,1,statements,They've never had the flu jab and have never been badly affected by flu so don’t see the point,1,17/06/2021 12:39,17/06/2021 12:44,IP Address,For (I feel positively about the vaccines),Most weeks,Once or twice a year,25,Female,NA,"Undergraduate degree (BSc, BA)",control,11,3,For,Against
26,1659953475257,08/08/2022 10:11:15,1659953477652,1,08/08/2022 11:11:17,94118,2,task-lkrz,NA,23521309,6893369,NA,complete,NA,62f0e07f72fb446fb73f4183,computer,Desktop or Laptop,Windows 10,Chrome 104.0.0.0,1366x768,1366x657,NA,ITT Ratings,2,against,1,ACCEPT,NA,NA,NA,NA,NA,NA,NA,NA,REJECT,batch2pro,batch2pro,55,24,1,Screen 1,continueButton,response_rating_scale_likert_active,3774.600000143051,NA,NA,Disagree,1,0,1,0,NA,NA,NA,NA,1,statements,It helps protect you against the virus,1,17/06/2021 12:31,17/06/2021 12:46,IP Address,For (I feel positively about the vaccines),A few times a year,Most months,21,Female,NA,A levels,choice,19,1,For,For
27,1659953481252,08/08/2022 10:11:21,1659953483657,1,08/08/2022 11:11:23,94118,2,task-lkrz,NA,23521309,6893369,NA,complete,NA,62f0e07f72fb446fb73f4183,computer,Desktop or Laptop,Windows 10,Chrome 104.0.0.0,1366x768,1366x657,NA,ITT Ratings,2,against,1,ACCEPT,NA,NA,NA,NA,NA,NA,NA,NA,REJECT,batch2pro,batch2pro,17,25,1,Screen 1,continueButton,response_rating_scale_likert_active,5989.200000047684,NA,NA,Strongly Agree,1,0,1,0,NA,NA,NA,NA,1,statements,who knows what the long term effects will be from the vaccine.,1,17/06/2021 12:37,17/06/2021 12:44,IP Address,For (I feel positively about the vaccines),Rarely,Rarely,33,Female,NA,A levels,choice,13,2,For,Against
28,1659953484353,08/08/2022 10:11:24,1659953486768,1,08/08/2022 11:11:26,94118,2,task-lkrz,NA,23521309,6893369,NA,complete,NA,62f0e07f72fb446fb73f4183,computer,Desktop or Laptop,Windows 10,Chrome 104.0.0.0,1366x768,1366x657,NA,ITT Ratings,2,against,1,ACCEPT,NA,NA,NA,NA,NA,NA,NA,NA,REJECT,batch2pro,batch2pro,51,26,1,Screen 1,continueButton,response_rating_scale_likert_active,3098.7999999523163,NA,NA,Disagree,1,0,1,0,NA,NA,NA,NA,1,statements,I want to safely see my family and friends again,1,17/06/2021 12:39,17/06/2021 12:46,IP Address,For (I feel positively about the vaccines),A few times a year,Most weeks,22,Female,NA,"GCSEs,A levels,Undergraduate degree (BSc, BA)",choice,18,3,For,For
29,1659953488264,08/08/2022 10:11:28,1659953490676,1,08/08/2022 11:11:30,94118,2,task-lkrz,NA,23521309,6893369,NA,complete,NA,62f0e07f72fb446fb73f4183,computer,Desktop or Laptop,Windows 10,Chrome 104.0.0.0,1366x768,1366x657,NA,ITT Ratings,2,against,1,ACCEPT,NA,NA,NA,NA,NA,NA,NA,NA,REJECT,batch2pro,batch2pro,29,27,1,Screen 1,continueButton,response_rating_scale_likert_active,3895.799999952316,NA,NA,Neither Agree nor Disagree,1,0,1,0,NA,NA,NA,NA,1,statements,Not necessary as I am not at personal risk,1,17/06/2021 12:39,17/06/2021 12:45,IP Address,For (I feel positively about the vaccines),Rarely,Rarely,35,Female,NA,"Undergraduate degree (BSc, BA)",choice,15,2,For,Against
30,1659953496376,08/08/2022 10:11:36,1659953498789,1,08/08/2022 11:11:38,94118,2,task-lkrz,NA,23521309,6893369,NA,complete,NA,62f0e07f72fb446fb73f4183,computer,Desktop or Laptop,Windows 10,Chrome 104.0.0.0,1366x768,1366x657,NA,ITT Ratings,2,against,1,ACCEPT,NA,NA,NA,NA,NA,NA,NA,NA,REJECT,batch2pro,batch2pro,21,28,1,Screen 1,continueButton,response_rating_scale_likert_active,8100.400000095367,NA,NA,Disagree,1,0,1,0,NA,NA,NA,NA,1,statements,iv had all vaccines iv been offered previously so why is this different?,1,17/06/2021 12:37,17/06/2021 12:44,IP Address,For (I feel positively about the vaccines),Rarely,Rarely,33,Female,NA,A levels,choice,13,3,For,For
31,1659953500233,08/08/2022 10:11:40,1659953502627,1,08/08/2022 11:11:42,94118,2,task-lkrz,NA,23521309,6893369,NA,complete,NA,62f0e07f72fb446fb73f4183,computer,Desktop or Laptop,Windows 10,Chrome 104.0.0.0,1366x768,1366x657,NA,ITT Ratings,2,against,1,ACCEPT,NA,NA,NA,NA,NA,NA,NA,NA,REJECT,batch2pro,batch2pro,34,29,1,Screen 1,continueButton,response_rating_scale_likert_active,3825.100000143051,NA,NA,Somewhat Agree,1,0,1,0,NA,NA,NA,NA,1,statements,Side effects that will make me ill badly,1,17/06/2021 12:14,17/06/2021 12:45,IP Address,For (I feel positively about the vaccines),Rarely,Once or twice a year,48,Female,NA,GCSEs,choice,16,1,For,Against
32,1659953501627,08/08/2022 10:11:41,1659953503640,1,08/08/2022 11:11:43,94118,2,task-lkrz,NA,23521309,6893369,NA,complete,NA,62f0e07f72fb446fb73f4183,computer,Desktop or Laptop,Windows 10,Chrome 104.0.0.0,1366x768,1366x657,NA,ITT Ratings,2,against,1,ACCEPT,NA,NA,NA,NA,NA,NA,NA,NA,REJECT,batch2pro,batch2pro,46,30,1,Screen 1,continueButton,response_rating_scale_likert_active,1003.7000000476836,NA,NA,Somewhat Agree,1,0,1,0,NA,NA,NA,NA,1,statements,It's not safe because the trials were rushed,1,17/06/2021 12:39,17/06/2021 12:46,IP Address,For (I feel positively about the vaccines),A few times a year,Most weeks,22,Female,NA,"GCSEs,A levels,Undergraduate degree (BSc, BA)",choice,18,1,For,Against
33,1659953507758,08/08/2022 10:11:47,1659953510171,1,08/08/2022 11:11:50,94118,2,task-lkrz,NA,23521309,6893369,NA,complete,NA,62f0e07f72fb446fb73f4183,computer,Desktop or Laptop,Windows 10,Chrome 104.0.0.0,1366x768,1366x657,NA,ITT Ratings,2,against,1,ACCEPT,NA,NA,NA,NA,NA,NA,NA,NA,REJECT,batch2pro,batch2pro,50,31,1,Screen 1,continueButton,response_rating_scale_likert_active,6519.700000047684,NA,NA,Disagree,1,0,1,0,NA,NA,NA,NA,1,statements,"By getting the vaccine it means I'm contributing to achieving herd immunity, which keeps everyone safe",1,17/06/2021 12:39,17/06/2021 12:46,IP Address,For (I feel positively about the vaccines),A few times a year,Most weeks,22,Female,NA,"GCSEs,A levels,Undergraduate degree (BSc, BA)",choice,18,2,For,For
34,1659953510618,08/08/2022 10:11:50,1659953513017,1,08/08/2022 11:11:53,94118,2,task-lkrz,NA,23521309,6893369,NA,complete,NA,62f0e07f72fb446fb73f4183,computer,Desktop or Laptop,Windows 10,Chrome 104.0.0.0,1366x768,1366x657,NA,ITT Ratings,2,against,1,ACCEPT,NA,NA,NA,NA,NA,NA,NA,NA,REJECT,batch2pro,batch2pro,10,32,1,Screen 1,continueButton,response_rating_scale_likert_active,2833,NA,NA,Somewhat Agree,1,0,1,0,NA,NA,NA,NA,1,statements,I am worried about what is in it.,1,17/06/2021 12:36,17/06/2021 12:44,IP Address,For (I feel positively about the vaccines),Most months,Most months,24,Male,NA,"Undergraduate degree (BSc, BA)",control,12,1,For,Against
35,1659953514723,08/08/2022 10:11:54,1659953517118,1,08/08/2022 11:11:57,94118,2,task-lkrz,NA,23521309,6893369,NA,complete,NA,62f0e07f72fb446fb73f4183,computer,Desktop or Laptop,Windows 10,Chrome 104.0.0.0,1366x768,1366x657,NA,ITT Ratings,2,against,1,ACCEPT,NA,NA,NA,NA,NA,NA,NA,NA,REJECT,batch2pro,batch2pro,63,33,1,Screen 1,continueButton,response_rating_scale_likert_active,4088.299999952316,NA,NA,Disagree,1,0,1,0,NA,NA,NA,NA,1,statements,The more people who receive the vaccine the sooner we can get back to normal,1,17/06/2021 12:29,17/06/2021 12:46,IP Address,For (I feel positively about the vaccines),Never,A few times a year,57,Female,NA,"Undergraduate degree (BSc, BA)",choice,20,3,For,For
36,1659953518039,08/08/2022 10:11:58,1659953520419,1,08/08/2022 11:12:00,94118,2,task-lkrz,NA,23521309,6893369,NA,complete,NA,62f0e07f72fb446fb73f4183,computer,Desktop or Laptop,Windows 10,Chrome 104.0.0.0,1366x768,1366x657,NA,ITT Ratings,2,against,1,ACCEPT,NA,NA,NA,NA,NA,NA,NA,NA,REJECT,batch2pro,batch2pro,4,34,1,Screen 1,continueButton,response_rating_scale_likert_active,3288.900000095367,NA,NA,Strongly Agree,1,0,1,0,NA,NA,NA,NA,1,statements,It was developed too quickly,1,17/06/2021 12:39,17/06/2021 12:44,IP Address,For (I feel positively about the vaccines),Most weeks,Once or twice a year,25,Female,NA,"Undergraduate degree (BSc, BA)",control,11,1,For,Against
37,1659953521097,08/08/2022 10:12:01,1659953523508,1,08/08/2022 11:12:03,94118,2,task-lkrz,NA,23521309,6893369,NA,complete,NA,62f0e07f72fb446fb73f4183,computer,Desktop or Laptop,Windows 10,Chrome 104.0.0.0,1366x768,1366x657,NA,ITT Ratings,2,against,1,ACCEPT,NA,NA,NA,NA,NA,NA,NA,NA,REJECT,batch2pro,batch2pro,54,35,1,Screen 1,continueButton,response_rating_scale_likert_active,3076.599999904633,NA,NA,Strongly Agree,1,0,1,0,NA,NA,NA,NA,1,statements,It has been developed too fast to be effective and safe.,1,17/06/2021 12:31,17/06/2021 12:46,IP Address,For (I feel positively about the vaccines),A few times a year,Most months,21,Female,NA,A levels,choice,19,3,For,Against
38,1659953527991,08/08/2022 10:12:07,1659953530395,1,08/08/2022 11:12:10,94118,2,task-lkrz,NA,23521309,6893369,NA,complete,NA,62f0e07f72fb446fb73f4183,computer,Desktop or Laptop,Windows 10,Chrome 104.0.0.0,1366x768,1366x657,NA,ITT Ratings,2,against,1,ACCEPT,NA,NA,NA,NA,NA,NA,NA,NA,REJECT,batch2pro,batch2pro,57,36,1,Screen 1,continueButton,response_rating_scale_likert_active,6873.700000047684,NA,NA,Disagree,1,0,1,0,NA,NA,NA,NA,1,statements,There have been extensive tests and funding ensuring the vaccine is safe and effective,1,17/06/2021 12:31,17/06/2021 12:46,IP Address,For (I feel positively about the vaccines),A few times a year,Most months,21,Female,NA,A levels,choice,19,3,For,For
39,1659953533170,08/08/2022 10:12:13,1659953535570,1,08/08/2022 11:12:15,94118,2,task-lkrz,NA,23521309,6893369,NA,complete,NA,62f0e07f72fb446fb73f4183,computer,Desktop or Laptop,Windows 10,Chrome 104.0.0.0,1366x768,1366x657,NA,ITT Ratings,2,against,1,ACCEPT,NA,NA,NA,NA,NA,NA,NA,NA,REJECT,batch2pro,batch2pro,42,37,1,Screen 1,continueButton,response_rating_scale_likert_active,5163.200000047684,NA,NA,Strongly Agree,1,0,1,0,NA,NA,NA,NA,1,statements,"The vaccine had been developed too quickly, theres not been enough testing.",1,17/06/2021 12:32,17/06/2021 12:45,IP Address,For (I feel positively about the vaccines),A few times a year,A few times a year,20,Female,NA,A levels,choice,17,3,For,Against
40,1659953536751,08/08/2022 10:12:16,1659953539156,1,08/08/2022 11:12:19,94118,2,task-lkrz,NA,23521309,6893369,NA,complete,NA,62f0e07f72fb446fb73f4183,computer,Desktop or Laptop,Windows 10,Chrome 104.0.0.0,1366x768,1366x657,NA,ITT Ratings,2,against,1,ACCEPT,NA,NA,NA,NA,NA,NA,NA,NA,REJECT,batch2pro,batch2pro,32,38,1,Screen 1,continueButton,response_rating_scale_likert_active,3572.599999904633,NA,NA,Disagree,1,0,1,0,NA,NA,NA,NA,1,statements,Protect those around by reducing transmission,1,17/06/2021 12:39,17/06/2021 12:45,IP Address,For (I feel positively about the vaccines),Rarely,Rarely,35,Female,NA,"Undergraduate degree (BSc, BA)",choice,15,2,For,For
41,1659953543961,08/08/2022 10:12:23,1659953546345,1,08/08/2022 11:12:26,94118,2,task-lkrz,NA,23521309,6893369,NA,complete,NA,62f0e07f72fb446fb73f4183,computer,Desktop or Laptop,Windows 10,Chrome 104.0.0.0,1366x768,1366x657,NA,ITT Ratings,2,against,1,ACCEPT,NA,NA,NA,NA,NA,NA,NA,NA,REJECT,batch2pro,batch2pro,49,39,1,Screen 1,continueButton,response_rating_scale_likert_active,7176.5,NA,NA,Disagree,1,0,1,0,NA,NA,NA,NA,1,statements,"It will stop me from getting Covid-19. I do not want Covid-19 as it will make me sick, so this is obviously a good thing",1,17/06/2021 12:39,17/06/2021 12:46,IP Address,For (I feel positively about the vaccines),A few times a year,Most weeks,22,Female,NA,"GCSEs,A levels,Undergraduate degree (BSc, BA)",choice,18,1,For,For
42,1659953548898,08/08/2022 10:12:28,1659953551297,1,08/08/2022 11:12:31,94118,2,task-lkrz,NA,23521309,6893369,NA,complete,NA,62f0e07f72fb446fb73f4183,computer,Desktop or Laptop,Windows 10,Chrome 104.0.0.0,1366x768,1366x657,NA,ITT Ratings,2,against,1,ACCEPT,NA,NA,NA,NA,NA,NA,NA,NA,REJECT,batch2pro,batch2pro,16,40,1,Screen 1,continueButton,response_rating_scale_likert_active,4938.099999904633,NA,NA,Strongly Agree,1,0,1,0,NA,NA,NA,NA,1,statements,they havent had enough time to research it properly.,1,17/06/2021 12:37,17/06/2021 12:44,IP Address,For (I feel positively about the vaccines),Rarely,Rarely,33,Female,NA,A levels,choice,13,1,For,Against
43,1659953552953,08/08/2022 10:12:32,1659953555358,1,08/08/2022 11:12:35,94118,2,task-lkrz,NA,23521309,6893369,NA,complete,NA,62f0e07f72fb446fb73f4183,computer,Desktop or Laptop,Windows 10,Chrome 104.0.0.0,1366x768,1366x657,NA,ITT Ratings,2,against,1,ACCEPT,NA,NA,NA,NA,NA,NA,NA,NA,REJECT,batch2pro,batch2pro,38,41,1,Screen 1,continueButton,response_rating_scale_likert_active,4048.399999856949,NA,NA,Disagree,1,0,1,0,NA,NA,NA,NA,1,statements,When you go outside shopping for food or just chatting someone  you are protected,1,17/06/2021 12:14,17/06/2021 12:45,IP Address,For (I feel positively about the vaccines),Rarely,Once or twice a year,48,Female,NA,GCSEs,choice,16,2,For,For
44,1659953556649,08/08/2022 10:12:36,1659953559034,1,08/08/2022 11:12:39,94118,2,task-lkrz,NA,23521309,6893369,NA,complete,NA,62f0e07f72fb446fb73f4183,computer,Desktop or Laptop,Windows 10,Chrome 104.0.0.0,1366x768,1366x657,NA,ITT Ratings,2,against,1,ACCEPT,NA,NA,NA,NA,NA,NA,NA,NA,REJECT,batch2pro,batch2pro,47,42,1,Screen 1,continueButton,response_rating_scale_likert_active,3665,NA,NA,Strongly Agree,1,0,1,0,NA,NA,NA,NA,1,statements,Worried about the side effects,1,17/06/2021 12:39,17/06/2021 12:46,IP Address,For (I feel positively about the vaccines),A few times a year,Most weeks,22,Female,NA,"GCSEs,A levels,Undergraduate degree (BSc, BA)",choice,18,2,For,Against
45,1659953559238,08/08/2022 10:12:39,1659953561628,1,08/08/2022 11:12:41,94118,2,task-lkrz,NA,23521309,6893369,NA,complete,NA,62f0e07f72fb446fb73f4183,computer,Desktop or Laptop,Windows 10,Chrome 104.0.0.0,1366x768,1366x657,NA,ITT Ratings,2,against,1,ACCEPT,NA,NA,NA,NA,NA,NA,NA,NA,REJECT,batch2pro,batch2pro,19,43,1,Screen 1,continueButton,response_rating_scale_likert_active,2579.7000000476837,NA,NA,Disagree,1,0,1,0,NA,NA,NA,NA,1,statements,i dont want too die from covid 19,1,17/06/2021 12:37,17/06/2021 12:44,IP Address,For (I feel positively about the vaccines),Rarely,Rarely,33,Female,NA,A levels,choice,13,1,For,For
46,1659953562874,08/08/2022 10:12:42,1659953565286,1,08/08/2022 11:12:45,94118,2,task-lkrz,NA,23521309,6893369,NA,complete,NA,62f0e07f72fb446fb73f4183,computer,Desktop or Laptop,Windows 10,Chrome 104.0.0.0,1366x768,1366x657,NA,ITT Ratings,2,against,1,ACCEPT,NA,NA,NA,NA,NA,NA,NA,NA,REJECT,batch2pro,batch2pro,36,44,1,Screen 1,continueButton,response_rating_scale_likert_active,3645.099999904633,NA,NA,Disagree,1,0,1,0,NA,NA,NA,NA,1,statements,Am a very healthy person I don’t need this vaccine,1,17/06/2021 12:14,17/06/2021 12:45,IP Address,For (I feel positively about the vaccines),Rarely,Once or twice a year,48,Female,NA,GCSEs,choice,16,3,For,Against
47,1659953568515,08/08/2022 10:12:48,1659953570919,1,08/08/2022 11:12:50,94118,2,task-lkrz,NA,23521309,6893369,NA,complete,NA,62f0e07f72fb446fb73f4183,computer,Desktop or Laptop,Windows 10,Chrome 104.0.0.0,1366x768,1366x657,NA,ITT Ratings,2,against,1,ACCEPT,NA,NA,NA,NA,NA,NA,NA,NA,REJECT,batch2pro,batch2pro,28,45,1,Screen 1,continueButton,response_rating_scale_likert_active,5621.200000047684,NA,NA,Somewhat Agree,1,0,1,0,NA,NA,NA,NA,1,statements,Not safe as it's been rushed,1,17/06/2021 12:39,17/06/2021 12:45,IP Address,For (I feel positively about the vaccines),Rarely,Rarely,35,Female,NA,"Undergraduate degree (BSc, BA)",choice,15,1,For,Against
48,1659953574604,08/08/2022 10:12:54,1659953576997,1,08/08/2022 11:12:56,94118,2,task-lkrz,NA,23521309,6893369,NA,complete,NA,62f0e07f72fb446fb73f4183,computer,Desktop or Laptop,Windows 10,Chrome 104.0.0.0,1366x768,1366x657,NA,ITT Ratings,2,against,1,ACCEPT,NA,NA,NA,NA,NA,NA,NA,NA,REJECT,batch2pro,batch2pro,40,46,1,Screen 1,continueButton,response_rating_scale_likert_active,6061.599999904633,NA,NA,Disagree,1,0,1,0,NA,NA,NA,NA,1,statements,Jesus protects me against all things and therefore I don't need a vaccine.,1,17/06/2021 12:32,17/06/2021 12:45,IP Address,For (I feel positively about the vaccines),A few times a year,A few times a year,20,Female,NA,A levels,choice,17,1,For,Against
49,1659953576125,08/08/2022 10:12:56,1659953578537,1,08/08/2022 11:12:58,94118,2,task-lkrz,NA,23521309,6893369,NA,complete,NA,62f0e07f72fb446fb73f4183,computer,Desktop or Laptop,Windows 10,Chrome 104.0.0.0,1366x768,1366x657,NA,ITT Ratings,2,against,1,ACCEPT,NA,NA,NA,NA,NA,NA,NA,NA,REJECT,batch2pro,batch2pro,43,47,1,Screen 1,continueButton,response_rating_scale_likert_active,1527.9000000953674,NA,NA,Disagree,1,0,1,0,NA,NA,NA,NA,1,statements,Protecting those who are vulnerable around me.,1,17/06/2021 12:32,17/06/2021 12:45,IP Address,For (I feel positively about the vaccines),A few times a year,A few times a year,20,Female,NA,A levels,choice,17,1,For,For
50,1659953583050,08/08/2022 10:13:03,1659953585438,1,08/08/2022 11:13:05,94118,2,task-lkrz,NA,23521309,6893369,NA,complete,NA,62f0e07f72fb446fb73f4183,computer,Desktop or Laptop,Windows 10,Chrome 104.0.0.0,1366x768,1366x657,NA,ITT Ratings,2,against,1,ACCEPT,NA,NA,NA,NA,NA,NA,NA,NA,REJECT,batch2pro,batch2pro,58,48,1,Screen 1,continueButton,response_rating_scale_likert_active,6888.600000143051,NA,NA,Disagree,1,0,1,0,NA,NA,NA,NA,1,statements,I believe a lot of people are concerned about potential blood clots from the vaccine but I personally believe and the article I read confirmed that the risk is small.,1,17/06/2021 12:29,17/06/2021 12:46,IP Address,For (I feel positively about the vaccines),Never,A few times a year,57,Female,NA,"Undergraduate degree (BSc, BA)",choice,20,1,For,Against
51,1659953588271,08/08/2022 10:13:08,1659953590669,1,08/08/2022 11:13:10,94118,2,task-lkrz,NA,23521309,6893369,NA,complete,NA,62f0e07f72fb446fb73f4183,computer,Desktop or Laptop,Windows 10,Chrome 104.0.0.0,1366x768,1366x657,NA,ITT Ratings,2,against,1,ACCEPT,NA,NA,NA,NA,NA,NA,NA,NA,REJECT,batch2pro,batch2pro,53,49,1,Screen 1,continueButton,response_rating_scale_likert_active,5223.900000095367,NA,NA,Somewhat Agree,1,0,1,0,NA,NA,NA,NA,1,statements,It is not 100% effective,1,17/06/2021 12:31,17/06/2021 12:46,IP Address,For (I feel positively about the vaccines),A few times a year,Most months,21,Female,NA,A levels,choice,19,2,For,Against
52,1659953591472,08/08/2022 10:13:11,1659953593881,1,08/08/2022 11:13:13,94118,2,task-lkrz,NA,23521309,6893369,NA,complete,NA,62f0e07f72fb446fb73f4183,computer,Desktop or Laptop,Windows 10,Chrome 104.0.0.0,1366x768,1366x657,NA,ITT Ratings,2,against,1,ACCEPT,NA,NA,NA,NA,NA,NA,NA,NA,REJECT,batch2pro,batch2pro,45,50,1,Screen 1,continueButton,response_rating_scale_likert_active,3199.400000095367,NA,NA,Disagree,1,0,1,0,NA,NA,NA,NA,1,statements,To give life the chance at being normal again.,1,17/06/2021 12:32,17/06/2021 12:45,IP Address,For (I feel positively about the vaccines),A few times a year,A few times a year,20,Female,NA,A levels,choice,17,3,For,For
53,1659953593299,08/08/2022 10:13:13,1659953595704,1,08/08/2022 11:13:15,94118,2,task-lkrz,NA,23521309,6893369,NA,complete,NA,62f0e07f72fb446fb73f4183,computer,Desktop or Laptop,Windows 10,Chrome 104.0.0.0,1366x768,1366x657,NA,ITT Ratings,2,against,1,ACCEPT,NA,NA,NA,NA,NA,NA,NA,NA,REJECT,batch2pro,batch2pro,44,51,1,Screen 1,continueButton,response_rating_scale_likert_active,1804.7999999523165,NA,NA,Disagree,1,0,1,0,NA,NA,NA,NA,1,statements,Protecting myself.,1,17/06/2021 12:32,17/06/2021 12:45,IP Address,For (I feel positively about the vaccines),A few times a year,A few times a year,20,Female,NA,A levels,choice,17,2,For,For
54,1659953596641,08/08/2022 10:13:16,1659953599027,1,08/08/2022 11:13:19,94118,2,task-lkrz,NA,23521309,6893369,NA,complete,NA,62f0e07f72fb446fb73f4183,computer,Desktop or Laptop,Windows 10,Chrome 104.0.0.0,1366x768,1366x657,NA,ITT Ratings,2,against,1,ACCEPT,NA,NA,NA,NA,NA,NA,NA,NA,REJECT,batch2pro,batch2pro,62,52,1,Screen 1,continueButton,response_rating_scale_likert_active,3308.2000000476837,NA,NA,Disagree,1,0,1,0,NA,NA,NA,NA,1,statements,People in the at risk groups will feel safer going out,1,17/06/2021 12:29,17/06/2021 12:46,IP Address,For (I feel positively about the vaccines),Never,A few times a year,57,Female,NA,"Undergraduate degree (BSc, BA)",choice,20,2,For,For
55,1659953598932,08/08/2022 10:13:18,1659953601327,1,08/08/2022 11:13:21,94118,2,task-lkrz,NA,23521309,6893369,NA,complete,NA,62f0e07f72fb446fb73f4183,computer,Desktop or Laptop,Windows 10,Chrome 104.0.0.0,1366x768,1366x657,NA,ITT Ratings,2,against,1,ACCEPT,NA,NA,NA,NA,NA,NA,NA,NA,REJECT,batch2pro,batch2pro,27,53,1,Screen 1,continueButton,response_rating_scale_likert_active,2287.2999999523163,NA,NA,Disagree,1,0,1,0,NA,NA,NA,NA,1,statements,We will be able to come out of lock down,1,17/06/2021 12:37,17/06/2021 12:45,IP Address,For (I feel positively about the vaccines),Most months,Most days,51,Female,NA,"Undergraduate degree (BSc, BA)",control,14,3,For,For
56,1659953600684,08/08/2022 10:13:20,1659953603081,1,08/08/2022 11:13:23,94118,2,task-lkrz,NA,23521309,6893369,NA,complete,NA,62f0e07f72fb446fb73f4183,computer,Desktop or Laptop,Windows 10,Chrome 104.0.0.0,1366x768,1366x657,NA,ITT Ratings,2,against,1,ACCEPT,NA,NA,NA,NA,NA,NA,NA,NA,REJECT,batch2pro,batch2pro,26,54,1,Screen 1,continueButton,response_rating_scale_likert_active,1741.5999999046326,NA,NA,Disagree,1,0,1,0,NA,NA,NA,NA,1,statements,It will help to keep others safe,1,17/06/2021 12:37,17/06/2021 12:45,IP Address,For (I feel positively about the vaccines),Most months,Most days,51,Female,NA,"Undergraduate degree (BSc, BA)",control,14,2,For,For
57,1659953603229,08/08/2022 10:13:23,1659953605633,1,08/08/2022 11:13:25,94118,2,task-lkrz,NA,23521309,6893369,NA,complete,NA,62f0e07f72fb446fb73f4183,computer,Desktop or Laptop,Windows 10,Chrome 104.0.0.0,1366x768,1366x657,NA,ITT Ratings,2,against,1,ACCEPT,NA,NA,NA,NA,NA,NA,NA,NA,REJECT,batch2pro,batch2pro,56,55,1,Screen 1,continueButton,response_rating_scale_likert_active,2539.600000143051,NA,NA,Disagree,1,0,1,0,NA,NA,NA,NA,1,statements,"In getting it, we can help protect others too",1,17/06/2021 12:31,17/06/2021 12:46,IP Address,For (I feel positively about the vaccines),A few times a year,Most months,21,Female,NA,A levels,choice,19,2,For,For
58,1659953606785,08/08/2022 10:13:26,1659953609179,1,08/08/2022 11:13:29,94118,2,task-lkrz,NA,23521309,6893369,NA,complete,NA,62f0e07f72fb446fb73f4183,computer,Desktop or Laptop,Windows 10,Chrome 104.0.0.0,1366x768,1366x657,NA,ITT Ratings,2,against,1,ACCEPT,NA,NA,NA,NA,NA,NA,NA,NA,REJECT,batch2pro,batch2pro,35,56,1,Screen 1,continueButton,response_rating_scale_likert_active,3534.7000000476837,NA,NA,Disagree,1,0,1,0,NA,NA,NA,NA,1,statements,Long time body problems that will effect me mantally and physically,1,17/06/2021 12:14,17/06/2021 12:45,IP Address,For (I feel positively about the vaccines),Rarely,Once or twice a year,48,Female,NA,GCSEs,choice,16,2,For,Against
59,1659953608307,08/08/2022 10:13:28,1659953610709,1,08/08/2022 11:13:30,94118,2,task-lkrz,NA,23521309,6893369,NA,complete,NA,62f0e07f72fb446fb73f4183,computer,Desktop or Laptop,Windows 10,Chrome 104.0.0.0,1366x768,1366x657,NA,ITT Ratings,2,against,1,ACCEPT,NA,NA,NA,NA,NA,NA,NA,NA,REJECT,batch2pro,batch2pro,13,57,1,Screen 1,continueButton,response_rating_scale_likert_active,1518.3999998569489,NA,NA,Disagree,1,0,1,0,NA,NA,NA,NA,1,statements,I am at high risk.,1,17/06/2021 12:36,17/06/2021 12:44,IP Address,For (I feel positively about the vaccines),Most months,Most months,24,Male,NA,"Undergraduate degree (BSc, BA)",control,12,1,For,For
60,1659953610175,08/08/2022 10:13:30,1659953612583,1,08/08/2022 11:13:32,94118,2,task-lkrz,NA,23521309,6893369,NA,complete,NA,62f0e07f72fb446fb73f4183,computer,Desktop or Laptop,Windows 10,Chrome 104.0.0.0,1366x768,1366x657,NA,ITT Ratings,2,against,1,ACCEPT,NA,NA,NA,NA,NA,NA,NA,NA,REJECT,batch2pro,batch2pro,7,58,1,Screen 1,continueButton,response_rating_scale_likert_active,1862.2000000476835,NA,NA,Disagree,1,0,1,0,NA,NA,NA,NA,1,statements,Quicker lift of restrictions,1,17/06/2021 12:39,17/06/2021 12:44,IP Address,For (I feel positively about the vaccines),Most weeks,Once or twice a year,25,Female,NA,"Undergraduate degree (BSc, BA)",control,11,1,For,For
61,1659953616735,08/08/2022 10:13:36,1659953619128,1,08/08/2022 11:13:39,94118,2,task-lkrz,NA,23521309,6893369,NA,complete,NA,62f0e07f72fb446fb73f4183,computer,Desktop or Laptop,Windows 10,Chrome 104.0.0.0,1366x768,1366x657,NA,ITT Ratings,2,against,1,ACCEPT,NA,NA,NA,NA,NA,NA,NA,NA,REJECT,batch2pro,batch2pro,2,59,1,Screen 1,continueButton,response_rating_scale_likert_active,6531.400000095367,NA,NA,Somewhat Agree,1,0,1,0,NA,NA,NA,NA,1,statements,We would like to check you are reading each argument carefully. Please select 'Somewhat Agree' for this answer,1,NA,NA,NA,NA,NA,NA,NA,NA,NA,NA,NA,NA,check1,NA,NA
62,1659953620045,08/08/2022 10:13:40,1659953622451,1,08/08/2022 11:13:42,94118,2,task-lkrz,NA,23521309,6893369,NA,complete,NA,62f0e07f72fb446fb73f4183,computer,Desktop or Laptop,Windows 10,Chrome 104.0.0.0,1366x768,1366x657,NA,ITT Ratings,2,against,1,ACCEPT,NA,NA,NA,NA,NA,NA,NA,NA,REJECT,batch2pro,batch2pro,24,60,1,Screen 1,continueButton,response_rating_scale_likert_active,3308.199999809265,NA,NA,Disagree,1,0,1,0,NA,NA,NA,NA,1,statements,It is painful and makes you feel unwell,1,17/06/2021 12:37,17/06/2021 12:45,IP Address,For (I feel positively about the vaccines),Most months,Most days,51,Female,NA,"Undergraduate degree (BSc, BA)",control,14,3,For,Against
63,1659953623331,08/08/2022 10:13:43,1659953623900,1,08/08/2022 11:13:43,94118,2,task-lkrz,NA,23521309,6893369,NA,complete,NA,62f0e07f72fb446fb73f4183,computer,Desktop or Laptop,Windows 10,Chrome 104.0.0.0,1366x768,1366x657,NA,ITT Ratings,2,against,1,ACCEPT,NA,NA,NA,NA,NA,NA,NA,NA,REJECT,batch2pro,batch2pro,8,61,1,Screen 1,continueButton,response_rating_scale_likert_active,1437.7999999523165,NA,NA,Disagree,1,0,1,0,NA,NA,NA,NA,1,statements,Protection for close vulnerable family members,1,17/06/2021 12:39,17/06/2021 12:44,IP Address,For (I feel positively about the vaccines),Most weeks,Once or twice a year,25,Female,NA,"Undergraduate degree (BSc, BA)",control,11,2,For,For
64,1659953626360,08/08/2022 10:13:46,1659953628754,1,08/08/2022 11:13:48,94118,2,task-lkrz,NA,23521309,6893369,NA,complete,NA,62f0e07f72fb446fb73f4183,computer,Desktop or Laptop,Windows 10,Chrome 104.0.0.0,1366x768,1366x657,NA,ITT Ratings,2,against,1,ACCEPT,NA,NA,NA,NA,NA,NA,NA,NA,REJECT,batch2pro,batch2pro,22,62,1,Screen 1,continueButton,response_rating_scale_likert_active,4843.899999856949,NA,NA,Somewhat Agree,1,0,1,0,NA,NA,NA,NA,1,statements,"It is not safe, and been tested properly 
",1,17/06/2021 12:37,17/06/2021 12:45,IP Address,For (I feel positively about the vaccines),Most months,Most days,51,Female,NA,"Undergraduate degree (BSc, BA)",control,14,1,For,Against
65,1659953626435,08/08/2022 10:13:46,1659953628759,1,08/08/2022 11:13:48,94118,2,task-lkrz,NA,23521309,6893369,NA,complete,NA,62f0e07f72fb446fb73f4183,computer,Desktop or Laptop,Windows 10,Chrome 104.0.0.0,1366x768,1366x657,NA,ITT Ratings,2,against,1,ACCEPT,NA,NA,NA,NA,NA,NA,NA,NA,REJECT,batch2pro,NA,NA,END TASK,NA,NA,NA,NA,297686,NA,NA,NA,NA,0,1,0,NA,NA,NA,NA,NA,NA,NA,NA,NA,NA,NA,NA,NA,NA,NA,NA,NA,NA,NA,NA,NA,NA,NA
1,1659954293375,08/08/2022 10:24:53,1659954293278,1,08/08/2022 11:24:53,94118,2,task-lkrz,NA,23521915,6893547,NA,complete,NA,62f0e450b7d71876b89f8889,computer,Desktop or Laptop,Windows 10,Firefox 103.0,1920x1080,1920x955,NA,ITT Ratings,2,against,2,ACCEPT,NA,NA,NA,NA,NA,NA,NA,NA,NA,batch2pro,NA,NA,BEGIN TASK,NA,NA,NA,NA,NA,NA,NA,NA,NA,0,1,0,NA,NA,NA,NA,NA,NA,NA,NA,NA,NA,NA,NA,NA,NA,NA,NA,NA,NA,NA,NA,NA,NA,NA
2,1659954298200,08/08/2022 10:24:58,1659954298143,1,08/08/2022 11:24:58,94118,2,task-lkrz,NA,23521915,6893547,NA,complete,NA,62f0e450b7d71876b89f8889,computer,Desktop or Laptop,Windows 10,Firefox 103.0,1920x1080,1920x955,NA,ITT Ratings,2,against,2,ACCEPT,NA,NA,NA,NA,NA,NA,NA,NA,NA,batch2pro,batch2pro,1,1,1,Screen 1,advancementZone,continue_button,4843,NA,NA,NA,NA,0,1,0,NA,NA,NA,NA,NA,instructions,NA,NA,NA,NA,NA,NA,NA,NA,NA,NA,NA,NA,NA,NA,NA,NA,NA
3,1659954310504,08/08/2022 10:25:10,1659954310458,1,08/08/2022 11:25:10,94118,2,task-lkrz,NA,23521915,6893547,NA,complete,NA,62f0e450b7d71876b89f8889,computer,Desktop or Laptop,Windows 10,Firefox 103.0,1920x1080,1920x955,NA,ITT Ratings,2,against,2,ACCEPT,NA,NA,NA,NA,NA,NA,NA,NA,NA,batch2pro,batch2pro,15,1,1,Screen 1,continueButton,response_rating_scale_likert_active,12305,NA,NA,Somewhat Disagree,1,0,1,0,NA,NA,NA,NA,1,statements,They regularly come into contact with someone who is at high risk.,1,17/06/2021 12:36,17/06/2021 12:44,IP Address,For (I feel positively about the vaccines),Most months,Most months,24,Male,NA,"Undergraduate degree (BSc, BA)",control,12,3,For,For
4,1659954319366,08/08/2022 10:25:19,1659954319306,1,08/08/2022 11:25:19,94118,2,task-lkrz,NA,23521915,6893547,NA,complete,NA,62f0e450b7d71876b89f8889,computer,Desktop or Laptop,Windows 10,Firefox 103.0,1920x1080,1920x955,NA,ITT Ratings,2,against,2,ACCEPT,NA,NA,NA,NA,NA,NA,NA,NA,NA,batch2pro,batch2pro,30,2,1,Screen 1,continueButton,response_rating_scale_likert_active,8831,NA,NA,Somewhat Agree,1,0,1,0,NA,NA,NA,NA,1,statements,Bad side effects mean they don't want to take it,1,17/06/2021 12:39,17/06/2021 12:45,IP Address,For (I feel positively about the vaccines),Rarely,Rarely,35,Female,NA,"Undergraduate degree (BSc, BA)",choice,15,3,For,Against
5,1659954323805,08/08/2022 10:25:23,1659954323757,1,08/08/2022 11:25:23,94118,2,task-lkrz,NA,23521915,6893547,NA,complete,NA,62f0e450b7d71876b89f8889,computer,Desktop or Laptop,Windows 10,Firefox 103.0,1920x1080,1920x955,NA,ITT Ratings,2,against,2,ACCEPT,NA,NA,NA,NA,NA,NA,NA,NA,NA,batch2pro,batch2pro,50,3,1,Screen 1,continueButton,response_rating_scale_likert_active,4440,NA,NA,Somewhat Disagree,1,0,1,0,NA,NA,NA,NA,1,statements,"By getting the vaccine it means I'm contributing to achieving herd immunity, which keeps everyone safe",1,17/06/2021 12:39,17/06/2021 12:46,IP Address,For (I feel positively about the vaccines),A few times a year,Most weeks,22,Female,NA,"GCSEs,A levels,Undergraduate degree (BSc, BA)",choice,18,2,For,For
6,1659954329405,08/08/2022 10:25:29,1659954329347,1,08/08/2022 11:25:29,94118,2,task-lkrz,NA,23521915,6893547,NA,complete,NA,62f0e450b7d71876b89f8889,computer,Desktop or Laptop,Windows 10,Firefox 103.0,1920x1080,1920x955,NA,ITT Ratings,2,against,2,ACCEPT,NA,NA,NA,NA,NA,NA,NA,NA,NA,batch2pro,batch2pro,35,4,1,Screen 1,continueButton,response_rating_scale_likert_active,5580,NA,NA,Agree,1,0,1,0,NA,NA,NA,NA,1,statements,Long time body problems that will effect me mantally and physically,1,17/06/2021 12:14,17/06/2021 12:45,IP Address,For (I feel positively about the vaccines),Rarely,Once or twice a year,48,Female,NA,GCSEs,choice,16,2,For,Against
7,1659954332917,08/08/2022 10:25:32,1659954332858,1,08/08/2022 11:25:32,94118,2,task-lkrz,NA,23521915,6893547,NA,complete,NA,62f0e450b7d71876b89f8889,computer,Desktop or Laptop,Windows 10,Firefox 103.0,1920x1080,1920x955,NA,ITT Ratings,2,against,2,ACCEPT,NA,NA,NA,NA,NA,NA,NA,NA,NA,batch2pro,batch2pro,19,5,1,Screen 1,continueButton,response_rating_scale_likert_active,3503,NA,NA,Agree,1,0,1,0,NA,NA,NA,NA,1,statements,i dont want too die from covid 19,1,17/06/2021 12:37,17/06/2021 12:44,IP Address,For (I feel positively about the vaccines),Rarely,Rarely,33,Female,NA,A levels,choice,13,1,For,For
8,1659954344369,08/08/2022 10:25:44,1659954344317,1,08/08/2022 11:25:44,94118,2,task-lkrz,NA,23521915,6893547,NA,complete,NA,62f0e450b7d71876b89f8889,computer,Desktop or Laptop,Windows 10,Firefox 103.0,1920x1080,1920x955,NA,ITT Ratings,2,against,2,ACCEPT,NA,NA,NA,NA,NA,NA,NA,NA,NA,batch2pro,batch2pro,59,6,1,Screen 1,continueButton,response_rating_scale_likert_active,11451,NA,NA,Disagree,1,0,1,0,NA,NA,NA,NA,1,statements,I have heard that some people believe the vaccine contains a microchip,1,17/06/2021 12:29,17/06/2021 12:46,IP Address,For (I feel positively about the vaccines),Never,A few times a year,57,Female,NA,"Undergraduate degree (BSc, BA)",choice,20,2,For,Against
9,1659954352758,08/08/2022 10:25:52,1659954352705,1,08/08/2022 11:25:52,94118,2,task-lkrz,NA,23521915,6893547,NA,complete,NA,62f0e450b7d71876b89f8889,computer,Desktop or Laptop,Windows 10,Firefox 103.0,1920x1080,1920x955,NA,ITT Ratings,2,against,2,ACCEPT,NA,NA,NA,NA,NA,NA,NA,NA,NA,batch2pro,batch2pro,6,7,1,Screen 1,continueButton,response_rating_scale_likert_active,8380,NA,NA,Somewhat Agree,1,0,1,0,NA,NA,NA,NA,1,statements,They've never had the flu jab and have never been badly affected by flu so don’t see the point,1,17/06/2021 12:39,17/06/2021 12:44,IP Address,For (I feel positively about the vaccines),Most weeks,Once or twice a year,25,Female,NA,"Undergraduate degree (BSc, BA)",control,11,3,For,Against
10,1659954359303,08/08/2022 10:25:59,1659954359243,1,08/08/2022 11:25:59,94118,2,task-lkrz,NA,23521915,6893547,NA,complete,NA,62f0e450b7d71876b89f8889,computer,Desktop or Laptop,Windows 10,Firefox 103.0,1920x1080,1920x955,NA,ITT Ratings,2,against,2,ACCEPT,NA,NA,NA,NA,NA,NA,NA,NA,NA,batch2pro,batch2pro,62,8,1,Screen 1,continueButton,response_rating_scale_likert_active,6520,NA,NA,Somewhat Agree,1,0,1,0,NA,NA,NA,NA,1,statements,People in the at risk groups will feel safer going out,1,17/06/2021 12:29,17/06/2021 12:46,IP Address,For (I feel positively about the vaccines),Never,A few times a year,57,Female,NA,"Undergraduate degree (BSc, BA)",choice,20,2,For,For
11,1659954367854,08/08/2022 10:26:07,1659954367797,1,08/08/2022 11:26:07,94118,2,task-lkrz,NA,23521915,6893547,NA,complete,NA,62f0e450b7d71876b89f8889,computer,Desktop or Laptop,Windows 10,Firefox 103.0,1920x1080,1920x955,NA,ITT Ratings,2,against,2,ACCEPT,NA,NA,NA,NA,NA,NA,NA,NA,NA,batch2pro,batch2pro,38,9,1,Screen 1,continueButton,response_rating_scale_likert_active,8543,NA,NA,Neither Agree nor Disagree,1,0,1,0,NA,NA,NA,NA,1,statements,When you go outside shopping for food or just chatting someone  you are protected,1,17/06/2021 12:14,17/06/2021 12:45,IP Address,For (I feel positively about the vaccines),Rarely,Once or twice a year,48,Female,NA,GCSEs,choice,16,2,For,For
12,1659954373502,08/08/2022 10:26:13,1659954373449,1,08/08/2022 11:26:13,94118,2,task-lkrz,NA,23521915,6893547,NA,complete,NA,62f0e450b7d71876b89f8889,computer,Desktop or Laptop,Windows 10,Firefox 103.0,1920x1080,1920x955,NA,ITT Ratings,2,against,2,ACCEPT,NA,NA,NA,NA,NA,NA,NA,NA,NA,batch2pro,batch2pro,27,10,1,Screen 1,continueButton,response_rating_scale_likert_active,5642,NA,NA,Neither Agree nor Disagree,1,0,1,0,NA,NA,NA,NA,1,statements,We will be able to come out of lock down,1,17/06/2021 12:37,17/06/2021 12:45,IP Address,For (I feel positively about the vaccines),Most months,Most days,51,Female,NA,"Undergraduate degree (BSc, BA)",control,14,3,For,For
13,1659954381897,08/08/2022 10:26:21,1659954381841,1,08/08/2022 11:26:21,94118,2,task-lkrz,NA,23521915,6893547,NA,complete,NA,62f0e450b7d71876b89f8889,computer,Desktop or Laptop,Windows 10,Firefox 103.0,1920x1080,1920x955,NA,ITT Ratings,2,against,2,ACCEPT,NA,NA,NA,NA,NA,NA,NA,NA,NA,batch2pro,batch2pro,60,11,1,Screen 1,continueButton,response_rating_scale_likert_active,8385,NA,NA,Somewhat Disagree,1,0,1,0,NA,NA,NA,NA,1,statements,I think some people are influenced against the vaccine by family or friends who believe the above reasons,1,17/06/2021 12:29,17/06/2021 12:46,IP Address,For (I feel positively about the vaccines),Never,A few times a year,57,Female,NA,"Undergraduate degree (BSc, BA)",choice,20,3,For,Against
14,1659954384751,08/08/2022 10:26:24,1659954384689,1,08/08/2022 11:26:24,94118,2,task-lkrz,NA,23521915,6893547,NA,complete,NA,62f0e450b7d71876b89f8889,computer,Desktop or Laptop,Windows 10,Firefox 103.0,1920x1080,1920x955,NA,ITT Ratings,2,against,2,ACCEPT,NA,NA,NA,NA,NA,NA,NA,NA,NA,batch2pro,batch2pro,52,12,1,Screen 1,continueButton,response_rating_scale_likert_active,2841,NA,NA,Strongly Agree,1,0,1,0,NA,NA,NA,NA,1,statements,We have no information about long term side effects,1,17/06/2021 12:31,17/06/2021 12:46,IP Address,For (I feel positively about the vaccines),A few times a year,Most months,21,Female,NA,A levels,choice,19,1,For,Against
15,1659954386565,08/08/2022 10:26:26,1659954386509,1,08/08/2022 11:26:26,94118,2,task-lkrz,NA,23521915,6893547,NA,complete,NA,62f0e450b7d71876b89f8889,computer,Desktop or Laptop,Windows 10,Firefox 103.0,1920x1080,1920x955,NA,ITT Ratings,2,against,2,ACCEPT,NA,NA,NA,NA,NA,NA,NA,NA,NA,batch2pro,batch2pro,4,13,1,Screen 1,continueButton,response_rating_scale_likert_active,1811,NA,NA,Strongly Agree,1,0,1,0,NA,NA,NA,NA,1,statements,It was developed too quickly,1,17/06/2021 12:39,17/06/2021 12:44,IP Address,For (I feel positively about the vaccines),Most weeks,Once or twice a year,25,Female,NA,"Undergraduate degree (BSc, BA)",control,11,1,For,Against
16,1659954393223,08/08/2022 10:26:33,1659954393150,1,08/08/2022 11:26:33,94118,2,task-lkrz,NA,23521915,6893547,NA,complete,NA,62f0e450b7d71876b89f8889,computer,Desktop or Laptop,Windows 10,Firefox 103.0,1920x1080,1920x955,NA,ITT Ratings,2,against,2,ACCEPT,NA,NA,NA,NA,NA,NA,NA,NA,NA,batch2pro,batch2pro,46,14,1,Screen 1,continueButton,response_rating_scale_likert_active,6631,NA,NA,Agree,1,0,1,0,NA,NA,NA,NA,1,statements,It's not safe because the trials were rushed,1,17/06/2021 12:39,17/06/2021 12:46,IP Address,For (I feel positively about the vaccines),A few times a year,Most weeks,22,Female,NA,"GCSEs,A levels,Undergraduate degree (BSc, BA)",choice,18,1,For,Against
17,1659954393276,08/08/2022 10:26:33,1659954393199,1,08/08/2022 11:26:33,94118,2,task-lkrz,NA,23521915,6893547,NA,complete,NA,62f0e450b7d71876b89f8889,computer,Desktop or Laptop,Windows 10,Firefox 103.0,1920x1080,1920x955,NA,ITT Ratings,2,against,2,ACCEPT,NA,NA,NA,NA,NA,NA,NA,NA,NA,batch2pro,batch2pro,37,15,1,Screen 1,continueButton,response_rating_scale_likert_active,41,NA,NA,Agree,1,0,1,0,NA,NA,NA,NA,1,statements,It will protect you and your family,1,17/06/2021 12:14,17/06/2021 12:45,IP Address,For (I feel positively about the vaccines),Rarely,Once or twice a year,48,Female,NA,GCSEs,choice,16,1,For,For
18,1659954393276,08/08/2022 10:26:33,1659954393209,1,08/08/2022 11:26:33,94118,2,task-lkrz,NA,23521915,6893547,NA,complete,NA,62f0e450b7d71876b89f8889,computer,Desktop or Laptop,Windows 10,Firefox 103.0,1920x1080,1920x955,NA,ITT Ratings,2,against,2,ACCEPT,NA,NA,NA,NA,NA,NA,NA,NA,NA,batch2pro,batch2pro,57,16,1,Screen 1,continueButton,response_rating_scale_likert_active,3,NA,NA,Agree,1,0,1,0,NA,NA,NA,NA,1,statements,There have been extensive tests and funding ensuring the vaccine is safe and effective,1,17/06/2021 12:31,17/06/2021 12:46,IP Address,For (I feel positively about the vaccines),A few times a year,Most months,21,Female,NA,A levels,choice,19,3,For,For
19,1659954398200,08/08/2022 10:26:38,1659954398137,1,08/08/2022 11:26:38,94118,2,task-lkrz,NA,23521915,6893547,NA,complete,NA,62f0e450b7d71876b89f8889,computer,Desktop or Laptop,Windows 10,Firefox 103.0,1920x1080,1920x955,NA,ITT Ratings,2,against,2,ACCEPT,NA,NA,NA,NA,NA,NA,NA,NA,NA,batch2pro,batch2pro,61,17,1,Screen 1,continueButton,response_rating_scale_likert_active,4923,NA,NA,Neither Agree nor Disagree,1,0,1,0,NA,NA,NA,NA,1,statements,Feel safer to go out with friends or to shops if vaccinated,1,17/06/2021 12:29,17/06/2021 12:46,IP Address,For (I feel positively about the vaccines),Never,A few times a year,57,Female,NA,"Undergraduate degree (BSc, BA)",choice,20,1,For,For
20,1659954403243,08/08/2022 10:26:43,1659954403188,1,08/08/2022 11:26:43,94118,2,task-lkrz,NA,23521915,6893547,NA,complete,NA,62f0e450b7d71876b89f8889,computer,Desktop or Laptop,Windows 10,Firefox 103.0,1920x1080,1920x955,NA,ITT Ratings,2,against,2,ACCEPT,NA,NA,NA,NA,NA,NA,NA,NA,NA,batch2pro,batch2pro,49,18,1,Screen 1,continueButton,response_rating_scale_likert_active,5044,NA,NA,Somewhat Disagree,1,0,1,0,NA,NA,NA,NA,1,statements,"It will stop me from getting Covid-19. I do not want Covid-19 as it will make me sick, so this is obviously a good thing",1,17/06/2021 12:39,17/06/2021 12:46,IP Address,For (I feel positively about the vaccines),A few times a year,Most weeks,22,Female,NA,"GCSEs,A levels,Undergraduate degree (BSc, BA)",choice,18,1,For,For
21,1659954407631,08/08/2022 10:26:47,1659954407564,1,08/08/2022 11:26:47,94118,2,task-lkrz,NA,23521915,6893547,NA,complete,NA,62f0e450b7d71876b89f8889,computer,Desktop or Laptop,Windows 10,Firefox 103.0,1920x1080,1920x955,NA,ITT Ratings,2,against,2,ACCEPT,NA,NA,NA,NA,NA,NA,NA,NA,NA,batch2pro,batch2pro,56,19,1,Screen 1,continueButton,response_rating_scale_likert_active,4369,NA,NA,Neither Agree nor Disagree,1,0,1,0,NA,NA,NA,NA,1,statements,"In getting it, we can help protect others too",1,17/06/2021 12:31,17/06/2021 12:46,IP Address,For (I feel positively about the vaccines),A few times a year,Most months,21,Female,NA,A levels,choice,19,2,For,For
22,1659954414579,08/08/2022 10:26:54,1659954414528,1,08/08/2022 11:26:54,94118,2,task-lkrz,NA,23521915,6893547,NA,complete,NA,62f0e450b7d71876b89f8889,computer,Desktop or Laptop,Windows 10,Firefox 103.0,1920x1080,1920x955,NA,ITT Ratings,2,against,2,ACCEPT,NA,NA,NA,NA,NA,NA,NA,NA,NA,batch2pro,batch2pro,3,20,1,Screen 1,continueButton,response_rating_scale_likert_active,6957,NA,NA,Somewhat Disagree,1,0,1,0,NA,NA,NA,NA,1,statements,We would like to check you are reading each argument carefully. Please select 'Somewhat Disagree' for this answer,1,NA,NA,NA,NA,NA,NA,NA,NA,NA,NA,NA,NA,check2,NA,NA
23,1659954417971,08/08/2022 10:26:57,1659954417915,1,08/08/2022 11:26:57,94118,2,task-lkrz,NA,23521915,6893547,NA,complete,NA,62f0e450b7d71876b89f8889,computer,Desktop or Laptop,Windows 10,Firefox 103.0,1920x1080,1920x955,NA,ITT Ratings,2,against,2,ACCEPT,NA,NA,NA,NA,NA,NA,NA,NA,NA,batch2pro,batch2pro,51,21,1,Screen 1,continueButton,response_rating_scale_likert_active,3379,NA,NA,Agree,1,0,1,0,NA,NA,NA,NA,1,statements,I want to safely see my family and friends again,1,17/06/2021 12:39,17/06/2021 12:46,IP Address,For (I feel positively about the vaccines),A few times a year,Most weeks,22,Female,NA,"GCSEs,A levels,Undergraduate degree (BSc, BA)",choice,18,3,For,For
24,1659954423192,08/08/2022 10:27:03,1659954423136,1,08/08/2022 11:27:03,94118,2,task-lkrz,NA,23521915,6893547,NA,complete,NA,62f0e450b7d71876b89f8889,computer,Desktop or Laptop,Windows 10,Firefox 103.0,1920x1080,1920x955,NA,ITT Ratings,2,against,2,ACCEPT,NA,NA,NA,NA,NA,NA,NA,NA,NA,batch2pro,batch2pro,33,22,1,Screen 1,continueButton,response_rating_scale_likert_active,5213,NA,NA,Agree,1,0,1,0,NA,NA,NA,NA,1,statements,Get back to life without restrictions faster,1,17/06/2021 12:39,17/06/2021 12:45,IP Address,For (I feel positively about the vaccines),Rarely,Rarely,35,Female,NA,"Undergraduate degree (BSc, BA)",choice,15,3,For,For
25,1659954425399,08/08/2022 10:27:05,1659954425345,1,08/08/2022 11:27:05,94118,2,task-lkrz,NA,23521915,6893547,NA,complete,NA,62f0e450b7d71876b89f8889,computer,Desktop or Laptop,Windows 10,Firefox 103.0,1920x1080,1920x955,NA,ITT Ratings,2,against,2,ACCEPT,NA,NA,NA,NA,NA,NA,NA,NA,NA,batch2pro,batch2pro,14,23,1,Screen 1,continueButton,response_rating_scale_likert_active,2201,NA,NA,Agree,1,0,1,0,NA,NA,NA,NA,1,statements,They want to be able to travel.,1,17/06/2021 12:36,17/06/2021 12:44,IP Address,For (I feel positively about the vaccines),Most months,Most months,24,Male,NA,"Undergraduate degree (BSc, BA)",control,12,2,For,For
26,1659954428355,08/08/2022 10:27:08,1659954428300,1,08/08/2022 11:27:08,94118,2,task-lkrz,NA,23521915,6893547,NA,complete,NA,62f0e450b7d71876b89f8889,computer,Desktop or Laptop,Windows 10,Firefox 103.0,1920x1080,1920x955,NA,ITT Ratings,2,against,2,ACCEPT,NA,NA,NA,NA,NA,NA,NA,NA,NA,batch2pro,batch2pro,26,24,1,Screen 1,continueButton,response_rating_scale_likert_active,2947,NA,NA,Somewhat Agree,1,0,1,0,NA,NA,NA,NA,1,statements,It will help to keep others safe,1,17/06/2021 12:37,17/06/2021 12:45,IP Address,For (I feel positively about the vaccines),Most months,Most days,51,Female,NA,"Undergraduate degree (BSc, BA)",control,14,2,For,For
27,1659954431385,08/08/2022 10:27:11,1659954431329,1,08/08/2022 11:27:11,94118,2,task-lkrz,NA,23521915,6893547,NA,complete,NA,62f0e450b7d71876b89f8889,computer,Desktop or Laptop,Windows 10,Firefox 103.0,1920x1080,1920x955,NA,ITT Ratings,2,against,2,ACCEPT,NA,NA,NA,NA,NA,NA,NA,NA,NA,batch2pro,batch2pro,53,25,1,Screen 1,continueButton,response_rating_scale_likert_active,3020,NA,NA,Agree,1,0,1,0,NA,NA,NA,NA,1,statements,It is not 100% effective,1,17/06/2021 12:31,17/06/2021 12:46,IP Address,For (I feel positively about the vaccines),A few times a year,Most months,21,Female,NA,A levels,choice,19,2,For,Against
28,1659954434513,08/08/2022 10:27:14,1659954434457,1,08/08/2022 11:27:14,94118,2,task-lkrz,NA,23521915,6893547,NA,complete,NA,62f0e450b7d71876b89f8889,computer,Desktop or Laptop,Windows 10,Firefox 103.0,1920x1080,1920x955,NA,ITT Ratings,2,against,2,ACCEPT,NA,NA,NA,NA,NA,NA,NA,NA,NA,batch2pro,batch2pro,40,26,1,Screen 1,continueButton,response_rating_scale_likert_active,3120,NA,NA,Strongly Disagree,1,0,1,0,NA,NA,NA,NA,1,statements,Jesus protects me against all things and therefore I don't need a vaccine.,1,17/06/2021 12:32,17/06/2021 12:45,IP Address,For (I feel positively about the vaccines),A few times a year,A few times a year,20,Female,NA,A levels,choice,17,1,For,Against
29,1659954438323,08/08/2022 10:27:18,1659954438265,1,08/08/2022 11:27:18,94118,2,task-lkrz,NA,23521915,6893547,NA,complete,NA,62f0e450b7d71876b89f8889,computer,Desktop or Laptop,Windows 10,Firefox 103.0,1920x1080,1920x955,NA,ITT Ratings,2,against,2,ACCEPT,NA,NA,NA,NA,NA,NA,NA,NA,NA,batch2pro,batch2pro,42,27,1,Screen 1,continueButton,response_rating_scale_likert_active,3800,NA,NA,Agree,1,0,1,0,NA,NA,NA,NA,1,statements,"The vaccine had been developed too quickly, theres not been enough testing.",1,17/06/2021 12:32,17/06/2021 12:45,IP Address,For (I feel positively about the vaccines),A few times a year,A few times a year,20,Female,NA,A levels,choice,17,3,For,Against
30,1659954441116,08/08/2022 10:27:21,1659954441056,1,08/08/2022 11:27:21,94118,2,task-lkrz,NA,23521915,6893547,NA,complete,NA,62f0e450b7d71876b89f8889,computer,Desktop or Laptop,Windows 10,Firefox 103.0,1920x1080,1920x955,NA,ITT Ratings,2,against,2,ACCEPT,NA,NA,NA,NA,NA,NA,NA,NA,NA,batch2pro,batch2pro,17,28,1,Screen 1,continueButton,response_rating_scale_likert_active,2784,NA,NA,Strongly Agree,1,0,1,0,NA,NA,NA,NA,1,statements,who knows what the long term effects will be from the vaccine.,1,17/06/2021 12:37,17/06/2021 12:44,IP Address,For (I feel positively about the vaccines),Rarely,Rarely,33,Female,NA,A levels,choice,13,2,For,Against
31,1659954444024,08/08/2022 10:27:24,1659954443967,1,08/08/2022 11:27:23,94118,2,task-lkrz,NA,23521915,6893547,NA,complete,NA,62f0e450b7d71876b89f8889,computer,Desktop or Laptop,Windows 10,Firefox 103.0,1920x1080,1920x955,NA,ITT Ratings,2,against,2,ACCEPT,NA,NA,NA,NA,NA,NA,NA,NA,NA,batch2pro,batch2pro,44,29,1,Screen 1,continueButton,response_rating_scale_likert_active,2904,NA,NA,Agree,1,0,1,0,NA,NA,NA,NA,1,statements,Protecting myself.,1,17/06/2021 12:32,17/06/2021 12:45,IP Address,For (I feel positively about the vaccines),A few times a year,A few times a year,20,Female,NA,A levels,choice,17,2,For,For
32,1659954445851,08/08/2022 10:27:25,1659954445801,1,08/08/2022 11:27:25,94118,2,task-lkrz,NA,23521915,6893547,NA,complete,NA,62f0e450b7d71876b89f8889,computer,Desktop or Laptop,Windows 10,Firefox 103.0,1920x1080,1920x955,NA,ITT Ratings,2,against,2,ACCEPT,NA,NA,NA,NA,NA,NA,NA,NA,NA,batch2pro,batch2pro,13,30,1,Screen 1,continueButton,response_rating_scale_likert_active,1826,NA,NA,Strongly Disagree,1,0,1,0,NA,NA,NA,NA,1,statements,I am at high risk.,1,17/06/2021 12:36,17/06/2021 12:44,IP Address,For (I feel positively about the vaccines),Most months,Most months,24,Male,NA,"Undergraduate degree (BSc, BA)",control,12,1,For,For
33,1659954447908,08/08/2022 10:27:27,1659954447854,1,08/08/2022 11:27:27,94118,2,task-lkrz,NA,23521915,6893547,NA,complete,NA,62f0e450b7d71876b89f8889,computer,Desktop or Laptop,Windows 10,Firefox 103.0,1920x1080,1920x955,NA,ITT Ratings,2,against,2,ACCEPT,NA,NA,NA,NA,NA,NA,NA,NA,NA,batch2pro,batch2pro,48,31,1,Screen 1,continueButton,response_rating_scale_likert_active,2045,NA,NA,Strongly Disagree,1,0,1,0,NA,NA,NA,NA,1,statements,I'm getting microchipped by Big Pharma!,1,17/06/2021 12:39,17/06/2021 12:46,IP Address,For (I feel positively about the vaccines),A few times a year,Most weeks,22,Female,NA,"GCSEs,A levels,Undergraduate degree (BSc, BA)",choice,18,3,For,Against
34,1659954451224,08/08/2022 10:27:31,1659954451168,1,08/08/2022 11:27:31,94118,2,task-lkrz,NA,23521915,6893547,NA,complete,NA,62f0e450b7d71876b89f8889,computer,Desktop or Laptop,Windows 10,Firefox 103.0,1920x1080,1920x955,NA,ITT Ratings,2,against,2,ACCEPT,NA,NA,NA,NA,NA,NA,NA,NA,NA,batch2pro,batch2pro,31,32,1,Screen 1,continueButton,response_rating_scale_likert_active,3307,NA,NA,Neither Agree nor Disagree,1,0,1,0,NA,NA,NA,NA,1,statements,Protect myself from Covid,1,17/06/2021 12:39,17/06/2021 12:45,IP Address,For (I feel positively about the vaccines),Rarely,Rarely,35,Female,NA,"Undergraduate degree (BSc, BA)",choice,15,1,For,For
35,1659954454618,08/08/2022 10:27:34,1659954454568,1,08/08/2022 11:27:34,94118,2,task-lkrz,NA,23521915,6893547,NA,complete,NA,62f0e450b7d71876b89f8889,computer,Desktop or Laptop,Windows 10,Firefox 103.0,1920x1080,1920x955,NA,ITT Ratings,2,against,2,ACCEPT,NA,NA,NA,NA,NA,NA,NA,NA,NA,batch2pro,batch2pro,36,33,1,Screen 1,continueButton,response_rating_scale_likert_active,3392,NA,NA,Agree,1,0,1,0,NA,NA,NA,NA,1,statements,Am a very healthy person I don’t need this vaccine,1,17/06/2021 12:14,17/06/2021 12:45,IP Address,For (I feel positively about the vaccines),Rarely,Once or twice a year,48,Female,NA,GCSEs,choice,16,3,For,Against
36,1659954457428,08/08/2022 10:27:37,1659954457377,1,08/08/2022 11:27:37,94118,2,task-lkrz,NA,23521915,6893547,NA,complete,NA,62f0e450b7d71876b89f8889,computer,Desktop or Laptop,Windows 10,Firefox 103.0,1920x1080,1920x955,NA,ITT Ratings,2,against,2,ACCEPT,NA,NA,NA,NA,NA,NA,NA,NA,NA,batch2pro,batch2pro,28,34,1,Screen 1,continueButton,response_rating_scale_likert_active,2801,NA,NA,Agree,1,0,1,0,NA,NA,NA,NA,1,statements,Not safe as it's been rushed,1,17/06/2021 12:39,17/06/2021 12:45,IP Address,For (I feel positively about the vaccines),Rarely,Rarely,35,Female,NA,"Undergraduate degree (BSc, BA)",choice,15,1,For,Against
37,1659954459634,08/08/2022 10:27:39,1659954459579,1,08/08/2022 11:27:39,94118,2,task-lkrz,NA,23521915,6893547,NA,complete,NA,62f0e450b7d71876b89f8889,computer,Desktop or Laptop,Windows 10,Firefox 103.0,1920x1080,1920x955,NA,ITT Ratings,2,against,2,ACCEPT,NA,NA,NA,NA,NA,NA,NA,NA,NA,batch2pro,batch2pro,22,35,1,Screen 1,continueButton,response_rating_scale_likert_active,2195,NA,NA,Agree,1,0,1,0,NA,NA,NA,NA,1,statements,"It is not safe, and been tested properly 
",1,17/06/2021 12:37,17/06/2021 12:45,IP Address,For (I feel positively about the vaccines),Most months,Most days,51,Female,NA,"Undergraduate degree (BSc, BA)",control,14,1,For,Against
38,1659954462528,08/08/2022 10:27:42,1659954462471,1,08/08/2022 11:27:42,94118,2,task-lkrz,NA,23521915,6893547,NA,complete,NA,62f0e450b7d71876b89f8889,computer,Desktop or Laptop,Windows 10,Firefox 103.0,1920x1080,1920x955,NA,ITT Ratings,2,against,2,ACCEPT,NA,NA,NA,NA,NA,NA,NA,NA,NA,batch2pro,batch2pro,24,36,1,Screen 1,continueButton,response_rating_scale_likert_active,2885,NA,NA,Disagree,1,0,1,0,NA,NA,NA,NA,1,statements,It is painful and makes you feel unwell,1,17/06/2021 12:37,17/06/2021 12:45,IP Address,For (I feel positively about the vaccines),Most months,Most days,51,Female,NA,"Undergraduate degree (BSc, BA)",control,14,3,For,Against
39,1659954467732,08/08/2022 10:27:47,1659954467681,1,08/08/2022 11:27:47,94118,2,task-lkrz,NA,23521915,6893547,NA,complete,NA,62f0e450b7d71876b89f8889,computer,Desktop or Laptop,Windows 10,Firefox 103.0,1920x1080,1920x955,NA,ITT Ratings,2,against,2,ACCEPT,NA,NA,NA,NA,NA,NA,NA,NA,NA,batch2pro,batch2pro,2,37,1,Screen 1,continueButton,response_rating_scale_likert_active,5202,NA,NA,Somewhat Agree,1,0,1,0,NA,NA,NA,NA,1,statements,We would like to check you are reading each argument carefully. Please select 'Somewhat Agree' for this answer,1,NA,NA,NA,NA,NA,NA,NA,NA,NA,NA,NA,NA,check1,NA,NA
40,1659954472218,08/08/2022 10:27:52,1659954472168,1,08/08/2022 11:27:52,94118,2,task-lkrz,NA,23521915,6893547,NA,complete,NA,62f0e450b7d71876b89f8889,computer,Desktop or Laptop,Windows 10,Firefox 103.0,1920x1080,1920x955,NA,ITT Ratings,2,against,2,ACCEPT,NA,NA,NA,NA,NA,NA,NA,NA,NA,batch2pro,batch2pro,45,38,1,Screen 1,continueButton,response_rating_scale_likert_active,4480,NA,NA,Neither Agree nor Disagree,1,0,1,0,NA,NA,NA,NA,1,statements,To give life the chance at being normal again.,1,17/06/2021 12:32,17/06/2021 12:45,IP Address,For (I feel positively about the vaccines),A few times a year,A few times a year,20,Female,NA,A levels,choice,17,3,For,For
41,1659954475454,08/08/2022 10:27:55,1659954475404,1,08/08/2022 11:27:55,94118,2,task-lkrz,NA,23521915,6893547,NA,complete,NA,62f0e450b7d71876b89f8889,computer,Desktop or Laptop,Windows 10,Firefox 103.0,1920x1080,1920x955,NA,ITT Ratings,2,against,2,ACCEPT,NA,NA,NA,NA,NA,NA,NA,NA,NA,batch2pro,batch2pro,8,39,1,Screen 1,continueButton,response_rating_scale_likert_active,3227,NA,NA,Neither Agree nor Disagree,1,0,1,0,NA,NA,NA,NA,1,statements,Protection for close vulnerable family members,1,17/06/2021 12:39,17/06/2021 12:44,IP Address,For (I feel positively about the vaccines),Most weeks,Once or twice a year,25,Female,NA,"Undergraduate degree (BSc, BA)",control,11,2,For,For
42,1659954482592,08/08/2022 10:28:02,1659954482536,1,08/08/2022 11:28:02,94118,2,task-lkrz,NA,23521915,6893547,NA,complete,NA,62f0e450b7d71876b89f8889,computer,Desktop or Laptop,Windows 10,Firefox 103.0,1920x1080,1920x955,NA,ITT Ratings,2,against,2,ACCEPT,NA,NA,NA,NA,NA,NA,NA,NA,NA,batch2pro,batch2pro,58,40,1,Screen 1,continueButton,response_rating_scale_likert_active,7125,NA,NA,Disagree,1,0,1,0,NA,NA,NA,NA,1,statements,I believe a lot of people are concerned about potential blood clots from the vaccine but I personally believe and the article I read confirmed that the risk is small.,1,17/06/2021 12:29,17/06/2021 12:46,IP Address,For (I feel positively about the vaccines),Never,A few times a year,57,Female,NA,"Undergraduate degree (BSc, BA)",choice,20,1,For,Against
43,1659954485353,08/08/2022 10:28:05,1659954485298,1,08/08/2022 11:28:05,94118,2,task-lkrz,NA,23521915,6893547,NA,complete,NA,62f0e450b7d71876b89f8889,computer,Desktop or Laptop,Windows 10,Firefox 103.0,1920x1080,1920x955,NA,ITT Ratings,2,against,2,ACCEPT,NA,NA,NA,NA,NA,NA,NA,NA,NA,batch2pro,batch2pro,47,41,1,Screen 1,continueButton,response_rating_scale_likert_active,2754,NA,NA,Agree,1,0,1,0,NA,NA,NA,NA,1,statements,Worried about the side effects,1,17/06/2021 12:39,17/06/2021 12:46,IP Address,For (I feel positively about the vaccines),A few times a year,Most weeks,22,Female,NA,"GCSEs,A levels,Undergraduate degree (BSc, BA)",choice,18,2,For,Against
44,1659954488488,08/08/2022 10:28:08,1659954488432,1,08/08/2022 11:28:08,94118,2,task-lkrz,NA,23521915,6893547,NA,complete,NA,62f0e450b7d71876b89f8889,computer,Desktop or Laptop,Windows 10,Firefox 103.0,1920x1080,1920x955,NA,ITT Ratings,2,against,2,ACCEPT,NA,NA,NA,NA,NA,NA,NA,NA,NA,batch2pro,batch2pro,43,42,1,Screen 1,continueButton,response_rating_scale_likert_active,3127,NA,NA,Agree,1,0,1,0,NA,NA,NA,NA,1,statements,Protecting those who are vulnerable around me.,1,17/06/2021 12:32,17/06/2021 12:45,IP Address,For (I feel positively about the vaccines),A few times a year,A few times a year,20,Female,NA,A levels,choice,17,1,For,For
45,1659954492411,08/08/2022 10:28:12,1659954492360,1,08/08/2022 11:28:12,94118,2,task-lkrz,NA,23521915,6893547,NA,complete,NA,62f0e450b7d71876b89f8889,computer,Desktop or Laptop,Windows 10,Firefox 103.0,1920x1080,1920x955,NA,ITT Ratings,2,against,2,ACCEPT,NA,NA,NA,NA,NA,NA,NA,NA,NA,batch2pro,batch2pro,10,43,1,Screen 1,continueButton,response_rating_scale_likert_active,3921,NA,NA,Agree,1,0,1,0,NA,NA,NA,NA,1,statements,I am worried about what is in it.,1,17/06/2021 12:36,17/06/2021 12:44,IP Address,For (I feel positively about the vaccines),Most months,Most months,24,Male,NA,"Undergraduate degree (BSc, BA)",control,12,1,For,Against
46,1659954494993,08/08/2022 10:28:14,1659954494943,1,08/08/2022 11:28:14,94118,2,task-lkrz,NA,23521915,6893547,NA,complete,NA,62f0e450b7d71876b89f8889,computer,Desktop or Laptop,Windows 10,Firefox 103.0,1920x1080,1920x955,NA,ITT Ratings,2,against,2,ACCEPT,NA,NA,NA,NA,NA,NA,NA,NA,NA,batch2pro,batch2pro,16,44,1,Screen 1,continueButton,response_rating_scale_likert_active,2577,NA,NA,Agree,1,0,1,0,NA,NA,NA,NA,1,statements,they havent had enough time to research it properly.,1,17/06/2021 12:37,17/06/2021 12:44,IP Address,For (I feel positively about the vaccines),Rarely,Rarely,33,Female,NA,A levels,choice,13,1,For,Against
47,1659954497498,08/08/2022 10:28:17,1659954497449,1,08/08/2022 11:28:17,94118,2,task-lkrz,NA,23521915,6893547,NA,complete,NA,62f0e450b7d71876b89f8889,computer,Desktop or Laptop,Windows 10,Firefox 103.0,1920x1080,1920x955,NA,ITT Ratings,2,against,2,ACCEPT,NA,NA,NA,NA,NA,NA,NA,NA,NA,batch2pro,batch2pro,5,45,1,Screen 1,continueButton,response_rating_scale_likert_active,2497,NA,NA,Agree,1,0,1,0,NA,NA,NA,NA,1,statements,It's a money making scheme,1,17/06/2021 12:39,17/06/2021 12:44,IP Address,For (I feel positively about the vaccines),Most weeks,Once or twice a year,25,Female,NA,"Undergraduate degree (BSc, BA)",control,11,2,For,Against
48,1659954504683,08/08/2022 10:28:24,1659954504628,1,08/08/2022 11:28:24,94118,2,task-lkrz,NA,23521915,6893547,NA,complete,NA,62f0e450b7d71876b89f8889,computer,Desktop or Laptop,Windows 10,Firefox 103.0,1920x1080,1920x955,NA,ITT Ratings,2,against,2,ACCEPT,NA,NA,NA,NA,NA,NA,NA,NA,NA,batch2pro,batch2pro,39,46,1,Screen 1,continueButton,response_rating_scale_likert_active,7173,NA,NA,Neither Agree nor Disagree,1,0,1,0,NA,NA,NA,NA,1,statements,With 2 does it will at least slow the spreading or hopefully stop,1,17/06/2021 12:14,17/06/2021 12:45,IP Address,For (I feel positively about the vaccines),Rarely,Once or twice a year,48,Female,NA,GCSEs,choice,16,3,For,For
49,1659954507682,08/08/2022 10:28:27,1659954507628,1,08/08/2022 11:28:27,94118,2,task-lkrz,NA,23521915,6893547,NA,complete,NA,62f0e450b7d71876b89f8889,computer,Desktop or Laptop,Windows 10,Firefox 103.0,1920x1080,1920x955,NA,ITT Ratings,2,against,2,ACCEPT,NA,NA,NA,NA,NA,NA,NA,NA,NA,batch2pro,batch2pro,7,47,1,Screen 1,continueButton,response_rating_scale_likert_active,2993,NA,NA,Neither Agree nor Disagree,1,0,1,0,NA,NA,NA,NA,1,statements,Quicker lift of restrictions,1,17/06/2021 12:39,17/06/2021 12:44,IP Address,For (I feel positively about the vaccines),Most weeks,Once or twice a year,25,Female,NA,"Undergraduate degree (BSc, BA)",control,11,1,For,For
50,1659954511555,08/08/2022 10:28:31,1659954511500,1,08/08/2022 11:28:31,94118,2,task-lkrz,NA,23521915,6893547,NA,complete,NA,62f0e450b7d71876b89f8889,computer,Desktop or Laptop,Windows 10,Firefox 103.0,1920x1080,1920x955,NA,ITT Ratings,2,against,2,ACCEPT,NA,NA,NA,NA,NA,NA,NA,NA,NA,batch2pro,batch2pro,21,48,1,Screen 1,continueButton,response_rating_scale_likert_active,3866,NA,NA,Somewhat Disagree,1,0,1,0,NA,NA,NA,NA,1,statements,iv had all vaccines iv been offered previously so why is this different?,1,17/06/2021 12:37,17/06/2021 12:44,IP Address,For (I feel positively about the vaccines),Rarely,Rarely,33,Female,NA,A levels,choice,13,3,For,For
51,1659954514871,08/08/2022 10:28:34,1659954514816,1,08/08/2022 11:28:34,94118,2,task-lkrz,NA,23521915,6893547,NA,complete,NA,62f0e450b7d71876b89f8889,computer,Desktop or Laptop,Windows 10,Firefox 103.0,1920x1080,1920x955,NA,ITT Ratings,2,against,2,ACCEPT,NA,NA,NA,NA,NA,NA,NA,NA,NA,batch2pro,batch2pro,25,49,1,Screen 1,continueButton,response_rating_scale_likert_active,3309,NA,NA,Somewhat Disagree,1,0,1,0,NA,NA,NA,NA,1,statements,It will help to keep you safe,1,17/06/2021 12:37,17/06/2021 12:45,IP Address,For (I feel positively about the vaccines),Most months,Most days,51,Female,NA,"Undergraduate degree (BSc, BA)",control,14,1,For,For
52,1659954516475,08/08/2022 10:28:36,1659954516424,1,08/08/2022 11:28:36,94118,2,task-lkrz,NA,23521915,6893547,NA,complete,NA,62f0e450b7d71876b89f8889,computer,Desktop or Laptop,Windows 10,Firefox 103.0,1920x1080,1920x955,NA,ITT Ratings,2,against,2,ACCEPT,NA,NA,NA,NA,NA,NA,NA,NA,NA,batch2pro,batch2pro,9,50,1,Screen 1,continueButton,response_rating_scale_likert_active,1601,NA,NA,Neither Agree nor Disagree,1,0,1,0,NA,NA,NA,NA,1,statements,Personal protection,1,17/06/2021 12:39,17/06/2021 12:44,IP Address,For (I feel positively about the vaccines),Most weeks,Once or twice a year,25,Female,NA,"Undergraduate degree (BSc, BA)",control,11,3,For,For
53,1659954518401,08/08/2022 10:28:38,1659954518344,1,08/08/2022 11:28:38,94118,2,task-lkrz,NA,23521915,6893547,NA,complete,NA,62f0e450b7d71876b89f8889,computer,Desktop or Laptop,Windows 10,Firefox 103.0,1920x1080,1920x955,NA,ITT Ratings,2,against,2,ACCEPT,NA,NA,NA,NA,NA,NA,NA,NA,NA,batch2pro,batch2pro,23,51,1,Screen 1,continueButton,response_rating_scale_likert_active,1914,NA,NA,Agree,1,0,1,0,NA,NA,NA,NA,1,statements,Affects my fertility,1,17/06/2021 12:37,17/06/2021 12:45,IP Address,For (I feel positively about the vaccines),Most months,Most days,51,Female,NA,"Undergraduate degree (BSc, BA)",control,14,2,For,Against
54,1659954521757,08/08/2022 10:28:41,1659954521705,1,08/08/2022 11:28:41,94118,2,task-lkrz,NA,23521915,6893547,NA,complete,NA,62f0e450b7d71876b89f8889,computer,Desktop or Laptop,Windows 10,Firefox 103.0,1920x1080,1920x955,NA,ITT Ratings,2,against,2,ACCEPT,NA,NA,NA,NA,NA,NA,NA,NA,NA,batch2pro,batch2pro,63,52,1,Screen 1,continueButton,response_rating_scale_likert_active,3352,NA,NA,Neither Agree nor Disagree,1,0,1,0,NA,NA,NA,NA,1,statements,The more people who receive the vaccine the sooner we can get back to normal,1,17/06/2021 12:29,17/06/2021 12:46,IP Address,For (I feel positively about the vaccines),Never,A few times a year,57,Female,NA,"Undergraduate degree (BSc, BA)",choice,20,3,For,For
55,1659954524722,08/08/2022 10:28:44,1659954524672,1,08/08/2022 11:28:44,94118,2,task-lkrz,NA,23521915,6893547,NA,complete,NA,62f0e450b7d71876b89f8889,computer,Desktop or Laptop,Windows 10,Firefox 103.0,1920x1080,1920x955,NA,ITT Ratings,2,against,2,ACCEPT,NA,NA,NA,NA,NA,NA,NA,NA,NA,batch2pro,batch2pro,18,53,1,Screen 1,continueButton,response_rating_scale_likert_active,2960,NA,NA,Somewhat Disagree,1,0,1,0,NA,NA,NA,NA,1,statements,what if i have a reaction to it?,1,17/06/2021 12:37,17/06/2021 12:44,IP Address,For (I feel positively about the vaccines),Rarely,Rarely,33,Female,NA,A levels,choice,13,3,For,Against
56,1659954526881,08/08/2022 10:28:46,1659954526824,1,08/08/2022 11:28:46,94118,2,task-lkrz,NA,23521915,6893547,NA,complete,NA,62f0e450b7d71876b89f8889,computer,Desktop or Laptop,Windows 10,Firefox 103.0,1920x1080,1920x955,NA,ITT Ratings,2,against,2,ACCEPT,NA,NA,NA,NA,NA,NA,NA,NA,NA,batch2pro,batch2pro,54,54,1,Screen 1,continueButton,response_rating_scale_likert_active,2144,NA,NA,Agree,1,0,1,0,NA,NA,NA,NA,1,statements,It has been developed too fast to be effective and safe.,1,17/06/2021 12:31,17/06/2021 12:46,IP Address,For (I feel positively about the vaccines),A few times a year,Most months,21,Female,NA,A levels,choice,19,3,For,Against
57,1659954528944,08/08/2022 10:28:48,1659954528897,1,08/08/2022 11:28:48,94118,2,task-lkrz,NA,23521915,6893547,NA,complete,NA,62f0e450b7d71876b89f8889,computer,Desktop or Laptop,Windows 10,Firefox 103.0,1920x1080,1920x955,NA,ITT Ratings,2,against,2,ACCEPT,NA,NA,NA,NA,NA,NA,NA,NA,NA,batch2pro,batch2pro,55,55,1,Screen 1,continueButton,response_rating_scale_likert_active,2065,NA,NA,Neither Agree nor Disagree,1,0,1,0,NA,NA,NA,NA,1,statements,It helps protect you against the virus,1,17/06/2021 12:31,17/06/2021 12:46,IP Address,For (I feel positively about the vaccines),A few times a year,Most months,21,Female,NA,A levels,choice,19,1,For,For
58,1659954531420,08/08/2022 10:28:51,1659954531372,1,08/08/2022 11:28:51,94118,2,task-lkrz,NA,23521915,6893547,NA,complete,NA,62f0e450b7d71876b89f8889,computer,Desktop or Laptop,Windows 10,Firefox 103.0,1920x1080,1920x955,NA,ITT Ratings,2,against,2,ACCEPT,NA,NA,NA,NA,NA,NA,NA,NA,NA,batch2pro,batch2pro,32,56,1,Screen 1,continueButton,response_rating_scale_likert_active,2468,NA,NA,Somewhat Disagree,1,0,1,0,NA,NA,NA,NA,1,statements,Protect those around by reducing transmission,1,17/06/2021 12:39,17/06/2021 12:45,IP Address,For (I feel positively about the vaccines),Rarely,Rarely,35,Female,NA,"Undergraduate degree (BSc, BA)",choice,15,2,For,For
59,1659954536159,08/08/2022 10:28:56,1659954536103,1,08/08/2022 11:28:56,94118,2,task-lkrz,NA,23521915,6893547,NA,complete,NA,62f0e450b7d71876b89f8889,computer,Desktop or Laptop,Windows 10,Firefox 103.0,1920x1080,1920x955,NA,ITT Ratings,2,against,2,ACCEPT,NA,NA,NA,NA,NA,NA,NA,NA,NA,batch2pro,batch2pro,20,57,1,Screen 1,continueButton,response_rating_scale_likert_active,4724,NA,NA,Somewhat Disagree,1,0,1,0,NA,NA,NA,NA,1,statements,i want to protect the vulnerable people and people who cant have it,1,17/06/2021 12:37,17/06/2021 12:44,IP Address,For (I feel positively about the vaccines),Rarely,Rarely,33,Female,NA,A levels,choice,13,2,For,For
60,1659954540439,08/08/2022 10:29:00,1659954540390,1,08/08/2022 11:29:00,94118,2,task-lkrz,NA,23521915,6893547,NA,complete,NA,62f0e450b7d71876b89f8889,computer,Desktop or Laptop,Windows 10,Firefox 103.0,1920x1080,1920x955,NA,ITT Ratings,2,against,2,ACCEPT,NA,NA,NA,NA,NA,NA,NA,NA,NA,batch2pro,batch2pro,11,58,1,Screen 1,continueButton,response_rating_scale_likert_active,4279,NA,NA,Agree,1,0,1,0,NA,NA,NA,NA,1,statements,They know people who have had bad side effects.,1,17/06/2021 12:36,17/06/2021 12:44,IP Address,For (I feel positively about the vaccines),Most months,Most months,24,Male,NA,"Undergraduate degree (BSc, BA)",control,12,2,For,Against
61,1659954545632,08/08/2022 10:29:05,1659954545584,1,08/08/2022 11:29:05,94118,2,task-lkrz,NA,23521915,6893547,NA,complete,NA,62f0e450b7d71876b89f8889,computer,Desktop or Laptop,Windows 10,Firefox 103.0,1920x1080,1920x955,NA,ITT Ratings,2,against,2,ACCEPT,NA,NA,NA,NA,NA,NA,NA,NA,NA,batch2pro,batch2pro,29,59,1,Screen 1,continueButton,response_rating_scale_likert_active,5189,NA,NA,Agree,1,0,1,0,NA,NA,NA,NA,1,statements,Not necessary as I am not at personal risk,1,17/06/2021 12:39,17/06/2021 12:45,IP Address,For (I feel positively about the vaccines),Rarely,Rarely,35,Female,NA,"Undergraduate degree (BSc, BA)",choice,15,2,For,Against
62,1659954550010,08/08/2022 10:29:10,1659954549954,1,08/08/2022 11:29:09,94118,2,task-lkrz,NA,23521915,6893547,NA,complete,NA,62f0e450b7d71876b89f8889,computer,Desktop or Laptop,Windows 10,Firefox 103.0,1920x1080,1920x955,NA,ITT Ratings,2,against,2,ACCEPT,NA,NA,NA,NA,NA,NA,NA,NA,NA,batch2pro,batch2pro,41,60,1,Screen 1,continueButton,response_rating_scale_likert_active,4362,NA,NA,Disagree,1,0,1,0,NA,NA,NA,NA,1,statements,The government might impact a chip in me through the needle or change my dna,1,17/06/2021 12:32,17/06/2021 12:45,IP Address,For (I feel positively about the vaccines),A few times a year,A few times a year,20,Female,NA,A levels,choice,17,2,For,Against
63,1659954552881,08/08/2022 10:29:12,1659954552831,1,08/08/2022 11:29:12,94118,2,task-lkrz,NA,23521915,6893547,NA,complete,NA,62f0e450b7d71876b89f8889,computer,Desktop or Laptop,Windows 10,Firefox 103.0,1920x1080,1920x955,NA,ITT Ratings,2,against,2,ACCEPT,NA,NA,NA,NA,NA,NA,NA,NA,NA,batch2pro,batch2pro,34,61,1,Screen 1,continueButton,response_rating_scale_likert_active,2873,NA,NA,Agree,1,0,1,0,NA,NA,NA,NA,1,statements,Side effects that will make me ill badly,1,17/06/2021 12:14,17/06/2021 12:45,IP Address,For (I feel positively about the vaccines),Rarely,Once or twice a year,48,Female,NA,GCSEs,choice,16,1,For,Against
64,1659954554869,08/08/2022 10:29:14,1659954554816,1,08/08/2022 11:29:14,94118,2,task-lkrz,NA,23521915,6893547,NA,complete,NA,62f0e450b7d71876b89f8889,computer,Desktop or Laptop,Windows 10,Firefox 103.0,1920x1080,1920x955,NA,ITT Ratings,2,against,2,ACCEPT,NA,NA,NA,NA,NA,NA,NA,NA,NA,batch2pro,batch2pro,12,62,1,Screen 1,continueButton,response_rating_scale_likert_active,1979,NA,NA,Agree,1,0,1,0,NA,NA,NA,NA,1,statements,They don't trust the companies that make it.,1,17/06/2021 12:36,17/06/2021 12:44,IP Address,For (I feel positively about the vaccines),Most months,Most months,24,Male,NA,"Undergraduate degree (BSc, BA)",control,12,3,For,Against
65,1659954554900,08/08/2022 10:29:14,1659954554819,1,08/08/2022 11:29:14,94118,2,task-lkrz,NA,23521915,6893547,NA,complete,NA,62f0e450b7d71876b89f8889,computer,Desktop or Laptop,Windows 10,Firefox 103.0,1920x1080,1920x955,NA,ITT Ratings,2,against,2,ACCEPT,NA,NA,NA,NA,NA,NA,NA,NA,NA,batch2pro,NA,NA,END TASK,NA,NA,NA,NA,261541,NA,NA,NA,NA,0,1,0,NA,NA,NA,NA,NA,NA,NA,NA,NA,NA,NA,NA,NA,NA,NA,NA,NA,NA,NA,NA,NA,NA,NA
1,1659954806745,08/08/2022 10:33:26,1659954806505,1,08/08/2022 11:33:26,94118,2,task-lkrz,NA,23522094,6893601,NA,complete,NA,62f0e6399a37406f4c8961ee,computer,Desktop or Laptop,Mac OS 10.15.6,Safari 15.6,810x1080,1080x707,NA,ITT Ratings,2,against,2,ACCEPT,NA,NA,NA,NA,NA,NA,NA,NA,NA,batch2pro,NA,NA,BEGIN TASK,NA,NA,NA,NA,NA,NA,NA,NA,NA,0,1,0,NA,NA,NA,NA,NA,NA,NA,NA,NA,NA,NA,NA,NA,NA,NA,NA,NA,NA,NA,NA,NA,NA,NA
2,1659954815951,08/08/2022 10:33:35,1659954815760,1,08/08/2022 11:33:35,94118,2,task-lkrz,NA,23522094,6893601,NA,complete,NA,62f0e6399a37406f4c8961ee,computer,Desktop or Laptop,Mac OS 10.15.6,Safari 15.6,810x1080,1080x707,NA,ITT Ratings,2,against,2,ACCEPT,NA,NA,NA,NA,NA,NA,NA,NA,NA,batch2pro,batch2pro,1,1,1,Screen 1,advancementZone,continue_button,9215,NA,NA,NA,NA,0,1,0,NA,NA,NA,NA,NA,instructions,NA,NA,NA,NA,NA,NA,NA,NA,NA,NA,NA,NA,NA,NA,NA,NA,NA
3,1659954821079,08/08/2022 10:33:41,1659954820871,1,08/08/2022 11:33:40,94118,2,task-lkrz,NA,23522094,6893601,NA,complete,NA,62f0e6399a37406f4c8961ee,computer,Desktop or Laptop,Mac OS 10.15.6,Safari 15.6,810x1080,1080x707,NA,ITT Ratings,2,against,2,ACCEPT,NA,NA,NA,NA,NA,NA,NA,NA,NA,batch2pro,batch2pro,42,1,1,Screen 1,continueButton,response_rating_scale_likert_active,5084,NA,NA,Somewhat Agree,1,0,1,0,NA,NA,NA,NA,1,statements,"The vaccine had been developed too quickly, theres not been enough testing.",1,17/06/2021 12:32,17/06/2021 12:45,IP Address,For (I feel positively about the vaccines),A few times a year,A few times a year,20,Female,NA,A levels,choice,17,3,For,Against
4,1659954824820,08/08/2022 10:33:44,1659954824618,1,08/08/2022 11:33:44,94118,2,task-lkrz,NA,23522094,6893601,NA,complete,NA,62f0e6399a37406f4c8961ee,computer,Desktop or Laptop,Mac OS 10.15.6,Safari 15.6,810x1080,1080x707,NA,ITT Ratings,2,against,2,ACCEPT,NA,NA,NA,NA,NA,NA,NA,NA,NA,batch2pro,batch2pro,40,2,1,Screen 1,continueButton,response_rating_scale_likert_active,3731,NA,NA,Strongly Disagree,1,0,1,0,NA,NA,NA,NA,1,statements,Jesus protects me against all things and therefore I don't need a vaccine.,1,17/06/2021 12:32,17/06/2021 12:45,IP Address,For (I feel positively about the vaccines),A few times a year,A few times a year,20,Female,NA,A levels,choice,17,1,For,Against
5,1659954829184,08/08/2022 10:33:49,1659954828985,1,08/08/2022 11:33:48,94118,2,task-lkrz,NA,23522094,6893601,NA,complete,NA,62f0e6399a37406f4c8961ee,computer,Desktop or Laptop,Mac OS 10.15.6,Safari 15.6,810x1080,1080x707,NA,ITT Ratings,2,against,2,ACCEPT,NA,NA,NA,NA,NA,NA,NA,NA,NA,batch2pro,batch2pro,25,3,1,Screen 1,continueButton,response_rating_scale_likert_active,4349,NA,NA,Somewhat Agree,1,0,1,0,NA,NA,NA,NA,1,statements,It will help to keep you safe,1,17/06/2021 12:37,17/06/2021 12:45,IP Address,For (I feel positively about the vaccines),Most months,Most days,51,Female,NA,"Undergraduate degree (BSc, BA)",control,14,1,For,For
6,1659954834217,08/08/2022 10:33:54,1659954834050,1,08/08/2022 11:33:54,94118,2,task-lkrz,NA,23522094,6893601,NA,complete,NA,62f0e6399a37406f4c8961ee,computer,Desktop or Laptop,Mac OS 10.15.6,Safari 15.6,810x1080,1080x707,NA,ITT Ratings,2,against,2,ACCEPT,NA,NA,NA,NA,NA,NA,NA,NA,NA,batch2pro,batch2pro,30,4,1,Screen 1,continueButton,response_rating_scale_likert_active,5045,NA,NA,Agree,1,0,1,0,NA,NA,NA,NA,1,statements,Bad side effects mean they don't want to take it,1,17/06/2021 12:39,17/06/2021 12:45,IP Address,For (I feel positively about the vaccines),Rarely,Rarely,35,Female,NA,"Undergraduate degree (BSc, BA)",choice,15,3,For,Against
7,1659954845032,08/08/2022 10:34:05,1659954844864,1,08/08/2022 11:34:04,94118,2,task-lkrz,NA,23522094,6893601,NA,complete,NA,62f0e6399a37406f4c8961ee,computer,Desktop or Laptop,Mac OS 10.15.6,Safari 15.6,810x1080,1080x707,NA,ITT Ratings,2,against,2,ACCEPT,NA,NA,NA,NA,NA,NA,NA,NA,NA,batch2pro,batch2pro,15,5,1,Screen 1,continueButton,response_rating_scale_likert_active,10796,NA,NA,Neither Agree nor Disagree,1,0,1,0,NA,NA,NA,NA,1,statements,They regularly come into contact with someone who is at high risk.,1,17/06/2021 12:36,17/06/2021 12:44,IP Address,For (I feel positively about the vaccines),Most months,Most months,24,Male,NA,"Undergraduate degree (BSc, BA)",control,12,3,For,For
8,1659954847960,08/08/2022 10:34:07,1659954847789,1,08/08/2022 11:34:07,94118,2,task-lkrz,NA,23522094,6893601,NA,complete,NA,62f0e6399a37406f4c8961ee,computer,Desktop or Laptop,Mac OS 10.15.6,Safari 15.6,810x1080,1080x707,NA,ITT Ratings,2,against,2,ACCEPT,NA,NA,NA,NA,NA,NA,NA,NA,NA,batch2pro,batch2pro,14,6,1,Screen 1,continueButton,response_rating_scale_likert_active,2907,NA,NA,Somewhat Agree,1,0,1,0,NA,NA,NA,NA,1,statements,They want to be able to travel.,1,17/06/2021 12:36,17/06/2021 12:44,IP Address,For (I feel positively about the vaccines),Most months,Most months,24,Male,NA,"Undergraduate degree (BSc, BA)",control,12,2,For,For
9,1659954854757,08/08/2022 10:34:14,1659954854573,1,08/08/2022 11:34:14,94118,2,task-lkrz,NA,23522094,6893601,NA,complete,NA,62f0e6399a37406f4c8961ee,computer,Desktop or Laptop,Mac OS 10.15.6,Safari 15.6,810x1080,1080x707,NA,ITT Ratings,2,against,2,ACCEPT,NA,NA,NA,NA,NA,NA,NA,NA,NA,batch2pro,batch2pro,6,7,1,Screen 1,continueButton,response_rating_scale_likert_active,6765,NA,NA,Somewhat Disagree,1,0,1,0,NA,NA,NA,NA,1,statements,They've never had the flu jab and have never been badly affected by flu so don’t see the point,1,17/06/2021 12:39,17/06/2021 12:44,IP Address,For (I feel positively about the vaccines),Most weeks,Once or twice a year,25,Female,NA,"Undergraduate degree (BSc, BA)",control,11,3,For,Against
10,1659954858668,08/08/2022 10:34:18,1659954858490,1,08/08/2022 11:34:18,94118,2,task-lkrz,NA,23522094,6893601,NA,complete,NA,62f0e6399a37406f4c8961ee,computer,Desktop or Laptop,Mac OS 10.15.6,Safari 15.6,810x1080,1080x707,NA,ITT Ratings,2,against,2,ACCEPT,NA,NA,NA,NA,NA,NA,NA,NA,NA,batch2pro,batch2pro,17,8,1,Screen 1,continueButton,response_rating_scale_likert_active,3900,NA,NA,Agree,1,0,1,0,NA,NA,NA,NA,1,statements,who knows what the long term effects will be from the vaccine.,1,17/06/2021 12:37,17/06/2021 12:44,IP Address,For (I feel positively about the vaccines),Rarely,Rarely,33,Female,NA,A levels,choice,13,2,For,Against
11,1659954862891,08/08/2022 10:34:22,1659954862706,1,08/08/2022 11:34:22,94118,2,task-lkrz,NA,23522094,6893601,NA,complete,NA,62f0e6399a37406f4c8961ee,computer,Desktop or Laptop,Mac OS 10.15.6,Safari 15.6,810x1080,1080x707,NA,ITT Ratings,2,against,2,ACCEPT,NA,NA,NA,NA,NA,NA,NA,NA,NA,batch2pro,batch2pro,8,9,1,Screen 1,continueButton,response_rating_scale_likert_active,4198.999999999993,NA,NA,Somewhat Agree,1,0,1,0,NA,NA,NA,NA,1,statements,Protection for close vulnerable family members,1,17/06/2021 12:39,17/06/2021 12:44,IP Address,For (I feel positively about the vaccines),Most weeks,Once or twice a year,25,Female,NA,"Undergraduate degree (BSc, BA)",control,11,2,For,For
12,1659954866982,08/08/2022 10:34:26,1659954866804,1,08/08/2022 11:34:26,94118,2,task-lkrz,NA,23522094,6893601,NA,complete,NA,62f0e6399a37406f4c8961ee,computer,Desktop or Laptop,Mac OS 10.15.6,Safari 15.6,810x1080,1080x707,NA,ITT Ratings,2,against,2,ACCEPT,NA,NA,NA,NA,NA,NA,NA,NA,NA,batch2pro,batch2pro,26,10,1,Screen 1,continueButton,response_rating_scale_likert_active,4078.0000000000073,NA,NA,Somewhat Agree,1,0,1,0,NA,NA,NA,NA,1,statements,It will help to keep others safe,1,17/06/2021 12:37,17/06/2021 12:45,IP Address,For (I feel positively about the vaccines),Most months,Most days,51,Female,NA,"Undergraduate degree (BSc, BA)",control,14,2,For,For
13,1659954871619,08/08/2022 10:34:31,1659954871385,1,08/08/2022 11:34:31,94118,2,task-lkrz,NA,23522094,6893601,NA,complete,NA,62f0e6399a37406f4c8961ee,computer,Desktop or Laptop,Mac OS 10.15.6,Safari 15.6,810x1080,1080x707,NA,ITT Ratings,2,against,2,ACCEPT,NA,NA,NA,NA,NA,NA,NA,NA,NA,batch2pro,batch2pro,33,11,1,Screen 1,continueButton,response_rating_scale_likert_active,4562.999999999993,NA,NA,Agree,1,0,1,0,NA,NA,NA,NA,1,statements,Get back to life without restrictions faster,1,17/06/2021 12:39,17/06/2021 12:45,IP Address,For (I feel positively about the vaccines),Rarely,Rarely,35,Female,NA,"Undergraduate degree (BSc, BA)",choice,15,3,For,For
14,1659954875375,08/08/2022 10:34:35,1659954875202,1,08/08/2022 11:34:35,94118,2,task-lkrz,NA,23522094,6893601,NA,complete,NA,62f0e6399a37406f4c8961ee,computer,Desktop or Laptop,Mac OS 10.15.6,Safari 15.6,810x1080,1080x707,NA,ITT Ratings,2,against,2,ACCEPT,NA,NA,NA,NA,NA,NA,NA,NA,NA,batch2pro,batch2pro,61,12,1,Screen 1,continueButton,response_rating_scale_likert_active,3800,NA,NA,Somewhat Disagree,1,0,1,0,NA,NA,NA,NA,1,statements,Feel safer to go out with friends or to shops if vaccinated,1,17/06/2021 12:29,17/06/2021 12:46,IP Address,For (I feel positively about the vaccines),Never,A few times a year,57,Female,NA,"Undergraduate degree (BSc, BA)",choice,20,1,For,For
15,1659954877814,08/08/2022 10:34:37,1659954877653,1,08/08/2022 11:34:37,94118,2,task-lkrz,NA,23522094,6893601,NA,complete,NA,62f0e6399a37406f4c8961ee,computer,Desktop or Laptop,Mac OS 10.15.6,Safari 15.6,810x1080,1080x707,NA,ITT Ratings,2,against,2,ACCEPT,NA,NA,NA,NA,NA,NA,NA,NA,NA,batch2pro,batch2pro,27,13,1,Screen 1,continueButton,response_rating_scale_likert_active,2431,NA,NA,Agree,1,0,1,0,NA,NA,NA,NA,1,statements,We will be able to come out of lock down,1,17/06/2021 12:37,17/06/2021 12:45,IP Address,For (I feel positively about the vaccines),Most months,Most days,51,Female,NA,"Undergraduate degree (BSc, BA)",control,14,3,For,For
16,1659954881295,08/08/2022 10:34:41,1659954881132,1,08/08/2022 11:34:41,94118,2,task-lkrz,NA,23522094,6893601,NA,complete,NA,62f0e6399a37406f4c8961ee,computer,Desktop or Laptop,Mac OS 10.15.6,Safari 15.6,810x1080,1080x707,NA,ITT Ratings,2,against,2,ACCEPT,NA,NA,NA,NA,NA,NA,NA,NA,NA,batch2pro,batch2pro,5,14,1,Screen 1,continueButton,response_rating_scale_likert_active,3459,NA,NA,Agree,1,0,1,0,NA,NA,NA,NA,1,statements,It's a money making scheme,1,17/06/2021 12:39,17/06/2021 12:44,IP Address,For (I feel positively about the vaccines),Most weeks,Once or twice a year,25,Female,NA,"Undergraduate degree (BSc, BA)",control,11,2,For,Against
17,1659954887005,08/08/2022 10:34:47,1659954886830,1,08/08/2022 11:34:46,94118,2,task-lkrz,NA,23522094,6893601,NA,complete,NA,62f0e6399a37406f4c8961ee,computer,Desktop or Laptop,Mac OS 10.15.6,Safari 15.6,810x1080,1080x707,NA,ITT Ratings,2,against,2,ACCEPT,NA,NA,NA,NA,NA,NA,NA,NA,NA,batch2pro,batch2pro,36,15,1,Screen 1,continueButton,response_rating_scale_likert_active,5679,NA,NA,Somewhat Agree,1,0,1,0,NA,NA,NA,NA,1,statements,Am a very healthy person I don’t need this vaccine,1,17/06/2021 12:14,17/06/2021 12:45,IP Address,For (I feel positively about the vaccines),Rarely,Once or twice a year,48,Female,NA,GCSEs,choice,16,3,For,Against
18,1659954892864,08/08/2022 10:34:52,1659954892677,1,08/08/2022 11:34:52,94118,2,task-lkrz,NA,23522094,6893601,NA,complete,NA,62f0e6399a37406f4c8961ee,computer,Desktop or Laptop,Mac OS 10.15.6,Safari 15.6,810x1080,1080x707,NA,ITT Ratings,2,against,2,ACCEPT,NA,NA,NA,NA,NA,NA,NA,NA,NA,batch2pro,batch2pro,20,16,1,Screen 1,continueButton,response_rating_scale_likert_active,5829,NA,NA,Somewhat Disagree,1,0,1,0,NA,NA,NA,NA,1,statements,i want to protect the vulnerable people and people who cant have it,1,17/06/2021 12:37,17/06/2021 12:44,IP Address,For (I feel positively about the vaccines),Rarely,Rarely,33,Female,NA,A levels,choice,13,2,For,For
19,1659954895409,08/08/2022 10:34:55,1659954895247,1,08/08/2022 11:34:55,94118,2,task-lkrz,NA,23522094,6893601,NA,complete,NA,62f0e6399a37406f4c8961ee,computer,Desktop or Laptop,Mac OS 10.15.6,Safari 15.6,810x1080,1080x707,NA,ITT Ratings,2,against,2,ACCEPT,NA,NA,NA,NA,NA,NA,NA,NA,NA,batch2pro,batch2pro,56,17,1,Screen 1,continueButton,response_rating_scale_likert_active,2554,NA,NA,Somewhat Disagree,1,0,1,0,NA,NA,NA,NA,1,statements,"In getting it, we can help protect others too",1,17/06/2021 12:31,17/06/2021 12:46,IP Address,For (I feel positively about the vaccines),A few times a year,Most months,21,Female,NA,A levels,choice,19,2,For,For
20,1659954900953,08/08/2022 10:35:00,1659954900774,1,08/08/2022 11:35:00,94118,2,task-lkrz,NA,23522094,6893601,NA,complete,NA,62f0e6399a37406f4c8961ee,computer,Desktop or Laptop,Mac OS 10.15.6,Safari 15.6,810x1080,1080x707,NA,ITT Ratings,2,against,2,ACCEPT,NA,NA,NA,NA,NA,NA,NA,NA,NA,batch2pro,batch2pro,50,18,1,Screen 1,continueButton,response_rating_scale_likert_active,5512,NA,NA,Somewhat Agree,1,0,1,0,NA,NA,NA,NA,1,statements,"By getting the vaccine it means I'm contributing to achieving herd immunity, which keeps everyone safe",1,17/06/2021 12:39,17/06/2021 12:46,IP Address,For (I feel positively about the vaccines),A few times a year,Most weeks,22,Female,NA,"GCSEs,A levels,Undergraduate degree (BSc, BA)",choice,18,2,For,For
21,1659954903277,08/08/2022 10:35:03,1659954903108,1,08/08/2022 11:35:03,94118,2,task-lkrz,NA,23522094,6893601,NA,complete,NA,62f0e6399a37406f4c8961ee,computer,Desktop or Laptop,Mac OS 10.15.6,Safari 15.6,810x1080,1080x707,NA,ITT Ratings,2,against,2,ACCEPT,NA,NA,NA,NA,NA,NA,NA,NA,NA,batch2pro,batch2pro,4,19,1,Screen 1,continueButton,response_rating_scale_likert_active,2318,NA,NA,Agree,1,0,1,0,NA,NA,NA,NA,1,statements,It was developed too quickly,1,17/06/2021 12:39,17/06/2021 12:44,IP Address,For (I feel positively about the vaccines),Most weeks,Once or twice a year,25,Female,NA,"Undergraduate degree (BSc, BA)",control,11,1,For,Against
22,1659954905786,08/08/2022 10:35:05,1659954905274,1,08/08/2022 11:35:05,94118,2,task-lkrz,NA,23522094,6893601,NA,complete,NA,62f0e6399a37406f4c8961ee,computer,Desktop or Laptop,Mac OS 10.15.6,Safari 15.6,810x1080,1080x707,NA,ITT Ratings,2,against,2,ACCEPT,NA,NA,NA,NA,NA,NA,NA,NA,NA,batch2pro,batch2pro,16,20,1,Screen 1,continueButton,response_rating_scale_likert_active,2149,NA,NA,Agree,1,0,1,0,NA,NA,NA,NA,1,statements,they havent had enough time to research it properly.,1,17/06/2021 12:37,17/06/2021 12:44,IP Address,For (I feel positively about the vaccines),Rarely,Rarely,33,Female,NA,A levels,choice,13,1,For,Against
