Event.Index,UTC.Timestamp,UTC.Date,Local.Timestamp,Local.Timezone,Local.Date,Experiment.ID,Experiment.Version,Tree.Node.Key,Repeat.Key,Schedule.ID,Participant.Private.ID,Participant.Starting.Group,Participant.Status,Participant.Completion.Code,Participant.External.Session.ID,Participant.Device.Type,Participant.Device,Participant.OS,Participant.Browser,Participant.Monitor.Size,Participant.Viewport.Size,Checkpoint,Task.Name,Task.Version,branch.69an,randomiser.8vg2,quota.bqtt,quota.rycs,quota.wtfi,quota.usve,quota.zgic,quota.f3yz,quota.r9vy,quota.tfqq,quota.3dga,quota.dtj6,Spreadsheet,Spreadsheet.Name,Spreadsheet.Row,Trial.Number,Screen.Number,Screen.Name,Zone.Name,Zone.Type,Reaction.Time,Reaction.Onset,Response.Type,Response,Attempt,Correct,Incorrect,Dishonest,X.Coordinate,Y.Coordinate,Timed.Out,randomise_blocks,randomise_trials,display,Arguments,ShowProgressBar,StartDate,EndDate,Status,prolif_check,discuss_1,read_1,age,gender,gender_4_TEXT,edu,condition,ID,arg_ID,Position,Arg_Position
1,1659975254306,08/08/2022 16:14:14,1659975254244,1,08/08/2022 17:14:14,94826,3,task-ig1e,NA,23527370,6895697,NA,complete,NA,62f135f1875ab6f7964515d9,computer,Desktop or Laptop,Mac OS 10.15.7,Safari 15.1,1440x900,1416x697,NA,ITT Ratings,2,for,3,NA,ACCEPT,NA,NA,NA,NA,NA,NA,NA,NA,batch3pro,NA,NA,BEGIN TASK,NA,NA,NA,NA,NA,NA,NA,NA,NA,0,1,0,NA,NA,NA,NA,NA,NA,NA,NA,NA,NA,NA,NA,NA,NA,NA,NA,NA,NA,NA,NA,NA,NA,NA
2,1659975275395,08/08/2022 16:14:35,1659975275376,1,08/08/2022 17:14:35,94826,3,task-ig1e,NA,23527370,6895697,NA,complete,NA,62f135f1875ab6f7964515d9,computer,Desktop or Laptop,Mac OS 10.15.7,Safari 15.1,1440x900,1416x697,NA,ITT Ratings,2,for,3,NA,ACCEPT,NA,NA,NA,NA,NA,NA,NA,NA,batch3pro,batch3pro,1,1,1,Screen 1,advancementZone,continue_button,21109,NA,NA,NA,NA,0,1,0,NA,NA,NA,NA,NA,instructions,NA,NA,NA,NA,NA,NA,NA,NA,NA,NA,NA,NA,NA,NA,NA,NA,NA
3,1659975289142,08/08/2022 16:14:49,1659975289107,1,08/08/2022 17:14:49,94826,3,task-ig1e,NA,23527370,6895697,NA,complete,NA,62f135f1875ab6f7964515d9,computer,Desktop or Laptop,Mac OS 10.15.7,Safari 15.1,1440x900,1416x697,NA,ITT Ratings,2,for,3,NA,ACCEPT,NA,NA,NA,NA,NA,NA,NA,NA,batch3pro,batch3pro,33,1,1,Screen 1,continueButton,response_rating_scale_likert_active,13716,NA,NA,Agree,1,0,1,0,NA,NA,NA,NA,1,statements,To help stop the NHS from  being overwhelmed,1,17/06/2021 12:27,17/06/2021 12:49,IP Address,For (I feel positively about the vaccines),Rarely,Most weeks,22,Male,NA,"GCSEs,Vocational Training / Apprenticeship",choice,25,3,For,For
4,1659975303442,08/08/2022 16:15:03,1659975303407,1,08/08/2022 17:15:03,94826,3,task-ig1e,NA,23527370,6895697,NA,complete,NA,62f135f1875ab6f7964515d9,computer,Desktop or Laptop,Mac OS 10.15.7,Safari 15.1,1440x900,1416x697,NA,ITT Ratings,2,for,3,NA,ACCEPT,NA,NA,NA,NA,NA,NA,NA,NA,batch3pro,batch3pro,2,2,1,Screen 1,continueButton,response_rating_scale_likert_active,14285,NA,NA,Somewhat Agree,1,0,1,0,NA,NA,NA,NA,1,statements,We would like to check you are reading each argument carefully. Please select 'Somewhat Agree' for this answer,1,NA,NA,NA,NA,NA,NA,NA,NA,NA,NA,NA,NA,check1,NA,NA
5,1659975311034,08/08/2022 16:15:11,1659975311005,1,08/08/2022 17:15:11,94826,3,task-ig1e,NA,23527370,6895697,NA,complete,NA,62f135f1875ab6f7964515d9,computer,Desktop or Laptop,Mac OS 10.15.7,Safari 15.1,1440x900,1416x697,NA,ITT Ratings,2,for,3,NA,ACCEPT,NA,NA,NA,NA,NA,NA,NA,NA,batch3pro,batch3pro,49,3,1,Screen 1,continueButton,response_rating_scale_likert_active,7580,NA,NA,Agree,1,0,1,0,NA,NA,NA,NA,1,statements,It protects me and other people as well so is our social duty to have one,1,17/06/2021 12:28,17/06/2021 12:51,IP Address,For (I feel positively about the vaccines),Rarely,Most weeks,41,Male,NA,Doctorate (PhD),control,28,1,For,For
6,1659975316859,08/08/2022 16:15:16,1659975316823,1,08/08/2022 17:15:16,94826,3,task-ig1e,NA,23527370,6895697,NA,complete,NA,62f135f1875ab6f7964515d9,computer,Desktop or Laptop,Mac OS 10.15.7,Safari 15.1,1440x900,1416x697,NA,ITT Ratings,2,for,3,NA,ACCEPT,NA,NA,NA,NA,NA,NA,NA,NA,batch3pro,batch3pro,30,4,1,Screen 1,continueButton,response_rating_scale_likert_active,5803,NA,NA,Disagree,1,0,1,0,NA,NA,NA,NA,1,statements,"They were rushed, it usually takes year for vaccines to be developed safely",1,17/06/2021 12:27,17/06/2021 12:49,IP Address,For (I feel positively about the vaccines),Rarely,Most weeks,22,Male,NA,"GCSEs,Vocational Training / Apprenticeship",choice,25,3,For,Against
7,1659975327240,08/08/2022 16:15:27,1659975327223,1,08/08/2022 17:15:27,94826,3,task-ig1e,NA,23527370,6895697,NA,complete,NA,62f135f1875ab6f7964515d9,computer,Desktop or Laptop,Mac OS 10.15.7,Safari 15.1,1440x900,1416x697,NA,ITT Ratings,2,for,3,NA,ACCEPT,NA,NA,NA,NA,NA,NA,NA,NA,batch3pro,batch3pro,47,5,1,Screen 1,continueButton,response_rating_scale_likert_active,10385,NA,NA,Strongly Disagree,1,0,1,0,NA,NA,NA,NA,1,statements,There are other ways to mitigate the impact of the disease and vaccination isn't necessary,1,17/06/2021 12:28,17/06/2021 12:51,IP Address,For (I feel positively about the vaccines),Rarely,Most weeks,41,Male,NA,Doctorate (PhD),control,28,2,For,Against
8,1659975330405,08/08/2022 16:15:30,1659975330388,1,08/08/2022 17:15:30,94826,3,task-ig1e,NA,23527370,6895697,NA,complete,NA,62f135f1875ab6f7964515d9,computer,Desktop or Laptop,Mac OS 10.15.7,Safari 15.1,1440x900,1416x697,NA,ITT Ratings,2,for,3,NA,ACCEPT,NA,NA,NA,NA,NA,NA,NA,NA,batch3pro,batch3pro,35,6,1,Screen 1,continueButton,response_rating_scale_likert_active,3151,NA,NA,Strongly Disagree,1,0,1,0,NA,NA,NA,NA,1,statements,"Not enough evidence, not enough time and research done",1,17/06/2021 12:44,17/06/2021 12:49,IP Address,For (I feel positively about the vaccines),A few times a year,Most weeks,29,Male,NA,"Undergraduate degree (BSc, BA)",control,26,2,For,Against
9,1659975334409,08/08/2022 16:15:34,1659975334390,1,08/08/2022 17:15:34,94826,3,task-ig1e,NA,23527370,6895697,NA,complete,NA,62f135f1875ab6f7964515d9,computer,Desktop or Laptop,Mac OS 10.15.7,Safari 15.1,1440x900,1416x697,NA,ITT Ratings,2,for,3,NA,ACCEPT,NA,NA,NA,NA,NA,NA,NA,NA,batch3pro,batch3pro,44,7,1,Screen 1,continueButton,response_rating_scale_likert_active,3989,NA,NA,Agree,1,0,1,0,NA,NA,NA,NA,1,statements,We're lucky to be in a position to have a vaccine.,1,17/06/2021 12:43,17/06/2021 12:51,IP Address,For (I feel positively about the vaccines),Rarely,Rarely,32,Female,NA,"Postgraduate degree (MSc, MA, MPhil)",choice,27,2,For,For
10,1659975340142,08/08/2022 16:15:40,1659975340073,1,08/08/2022 17:15:40,94826,3,task-ig1e,NA,23527370,6895697,NA,complete,NA,62f135f1875ab6f7964515d9,computer,Desktop or Laptop,Mac OS 10.15.7,Safari 15.1,1440x900,1416x697,NA,ITT Ratings,2,for,3,NA,ACCEPT,NA,NA,NA,NA,NA,NA,NA,NA,batch3pro,batch3pro,26,8,1,Screen 1,continueButton,response_rating_scale_likert_active,5668,NA,NA,Strongly Agree,1,0,1,0,NA,NA,NA,NA,1,statements,I have family members which could be vulnerable and so do not want to catch the virus.,1,17/06/2021 12:39,17/06/2021 12:47,IP Address,For (I feel positively about the vaccines),Rarely,A few times a year,22,Male,NA,"Undergraduate degree (BSc, BA)",choice,24,2,For,For
11,1659975345211,08/08/2022 16:15:45,1659975345190,1,08/08/2022 17:15:45,94826,3,task-ig1e,NA,23527370,6895697,NA,complete,NA,62f135f1875ab6f7964515d9,computer,Desktop or Laptop,Mac OS 10.15.7,Safari 15.1,1440x900,1416x697,NA,ITT Ratings,2,for,3,NA,ACCEPT,NA,NA,NA,NA,NA,NA,NA,NA,batch3pro,batch3pro,56,9,1,Screen 1,continueButton,response_rating_scale_likert_active,5103.000000000015,NA,NA,Strongly Agree,1,0,1,0,NA,NA,NA,NA,1,statements,"I want to protect others from COVID-19, especially those who can't receive a vaccine",1,17/06/2021 12:41,17/06/2021 12:51,IP Address,For (I feel positively about the vaccines),Rarely,Once or twice a year,32,Male,NA,"Undergraduate degree (BSc, BA)",control,29,2,For,For
12,1659975351955,08/08/2022 16:15:51,1659975351924,1,08/08/2022 17:15:51,94826,3,task-ig1e,NA,23527370,6895697,NA,complete,NA,62f135f1875ab6f7964515d9,computer,Desktop or Laptop,Mac OS 10.15.7,Safari 15.1,1440x900,1416x697,NA,ITT Ratings,2,for,3,NA,ACCEPT,NA,NA,NA,NA,NA,NA,NA,NA,batch3pro,batch3pro,25,10,1,Screen 1,continueButton,response_rating_scale_likert_active,6721,NA,NA,Agree,1,0,1,0,NA,NA,NA,NA,1,statements,I want to be able to go to events or travel abroad.,1,17/06/2021 12:39,17/06/2021 12:47,IP Address,For (I feel positively about the vaccines),Rarely,A few times a year,22,Male,NA,"Undergraduate degree (BSc, BA)",choice,24,1,For,For
13,1659975356175,08/08/2022 16:15:56,1659975356139,1,08/08/2022 17:15:56,94826,3,task-ig1e,NA,23527370,6895697,NA,complete,NA,62f135f1875ab6f7964515d9,computer,Desktop or Laptop,Mac OS 10.15.7,Safari 15.1,1440x900,1416x697,NA,ITT Ratings,2,for,3,NA,ACCEPT,NA,NA,NA,NA,NA,NA,NA,NA,batch3pro,batch3pro,28,11,1,Screen 1,continueButton,response_rating_scale_likert_active,4201.999999999985,NA,NA,Disagree,1,0,1,0,NA,NA,NA,NA,1,statements,It can cause long term damage like blood clots,1,17/06/2021 12:27,17/06/2021 12:49,IP Address,For (I feel positively about the vaccines),Rarely,Most weeks,22,Male,NA,"GCSEs,Vocational Training / Apprenticeship",choice,25,1,For,Against
14,1659975359315,08/08/2022 16:15:59,1659975359283,1,08/08/2022 17:15:59,94826,3,task-ig1e,NA,23527370,6895697,NA,complete,NA,62f135f1875ab6f7964515d9,computer,Desktop or Laptop,Mac OS 10.15.7,Safari 15.1,1440x900,1416x697,NA,ITT Ratings,2,for,3,NA,ACCEPT,NA,NA,NA,NA,NA,NA,NA,NA,batch3pro,batch3pro,8,12,1,Screen 1,continueButton,response_rating_scale_likert_active,3128,NA,NA,Agree,1,0,1,0,NA,NA,NA,NA,1,statements,I trust the experts who have developed the vaccine,1,17/06/2021 12:39,17/06/2021 12:46,IP Address,For (I feel positively about the vaccines),Most months,Rarely,34,Female,NA,"Undergraduate degree (BSc, BA)",control,21,2,For,For
15,1659975362919,08/08/2022 16:16:02,1659975362895,1,08/08/2022 17:16:02,94826,3,task-ig1e,NA,23527370,6895697,NA,complete,NA,62f135f1875ab6f7964515d9,computer,Desktop or Laptop,Mac OS 10.15.7,Safari 15.1,1440x900,1416x697,NA,ITT Ratings,2,for,3,NA,ACCEPT,NA,NA,NA,NA,NA,NA,NA,NA,batch3pro,batch3pro,57,13,1,Screen 1,continueButton,response_rating_scale_likert_active,3598,NA,NA,Neither Agree nor Disagree,1,0,1,0,NA,NA,NA,NA,1,statements,I want to follow the government advice,1,17/06/2021 12:41,17/06/2021 12:51,IP Address,For (I feel positively about the vaccines),Rarely,Once or twice a year,32,Male,NA,"Undergraduate degree (BSc, BA)",control,29,3,For,For
16,1659975367602,08/08/2022 16:16:07,1659975367574,1,08/08/2022 17:16:07,94826,3,task-ig1e,NA,23527370,6895697,NA,complete,NA,62f135f1875ab6f7964515d9,computer,Desktop or Laptop,Mac OS 10.15.7,Safari 15.1,1440x900,1416x697,NA,ITT Ratings,2,for,3,NA,ACCEPT,NA,NA,NA,NA,NA,NA,NA,NA,batch3pro,batch3pro,59,14,1,Screen 1,continueButton,response_rating_scale_likert_active,4667,NA,NA,Disagree,1,0,1,0,NA,NA,NA,NA,1,statements,I'm worried I will get long term effects from the vaccine or be effected negatively by it.,1,17/06/2021 12:32,17/06/2021 12:52,IP Address,For (I feel positively about the vaccines),Never,Most weeks,21,Female,NA,A levels,control,30,2,For,Against
17,1659975372070,08/08/2022 16:16:12,1659975372045,1,08/08/2022 17:16:12,94826,3,task-ig1e,NA,23527370,6895697,NA,complete,NA,62f135f1875ab6f7964515d9,computer,Desktop or Laptop,Mac OS 10.15.7,Safari 15.1,1440x900,1416x697,NA,ITT Ratings,2,for,3,NA,ACCEPT,NA,NA,NA,NA,NA,NA,NA,NA,batch3pro,batch3pro,18,15,1,Screen 1,continueButton,response_rating_scale_likert_active,4458,NA,NA,Disagree,1,0,1,0,NA,NA,NA,NA,1,statements,The vaccines are not completely effective so I see no point in having one,1,17/06/2021 12:31,17/06/2021 12:47,IP Address,For (I feel positively about the vaccines),Rarely,Most weeks,36,Male,NA,"Undergraduate degree (BSc, BA)",control,23,3,For,Against
18,1659975375454,08/08/2022 16:16:15,1659975375323,1,08/08/2022 17:16:15,94826,3,task-ig1e,NA,23527370,6895697,NA,complete,NA,62f135f1875ab6f7964515d9,computer,Desktop or Laptop,Mac OS 10.15.7,Safari 15.1,1440x900,1416x697,NA,ITT Ratings,2,for,3,NA,ACCEPT,NA,NA,NA,NA,NA,NA,NA,NA,batch3pro,batch3pro,53,16,1,Screen 1,continueButton,response_rating_scale_likert_active,3265,NA,NA,Somewhat Agree,1,0,1,0,NA,NA,NA,NA,1,statements,Scared of needles/injections,1,17/06/2021 12:41,17/06/2021 12:51,IP Address,For (I feel positively about the vaccines),Rarely,Once or twice a year,32,Male,NA,"Undergraduate degree (BSc, BA)",control,29,2,For,Against
19,1659975385611,08/08/2022 16:16:25,1659975385592,1,08/08/2022 17:16:25,94826,3,task-ig1e,NA,23527370,6895697,NA,complete,NA,62f135f1875ab6f7964515d9,computer,Desktop or Laptop,Mac OS 10.15.7,Safari 15.1,1440x900,1416x697,NA,ITT Ratings,2,for,3,NA,ACCEPT,NA,NA,NA,NA,NA,NA,NA,NA,batch3pro,batch3pro,34,17,1,Screen 1,continueButton,response_rating_scale_likert_active,10255,NA,NA,Disagree,1,0,1,0,NA,NA,NA,NA,1,statements,Chemicals are dangerous as not everyone understands the science,1,17/06/2021 12:44,17/06/2021 12:49,IP Address,For (I feel positively about the vaccines),A few times a year,Most weeks,29,Male,NA,"Undergraduate degree (BSc, BA)",control,26,1,For,Against
20,1659975388796,08/08/2022 16:16:28,1659975388761,1,08/08/2022 17:16:28,94826,3,task-ig1e,NA,23527370,6895697,NA,complete,NA,62f135f1875ab6f7964515d9,computer,Desktop or Laptop,Mac OS 10.15.7,Safari 15.1,1440x900,1416x697,NA,ITT Ratings,2,for,3,NA,ACCEPT,NA,NA,NA,NA,NA,NA,NA,NA,batch3pro,batch3pro,29,18,1,Screen 1,continueButton,response_rating_scale_likert_active,3156,NA,NA,Strongly Disagree,1,0,1,0,NA,NA,NA,NA,1,statements,They are unsafe because I watch the news,1,17/06/2021 12:27,17/06/2021 12:49,IP Address,For (I feel positively about the vaccines),Rarely,Most weeks,22,Male,NA,"GCSEs,Vocational Training / Apprenticeship",choice,25,2,For,Against
21,1659975392405,08/08/2022 16:16:32,1659975392374,1,08/08/2022 17:16:32,94826,3,task-ig1e,NA,23527370,6895697,NA,complete,NA,62f135f1875ab6f7964515d9,computer,Desktop or Laptop,Mac OS 10.15.7,Safari 15.1,1440x900,1416x697,NA,ITT Ratings,2,for,3,NA,ACCEPT,NA,NA,NA,NA,NA,NA,NA,NA,batch3pro,batch3pro,9,19,1,Screen 1,continueButton,response_rating_scale_likert_active,3600,NA,NA,Somewhat Agree,1,0,1,0,NA,NA,NA,NA,1,statements,I want to be able to see my friends and family,1,17/06/2021 12:39,17/06/2021 12:46,IP Address,For (I feel positively about the vaccines),Most months,Rarely,34,Female,NA,"Undergraduate degree (BSc, BA)",control,21,3,For,For
22,1659975398002,08/08/2022 16:16:38,1659975397965,1,08/08/2022 17:16:37,94826,3,task-ig1e,NA,23527370,6895697,NA,complete,NA,62f135f1875ab6f7964515d9,computer,Desktop or Laptop,Mac OS 10.15.7,Safari 15.1,1440x900,1416x697,NA,ITT Ratings,2,for,3,NA,ACCEPT,NA,NA,NA,NA,NA,NA,NA,NA,batch3pro,batch3pro,54,20,1,Screen 1,continueButton,response_rating_scale_likert_active,5577,NA,NA,Strongly Agree,1,0,1,0,NA,NA,NA,NA,1,statements,I'm a moron and think Bill Gates wants to put a microchip in me,1,17/06/2021 12:41,17/06/2021 12:51,IP Address,For (I feel positively about the vaccines),Rarely,Once or twice a year,32,Male,NA,"Undergraduate degree (BSc, BA)",control,29,3,For,Against
23,1659975408189,08/08/2022 16:16:48,1659975408158,1,08/08/2022 17:16:48,94826,3,task-ig1e,NA,23527370,6895697,NA,complete,NA,62f135f1875ab6f7964515d9,computer,Desktop or Laptop,Mac OS 10.15.7,Safari 15.1,1440x900,1416x697,NA,ITT Ratings,2,for,3,NA,ACCEPT,NA,NA,NA,NA,NA,NA,NA,NA,batch3pro,batch3pro,7,21,1,Screen 1,continueButton,response_rating_scale_likert_active,10179,NA,NA,Somewhat Agree,1,0,1,0,NA,NA,NA,NA,1,statements,I want to get back to some form of normality,1,17/06/2021 12:39,17/06/2021 12:46,IP Address,For (I feel positively about the vaccines),Most months,Rarely,34,Female,NA,"Undergraduate degree (BSc, BA)",control,21,1,For,For
24,1659975420747,08/08/2022 16:17:00,1659975420725,1,08/08/2022 17:17:00,94826,3,task-ig1e,NA,23527370,6895697,NA,complete,NA,62f135f1875ab6f7964515d9,computer,Desktop or Laptop,Mac OS 10.15.7,Safari 15.1,1440x900,1416x697,NA,ITT Ratings,2,for,3,NA,ACCEPT,NA,NA,NA,NA,NA,NA,NA,NA,batch3pro,batch3pro,60,22,1,Screen 1,continueButton,response_rating_scale_likert_active,12551,NA,NA,Disagree,1,0,1,0,NA,NA,NA,NA,1,statements,I believe we haven't had enough time to develop the vaccine.,1,17/06/2021 12:32,17/06/2021 12:52,IP Address,For (I feel positively about the vaccines),Never,Most weeks,21,Female,NA,A levels,control,30,3,For,Against
25,1659975425317,08/08/2022 16:17:05,1659975425281,1,08/08/2022 17:17:05,94826,3,task-ig1e,NA,23527370,6895697,NA,complete,NA,62f135f1875ab6f7964515d9,computer,Desktop or Laptop,Mac OS 10.15.7,Safari 15.1,1440x900,1416x697,NA,ITT Ratings,2,for,3,NA,ACCEPT,NA,NA,NA,NA,NA,NA,NA,NA,batch3pro,batch3pro,48,23,1,Screen 1,continueButton,response_rating_scale_likert_active,4544.000000000029,NA,NA,Disagree,1,0,1,0,NA,NA,NA,NA,1,statements,I think that the vaccine might cause side effects that might be worse than the disease itself and that having a vaccine is not worth the risk,1,17/06/2021 12:28,17/06/2021 12:51,IP Address,For (I feel positively about the vaccines),Rarely,Most weeks,41,Male,NA,Doctorate (PhD),control,28,3,For,Against
26,1659975428233,08/08/2022 16:17:08,1659975428191,1,08/08/2022 17:17:08,94826,3,task-ig1e,NA,23527370,6895697,NA,complete,NA,62f135f1875ab6f7964515d9,computer,Desktop or Laptop,Mac OS 10.15.7,Safari 15.1,1440x900,1416x697,NA,ITT Ratings,2,for,3,NA,ACCEPT,NA,NA,NA,NA,NA,NA,NA,NA,batch3pro,batch3pro,31,24,1,Screen 1,continueButton,response_rating_scale_likert_active,2899,NA,NA,Agree,1,0,1,0,NA,NA,NA,NA,1,statements,"To keep myself, friends and families safe",1,17/06/2021 12:27,17/06/2021 12:49,IP Address,For (I feel positively about the vaccines),Rarely,Most weeks,22,Male,NA,"GCSEs,Vocational Training / Apprenticeship",choice,25,1,For,For
27,1659975431504,08/08/2022 16:17:11,1659975431483,1,08/08/2022 17:17:11,94826,3,task-ig1e,NA,23527370,6895697,NA,complete,NA,62f135f1875ab6f7964515d9,computer,Desktop or Laptop,Mac OS 10.15.7,Safari 15.1,1440x900,1416x697,NA,ITT Ratings,2,for,3,NA,ACCEPT,NA,NA,NA,NA,NA,NA,NA,NA,batch3pro,batch3pro,20,25,1,Screen 1,continueButton,response_rating_scale_likert_active,3279.000000000029,NA,NA,Agree,1,0,1,0,NA,NA,NA,NA,1,statements,I feel it is my duty to ensure I am vaccinated as part of halting ongoing transmission.,1,17/06/2021 12:31,17/06/2021 12:47,IP Address,For (I feel positively about the vaccines),Rarely,Most weeks,36,Male,NA,"Undergraduate degree (BSc, BA)",control,23,2,For,For
28,1659975434567,08/08/2022 16:17:14,1659975434546,1,08/08/2022 17:17:14,94826,3,task-ig1e,NA,23527370,6895697,NA,complete,NA,62f135f1875ab6f7964515d9,computer,Desktop or Laptop,Mac OS 10.15.7,Safari 15.1,1440x900,1416x697,NA,ITT Ratings,2,for,3,NA,ACCEPT,NA,NA,NA,NA,NA,NA,NA,NA,batch3pro,batch3pro,12,26,1,Screen 1,continueButton,response_rating_scale_likert_active,3049,NA,NA,Agree,1,0,1,0,NA,NA,NA,NA,1,statements,Government controls us through vaccines,1,17/06/2021 12:40,17/06/2021 12:47,IP Address,For (I feel positively about the vaccines),Rarely,A few times a year,20,Female,NA,A levels,control,22,3,For,Against
29,1659975456857,08/08/2022 16:17:36,1659975456840,1,08/08/2022 17:17:36,94826,3,task-ig1e,NA,23527370,6895697,NA,complete,NA,62f135f1875ab6f7964515d9,computer,Desktop or Laptop,Mac OS 10.15.7,Safari 15.1,1440x900,1416x697,NA,ITT Ratings,2,for,3,NA,ACCEPT,NA,NA,NA,NA,NA,NA,NA,NA,batch3pro,batch3pro,42,27,1,Screen 1,continueButton,response_rating_scale_likert_active,22282,NA,NA,Disagree,1,0,1,0,NA,NA,NA,NA,1,statements,The vaccine has been rushed.,1,17/06/2021 12:43,17/06/2021 12:51,IP Address,For (I feel positively about the vaccines),Rarely,Rarely,32,Female,NA,"Postgraduate degree (MSc, MA, MPhil)",choice,27,3,For,Against
30,1659975521533,08/08/2022 16:18:41,1659975521258,1,08/08/2022 17:18:41,94826,3,task-ig1e,NA,23527370,6895697,NA,complete,NA,62f135f1875ab6f7964515d9,computer,Desktop or Laptop,Mac OS 10.15.7,Safari 15.1,1440x900,1416x697,NA,ITT Ratings,2,for,3,NA,ACCEPT,NA,NA,NA,NA,NA,NA,NA,NA,batch3pro,batch3pro,16,28,1,Screen 1,continueButton,response_rating_scale_likert_active,64407,NA,NA,Disagree,1,0,1,0,NA,NA,NA,NA,1,statements,The vaccines haven't been tested enough for specific groups which I consider to be in.,1,17/06/2021 12:31,17/06/2021 12:47,IP Address,For (I feel positively about the vaccines),Rarely,Most weeks,36,Male,NA,"Undergraduate degree (BSc, BA)",control,23,1,For,Against
31,1659975524067,08/08/2022 16:18:44,1659975524042,1,08/08/2022 17:18:44,94826,3,task-ig1e,NA,23527370,6895697,NA,complete,NA,62f135f1875ab6f7964515d9,computer,Desktop or Laptop,Mac OS 10.15.7,Safari 15.1,1440x900,1416x697,NA,ITT Ratings,2,for,3,NA,ACCEPT,NA,NA,NA,NA,NA,NA,NA,NA,batch3pro,batch3pro,27,29,1,Screen 1,continueButton,response_rating_scale_likert_active,2771,NA,NA,Agree,1,0,1,0,NA,NA,NA,NA,1,statements,I believe the vaccines are safe and effective.,1,17/06/2021 12:39,17/06/2021 12:47,IP Address,For (I feel positively about the vaccines),Rarely,A few times a year,22,Male,NA,"Undergraduate degree (BSc, BA)",choice,24,3,For,For
32,1659975530121,08/08/2022 16:18:50,1659975530091,1,08/08/2022 17:18:50,94826,3,task-ig1e,NA,23527370,6895697,NA,complete,NA,62f135f1875ab6f7964515d9,computer,Desktop or Laptop,Mac OS 10.15.7,Safari 15.1,1440x900,1416x697,NA,ITT Ratings,2,for,3,NA,ACCEPT,NA,NA,NA,NA,NA,NA,NA,NA,batch3pro,batch3pro,4,30,1,Screen 1,continueButton,response_rating_scale_likert_active,6036,NA,NA,Disagree,1,0,1,0,NA,NA,NA,NA,1,statements,"The vaccine has been rushed, normally it would take years to develop a vaccine",1,17/06/2021 12:39,17/06/2021 12:46,IP Address,For (I feel positively about the vaccines),Most months,Rarely,34,Female,NA,"Undergraduate degree (BSc, BA)",control,21,1,For,Against
33,1659975535658,08/08/2022 16:18:55,1659975535629,1,08/08/2022 17:18:55,94826,3,task-ig1e,NA,23527370,6895697,NA,complete,NA,62f135f1875ab6f7964515d9,computer,Desktop or Laptop,Mac OS 10.15.7,Safari 15.1,1440x900,1416x697,NA,ITT Ratings,2,for,3,NA,ACCEPT,NA,NA,NA,NA,NA,NA,NA,NA,batch3pro,batch3pro,51,31,1,Screen 1,continueButton,response_rating_scale_likert_active,5524,NA,NA,Agree,1,0,1,0,NA,NA,NA,NA,1,statements,The vaccine is safe and has been tested and the side effects are very rare and unlikely to occur,1,17/06/2021 12:28,17/06/2021 12:51,IP Address,For (I feel positively about the vaccines),Rarely,Most weeks,41,Male,NA,Doctorate (PhD),control,28,3,For,For
34,1659975548535,08/08/2022 16:19:08,1659975548516,1,08/08/2022 17:19:08,94826,3,task-ig1e,NA,23527370,6895697,NA,complete,NA,62f135f1875ab6f7964515d9,computer,Desktop or Laptop,Mac OS 10.15.7,Safari 15.1,1440x900,1416x697,NA,ITT Ratings,2,for,3,NA,ACCEPT,NA,NA,NA,NA,NA,NA,NA,NA,batch3pro,batch3pro,55,32,1,Screen 1,continueButton,response_rating_scale_likert_active,12874,NA,NA,Agree,1,0,1,0,NA,NA,NA,NA,1,statements,I want to protect myself from COVID-19,1,17/06/2021 12:41,17/06/2021 12:51,IP Address,For (I feel positively about the vaccines),Rarely,Once or twice a year,32,Male,NA,"Undergraduate degree (BSc, BA)",control,29,1,For,For
35,1659975555406,08/08/2022 16:19:15,1659975555376,1,08/08/2022 17:19:15,94826,3,task-ig1e,NA,23527370,6895697,NA,complete,NA,62f135f1875ab6f7964515d9,computer,Desktop or Laptop,Mac OS 10.15.7,Safari 15.1,1440x900,1416x697,NA,ITT Ratings,2,for,3,NA,ACCEPT,NA,NA,NA,NA,NA,NA,NA,NA,batch3pro,batch3pro,50,33,1,Screen 1,continueButton,response_rating_scale_likert_active,6849,NA,NA,Agree,1,0,1,0,NA,NA,NA,NA,1,statements,It is the best and quickest way to get our society functioning again and get the economy going,1,17/06/2021 12:28,17/06/2021 12:51,IP Address,For (I feel positively about the vaccines),Rarely,Most weeks,41,Male,NA,Doctorate (PhD),control,28,2,For,For
36,1659975558949,08/08/2022 16:19:18,1659975558911,1,08/08/2022 17:19:18,94826,3,task-ig1e,NA,23527370,6895697,NA,complete,NA,62f135f1875ab6f7964515d9,computer,Desktop or Laptop,Mac OS 10.15.7,Safari 15.1,1440x900,1416x697,NA,ITT Ratings,2,for,3,NA,ACCEPT,NA,NA,NA,NA,NA,NA,NA,NA,batch3pro,batch3pro,38,34,1,Screen 1,continueButton,response_rating_scale_likert_active,3523,NA,NA,Agree,1,0,1,0,NA,NA,NA,NA,1,statements,It should be a requirement and safeguards public,1,17/06/2021 12:44,17/06/2021 12:49,IP Address,For (I feel positively about the vaccines),A few times a year,Most weeks,29,Male,NA,"Undergraduate degree (BSc, BA)",control,26,2,For,For
37,1659975563407,08/08/2022 16:19:23,1659975563393,1,08/08/2022 17:19:23,94826,3,task-ig1e,NA,23527370,6895697,NA,complete,NA,62f135f1875ab6f7964515d9,computer,Desktop or Laptop,Mac OS 10.15.7,Safari 15.1,1440x900,1416x697,NA,ITT Ratings,2,for,3,NA,ACCEPT,NA,NA,NA,NA,NA,NA,NA,NA,batch3pro,batch3pro,5,35,1,Screen 1,continueButton,response_rating_scale_likert_active,4470.000000000058,NA,NA,Disagree,1,0,1,0,NA,NA,NA,NA,1,statements,I am concerned about side effects and other health risks that might develop from having the vaccine,1,17/06/2021 12:39,17/06/2021 12:46,IP Address,For (I feel positively about the vaccines),Most months,Rarely,34,Female,NA,"Undergraduate degree (BSc, BA)",control,21,2,For,Against
38,1659975570881,08/08/2022 16:19:30,1659975570860,1,08/08/2022 17:19:30,94826,3,task-ig1e,NA,23527370,6895697,NA,complete,NA,62f135f1875ab6f7964515d9,computer,Desktop or Laptop,Mac OS 10.15.7,Safari 15.1,1440x900,1416x697,NA,ITT Ratings,2,for,3,NA,ACCEPT,NA,NA,NA,NA,NA,NA,NA,NA,batch3pro,batch3pro,3,36,1,Screen 1,continueButton,response_rating_scale_likert_active,7453,NA,NA,Somewhat Disagree,1,0,1,0,NA,NA,NA,NA,1,statements,We would like to check you are reading each argument carefully. Please select 'Somewhat Disagree' for this answer,1,NA,NA,NA,NA,NA,NA,NA,NA,NA,NA,NA,NA,check2,NA,NA
39,1659975576363,08/08/2022 16:19:36,1659975576343,1,08/08/2022 17:19:36,94826,3,task-ig1e,NA,23527370,6895697,NA,complete,NA,62f135f1875ab6f7964515d9,computer,Desktop or Laptop,Mac OS 10.15.7,Safari 15.1,1440x900,1416x697,NA,ITT Ratings,2,for,3,NA,ACCEPT,NA,NA,NA,NA,NA,NA,NA,NA,batch3pro,batch3pro,46,37,1,Screen 1,continueButton,response_rating_scale_likert_active,5470,NA,NA,Disagree,1,0,1,0,NA,NA,NA,NA,1,statements,The vaccine has been developed too quickly and has not been properly tested over a long period of time.,1,17/06/2021 12:28,17/06/2021 12:51,IP Address,For (I feel positively about the vaccines),Rarely,Most weeks,41,Male,NA,Doctorate (PhD),control,28,1,For,Against
40,1659975580451,08/08/2022 16:19:40,1659975580426,1,08/08/2022 17:19:40,94826,3,task-ig1e,NA,23527370,6895697,NA,complete,NA,62f135f1875ab6f7964515d9,computer,Desktop or Laptop,Mac OS 10.15.7,Safari 15.1,1440x900,1416x697,NA,ITT Ratings,2,for,3,NA,ACCEPT,NA,NA,NA,NA,NA,NA,NA,NA,batch3pro,batch3pro,61,38,1,Screen 1,continueButton,response_rating_scale_likert_active,4069.999999999942,NA,NA,Agree,1,0,1,0,NA,NA,NA,NA,1,statements,It will protect myself and the people around me and therefore I want to be vaccinated.,1,17/06/2021 12:32,17/06/2021 12:52,IP Address,For (I feel positively about the vaccines),Never,Most weeks,21,Female,NA,A levels,control,30,1,For,For
41,1659975585422,08/08/2022 16:19:45,1659975585402,1,08/08/2022 17:19:45,94826,3,task-ig1e,NA,23527370,6895697,NA,complete,NA,62f135f1875ab6f7964515d9,computer,Desktop or Laptop,Mac OS 10.15.7,Safari 15.1,1440x900,1416x697,NA,ITT Ratings,2,for,3,NA,ACCEPT,NA,NA,NA,NA,NA,NA,NA,NA,batch3pro,batch3pro,19,39,1,Screen 1,continueButton,response_rating_scale_likert_active,4964,NA,NA,Agree,1,0,1,0,NA,NA,NA,NA,1,statements,I believe the vaccine will provide the best protection against Covid-19 for myself and my families/friends.,1,17/06/2021 12:31,17/06/2021 12:47,IP Address,For (I feel positively about the vaccines),Rarely,Most weeks,36,Male,NA,"Undergraduate degree (BSc, BA)",control,23,1,For,For
42,1659975588283,08/08/2022 16:19:48,1659975588230,1,08/08/2022 17:19:48,94826,3,task-ig1e,NA,23527370,6895697,NA,complete,NA,62f135f1875ab6f7964515d9,computer,Desktop or Laptop,Mac OS 10.15.7,Safari 15.1,1440x900,1416x697,NA,ITT Ratings,2,for,3,NA,ACCEPT,NA,NA,NA,NA,NA,NA,NA,NA,batch3pro,batch3pro,58,40,1,Screen 1,continueButton,response_rating_scale_likert_active,2815,NA,NA,Disagree,1,0,1,0,NA,NA,NA,NA,1,statements,I fear that the vaccine isn't safe.,1,17/06/2021 12:32,17/06/2021 12:52,IP Address,For (I feel positively about the vaccines),Never,Most weeks,21,Female,NA,A levels,control,30,1,For,Against
43,1659975613405,08/08/2022 16:20:13,1659975613377,1,08/08/2022 17:20:13,94826,3,task-ig1e,NA,23527370,6895697,NA,complete,NA,62f135f1875ab6f7964515d9,computer,Desktop or Laptop,Mac OS 10.15.7,Safari 15.1,1440x900,1416x697,NA,ITT Ratings,2,for,3,NA,ACCEPT,NA,NA,NA,NA,NA,NA,NA,NA,batch3pro,batch3pro,36,41,1,Screen 1,continueButton,response_rating_scale_likert_active,25134,NA,NA,Disagree,1,0,1,0,NA,NA,NA,NA,1,statements,After effects the dangers for reaciton,1,17/06/2021 12:44,17/06/2021 12:49,IP Address,For (I feel positively about the vaccines),A few times a year,Most weeks,29,Male,NA,"Undergraduate degree (BSc, BA)",control,26,3,For,Against
44,1659975614836,08/08/2022 16:20:14,1659975614810,1,08/08/2022 17:20:14,94826,3,task-ig1e,NA,23527370,6895697,NA,complete,NA,62f135f1875ab6f7964515d9,computer,Desktop or Laptop,Mac OS 10.15.7,Safari 15.1,1440x900,1416x697,NA,ITT Ratings,2,for,3,NA,ACCEPT,NA,NA,NA,NA,NA,NA,NA,NA,batch3pro,batch3pro,41,42,1,Screen 1,continueButton,response_rating_scale_likert_active,1420,NA,NA,Disagree,1,0,1,0,NA,NA,NA,NA,1,statements,The vaccine is not safe.,1,17/06/2021 12:43,17/06/2021 12:51,IP Address,For (I feel positively about the vaccines),Rarely,Rarely,32,Female,NA,"Postgraduate degree (MSc, MA, MPhil)",choice,27,2,For,Against
45,1659975616813,08/08/2022 16:20:16,1659975616760,1,08/08/2022 17:20:16,94826,3,task-ig1e,NA,23527370,6895697,NA,complete,NA,62f135f1875ab6f7964515d9,computer,Desktop or Laptop,Mac OS 10.15.7,Safari 15.1,1440x900,1416x697,NA,ITT Ratings,2,for,3,NA,ACCEPT,NA,NA,NA,NA,NA,NA,NA,NA,batch3pro,batch3pro,6,43,1,Screen 1,continueButton,response_rating_scale_likert_active,1937,NA,NA,Disagree,1,0,1,0,NA,NA,NA,NA,1,statements,I don't believe the vaccine will work,1,17/06/2021 12:39,17/06/2021 12:46,IP Address,For (I feel positively about the vaccines),Most months,Rarely,34,Female,NA,"Undergraduate degree (BSc, BA)",control,21,3,For,Against
46,1659975619143,08/08/2022 16:20:19,1659975619110,1,08/08/2022 17:20:19,94826,3,task-ig1e,NA,23527370,6895697,NA,complete,NA,62f135f1875ab6f7964515d9,computer,Desktop or Laptop,Mac OS 10.15.7,Safari 15.1,1440x900,1416x697,NA,ITT Ratings,2,for,3,NA,ACCEPT,NA,NA,NA,NA,NA,NA,NA,NA,batch3pro,batch3pro,24,44,1,Screen 1,continueButton,response_rating_scale_likert_active,2339,NA,NA,Disagree,1,0,1,0,NA,NA,NA,NA,1,statements,I do not trust the companies making the vaccines.,1,17/06/2021 12:39,17/06/2021 12:47,IP Address,For (I feel positively about the vaccines),Rarely,A few times a year,22,Male,NA,"Undergraduate degree (BSc, BA)",choice,24,3,For,Against
47,1659975621729,08/08/2022 16:20:21,1659975621682,1,08/08/2022 17:20:21,94826,3,task-ig1e,NA,23527370,6895697,NA,complete,NA,62f135f1875ab6f7964515d9,computer,Desktop or Laptop,Mac OS 10.15.7,Safari 15.1,1440x900,1416x697,NA,ITT Ratings,2,for,3,NA,ACCEPT,NA,NA,NA,NA,NA,NA,NA,NA,batch3pro,batch3pro,23,45,1,Screen 1,continueButton,response_rating_scale_likert_active,2560,NA,NA,Disagree,1,0,1,0,NA,NA,NA,NA,1,statements,"I am young and so covid does not pose much risk to me, so I don't care about getting a vaccine.",1,17/06/2021 12:39,17/06/2021 12:47,IP Address,For (I feel positively about the vaccines),Rarely,A few times a year,22,Male,NA,"Undergraduate degree (BSc, BA)",choice,24,2,For,Against
48,1659975623357,08/08/2022 16:20:23,1659975623321,1,08/08/2022 17:20:23,94826,3,task-ig1e,NA,23527370,6895697,NA,complete,NA,62f135f1875ab6f7964515d9,computer,Desktop or Laptop,Mac OS 10.15.7,Safari 15.1,1440x900,1416x697,NA,ITT Ratings,2,for,3,NA,ACCEPT,NA,NA,NA,NA,NA,NA,NA,NA,batch3pro,batch3pro,40,46,1,Screen 1,continueButton,response_rating_scale_likert_active,1626,NA,NA,Disagree,1,0,1,0,NA,NA,NA,NA,1,statements,I don't believe in the vaccine.,1,17/06/2021 12:43,17/06/2021 12:51,IP Address,For (I feel positively about the vaccines),Rarely,Rarely,32,Female,NA,"Postgraduate degree (MSc, MA, MPhil)",choice,27,1,For,Against
49,1659975628069,08/08/2022 16:20:28,1659975628044,1,08/08/2022 17:20:28,94826,3,task-ig1e,NA,23527370,6895697,NA,complete,NA,62f135f1875ab6f7964515d9,computer,Desktop or Laptop,Mac OS 10.15.7,Safari 15.1,1440x900,1416x697,NA,ITT Ratings,2,for,3,NA,ACCEPT,NA,NA,NA,NA,NA,NA,NA,NA,batch3pro,batch3pro,62,47,1,Screen 1,continueButton,response_rating_scale_likert_active,4711,NA,NA,Strongly Agree,1,0,1,0,NA,NA,NA,NA,1,statements,The scientific evidence proves the vaccine is successful.,1,17/06/2021 12:32,17/06/2021 12:52,IP Address,For (I feel positively about the vaccines),Never,Most weeks,21,Female,NA,A levels,control,30,2,For,For
50,1659975634790,08/08/2022 16:20:34,1659975634761,1,08/08/2022 17:20:34,94826,3,task-ig1e,NA,23527370,6895697,NA,complete,NA,62f135f1875ab6f7964515d9,computer,Desktop or Laptop,Mac OS 10.15.7,Safari 15.1,1440x900,1416x697,NA,ITT Ratings,2,for,3,NA,ACCEPT,NA,NA,NA,NA,NA,NA,NA,NA,batch3pro,batch3pro,39,48,1,Screen 1,continueButton,response_rating_scale_likert_active,6705.000000000058,NA,NA,Strongly Disagree,1,0,1,0,NA,NA,NA,NA,1,statements,I am not completely f*cking insane,1,17/06/2021 12:44,17/06/2021 12:49,IP Address,For (I feel positively about the vaccines),A few times a year,Most weeks,29,Male,NA,"Undergraduate degree (BSc, BA)",control,26,3,For,For
51,1659975639193,08/08/2022 16:20:39,1659975639177,1,08/08/2022 17:20:39,94826,3,task-ig1e,NA,23527370,6895697,NA,complete,NA,62f135f1875ab6f7964515d9,computer,Desktop or Laptop,Mac OS 10.15.7,Safari 15.1,1440x900,1416x697,NA,ITT Ratings,2,for,3,NA,ACCEPT,NA,NA,NA,NA,NA,NA,NA,NA,batch3pro,batch3pro,22,49,1,Screen 1,continueButton,response_rating_scale_likert_active,4403.000000000058,NA,NA,Strongly Disagree,1,0,1,0,NA,NA,NA,NA,1,statements,I do not think the vaccines are safe.,1,17/06/2021 12:39,17/06/2021 12:47,IP Address,For (I feel positively about the vaccines),Rarely,A few times a year,22,Male,NA,"Undergraduate degree (BSc, BA)",choice,24,1,For,Against
52,1659975643477,08/08/2022 16:20:43,1659975643445,1,08/08/2022 17:20:43,94826,3,task-ig1e,NA,23527370,6895697,NA,complete,NA,62f135f1875ab6f7964515d9,computer,Desktop or Laptop,Mac OS 10.15.7,Safari 15.1,1440x900,1416x697,NA,ITT Ratings,2,for,3,NA,ACCEPT,NA,NA,NA,NA,NA,NA,NA,NA,batch3pro,batch3pro,17,50,1,Screen 1,continueButton,response_rating_scale_likert_active,4256,NA,NA,Disagree,1,0,1,0,NA,NA,NA,NA,1,statements,The vaccines haven't been in general circulation long enough to fully understand any longer term health implications.,1,17/06/2021 12:31,17/06/2021 12:47,IP Address,For (I feel positively about the vaccines),Rarely,Most weeks,36,Male,NA,"Undergraduate degree (BSc, BA)",control,23,2,For,Against
53,1659975645690,08/08/2022 16:20:45,1659975645665,1,08/08/2022 17:20:45,94826,3,task-ig1e,NA,23527370,6895697,NA,complete,NA,62f135f1875ab6f7964515d9,computer,Desktop or Laptop,Mac OS 10.15.7,Safari 15.1,1440x900,1416x697,NA,ITT Ratings,2,for,3,NA,ACCEPT,NA,NA,NA,NA,NA,NA,NA,NA,batch3pro,batch3pro,11,51,1,Screen 1,continueButton,response_rating_scale_likert_active,2209,NA,NA,Disagree,1,0,1,0,NA,NA,NA,NA,1,statements,Developed in a short timeframe,1,17/06/2021 12:40,17/06/2021 12:47,IP Address,For (I feel positively about the vaccines),Rarely,A few times a year,20,Female,NA,A levels,control,22,2,For,Against
54,1659975656394,08/08/2022 16:20:56,1659975656377,1,08/08/2022 17:20:56,94826,3,task-ig1e,NA,23527370,6895697,NA,complete,NA,62f135f1875ab6f7964515d9,computer,Desktop or Laptop,Mac OS 10.15.7,Safari 15.1,1440x900,1416x697,NA,ITT Ratings,2,for,3,NA,ACCEPT,NA,NA,NA,NA,NA,NA,NA,NA,batch3pro,batch3pro,32,52,1,Screen 1,continueButton,response_rating_scale_likert_active,10702,NA,NA,Agree,1,0,1,0,NA,NA,NA,NA,1,statements,To try to help go back to a normal way of life,1,17/06/2021 12:27,17/06/2021 12:49,IP Address,For (I feel positively about the vaccines),Rarely,Most weeks,22,Male,NA,"GCSEs,Vocational Training / Apprenticeship",choice,25,2,For,For
55,1659975660671,08/08/2022 16:21:00,1659975660610,1,08/08/2022 17:21:00,94826,3,task-ig1e,NA,23527370,6895697,NA,complete,NA,62f135f1875ab6f7964515d9,computer,Desktop or Laptop,Mac OS 10.15.7,Safari 15.1,1440x900,1416x697,NA,ITT Ratings,2,for,3,NA,ACCEPT,NA,NA,NA,NA,NA,NA,NA,NA,batch3pro,batch3pro,10,53,1,Screen 1,continueButton,response_rating_scale_likert_active,4219.999999999942,NA,NA,Disagree,1,0,1,0,NA,NA,NA,NA,1,statements,Don't know what's in it,1,17/06/2021 12:40,17/06/2021 12:47,IP Address,For (I feel positively about the vaccines),Rarely,A few times a year,20,Female,NA,A levels,control,22,1,For,Against
56,1659975662527,08/08/2022 16:21:02,1659975662511,1,08/08/2022 17:21:02,94826,3,task-ig1e,NA,23527370,6895697,NA,complete,NA,62f135f1875ab6f7964515d9,computer,Desktop or Laptop,Mac OS 10.15.7,Safari 15.1,1440x900,1416x697,NA,ITT Ratings,2,for,3,NA,ACCEPT,NA,NA,NA,NA,NA,NA,NA,NA,batch3pro,batch3pro,52,54,1,Screen 1,continueButton,response_rating_scale_likert_active,1889,NA,NA,Disagree,1,0,1,0,NA,NA,NA,NA,1,statements,Worry about side effects,1,17/06/2021 12:41,17/06/2021 12:51,IP Address,For (I feel positively about the vaccines),Rarely,Once or twice a year,32,Male,NA,"Undergraduate degree (BSc, BA)",control,29,1,For,Against
57,1659975667922,08/08/2022 16:21:07,1659975667915,1,08/08/2022 17:21:07,94826,3,task-ig1e,NA,23527370,6895697,NA,complete,NA,62f135f1875ab6f7964515d9,computer,Desktop or Laptop,Mac OS 10.15.7,Safari 15.1,1440x900,1416x697,NA,ITT Ratings,2,for,3,NA,ACCEPT,NA,NA,NA,NA,NA,NA,NA,NA,batch3pro,batch3pro,63,55,1,Screen 1,continueButton,response_rating_scale_likert_active,5390,NA,NA,Disagree,1,0,1,0,NA,NA,NA,NA,1,statements,The vaccine will also help prevent any long term serious effects from contracting covid.,1,17/06/2021 12:32,17/06/2021 12:52,IP Address,For (I feel positively about the vaccines),Never,Most weeks,21,Female,NA,A levels,control,30,3,For,For
58,1659975674753,08/08/2022 16:21:14,1659975674727,1,08/08/2022 17:21:14,94826,3,task-ig1e,NA,23527370,6895697,NA,complete,NA,62f135f1875ab6f7964515d9,computer,Desktop or Laptop,Mac OS 10.15.7,Safari 15.1,1440x900,1416x697,NA,ITT Ratings,2,for,3,NA,ACCEPT,NA,NA,NA,NA,NA,NA,NA,NA,batch3pro,batch3pro,15,56,1,Screen 1,continueButton,response_rating_scale_likert_active,6800.999999999942,NA,NA,Agree,1,0,1,0,NA,NA,NA,NA,1,statements,Effective enough to stop the pandemic,1,17/06/2021 12:40,17/06/2021 12:47,IP Address,For (I feel positively about the vaccines),Rarely,A few times a year,20,Female,NA,A levels,control,22,3,For,For
59,1659975683240,08/08/2022 16:21:23,1659975683212,1,08/08/2022 17:21:23,94826,3,task-ig1e,NA,23527370,6895697,NA,complete,NA,62f135f1875ab6f7964515d9,computer,Desktop or Laptop,Mac OS 10.15.7,Safari 15.1,1440x900,1416x697,NA,ITT Ratings,2,for,3,NA,ACCEPT,NA,NA,NA,NA,NA,NA,NA,NA,batch3pro,batch3pro,45,57,1,Screen 1,continueButton,response_rating_scale_likert_active,8473,NA,NA,Agree,1,0,1,0,NA,NA,NA,NA,1,statements,It will stop Covid spreading and create herd immunity.,1,17/06/2021 12:43,17/06/2021 12:51,IP Address,For (I feel positively about the vaccines),Rarely,Rarely,32,Female,NA,"Postgraduate degree (MSc, MA, MPhil)",choice,27,3,For,For
60,1659975686898,08/08/2022 16:21:26,1659975686872,1,08/08/2022 17:21:26,94826,3,task-ig1e,NA,23527370,6895697,NA,complete,NA,62f135f1875ab6f7964515d9,computer,Desktop or Laptop,Mac OS 10.15.7,Safari 15.1,1440x900,1416x697,NA,ITT Ratings,2,for,3,NA,ACCEPT,NA,NA,NA,NA,NA,NA,NA,NA,batch3pro,batch3pro,13,58,1,Screen 1,continueButton,response_rating_scale_likert_active,3648.000000000058,NA,NA,Agree,1,0,1,0,NA,NA,NA,NA,1,statements,Reduce the likelihood of me getting the virus,1,17/06/2021 12:40,17/06/2021 12:47,IP Address,For (I feel positively about the vaccines),Rarely,A few times a year,20,Female,NA,A levels,control,22,1,For,For
61,1659975689656,08/08/2022 16:21:29,1659975689641,1,08/08/2022 17:21:29,94826,3,task-ig1e,NA,23527370,6895697,NA,complete,NA,62f135f1875ab6f7964515d9,computer,Desktop or Laptop,Mac OS 10.15.7,Safari 15.1,1440x900,1416x697,NA,ITT Ratings,2,for,3,NA,ACCEPT,NA,NA,NA,NA,NA,NA,NA,NA,batch3pro,batch3pro,37,59,1,Screen 1,continueButton,response_rating_scale_likert_active,2756,NA,NA,Agree,1,0,1,0,NA,NA,NA,NA,1,statements,Better than dying of the virus,1,17/06/2021 12:44,17/06/2021 12:49,IP Address,For (I feel positively about the vaccines),A few times a year,Most weeks,29,Male,NA,"Undergraduate degree (BSc, BA)",control,26,1,For,For
62,1659975694036,08/08/2022 16:21:34,1659975694011,1,08/08/2022 17:21:34,94826,3,task-ig1e,NA,23527370,6895697,NA,complete,NA,62f135f1875ab6f7964515d9,computer,Desktop or Laptop,Mac OS 10.15.7,Safari 15.1,1440x900,1416x697,NA,ITT Ratings,2,for,3,NA,ACCEPT,NA,NA,NA,NA,NA,NA,NA,NA,batch3pro,batch3pro,14,60,1,Screen 1,continueButton,response_rating_scale_likert_active,4358,NA,NA,Agree,1,0,1,0,NA,NA,NA,NA,1,statements,Reducing the spread of the virus,1,17/06/2021 12:40,17/06/2021 12:47,IP Address,For (I feel positively about the vaccines),Rarely,A few times a year,20,Female,NA,A levels,control,22,2,For,For
63,1659975698009,08/08/2022 16:21:38,1659975697986,1,08/08/2022 17:21:37,94826,3,task-ig1e,NA,23527370,6895697,NA,complete,NA,62f135f1875ab6f7964515d9,computer,Desktop or Laptop,Mac OS 10.15.7,Safari 15.1,1440x900,1416x697,NA,ITT Ratings,2,for,3,NA,ACCEPT,NA,NA,NA,NA,NA,NA,NA,NA,batch3pro,batch3pro,43,61,1,Screen 1,continueButton,response_rating_scale_likert_active,3964.999999999942,NA,NA,Agree,1,0,1,0,NA,NA,NA,NA,1,statements,It's important to protect yourself and family.,1,17/06/2021 12:43,17/06/2021 12:51,IP Address,For (I feel positively about the vaccines),Rarely,Rarely,32,Female,NA,"Postgraduate degree (MSc, MA, MPhil)",choice,27,1,For,For
64,1659975706415,08/08/2022 16:21:46,1659975706378,1,08/08/2022 17:21:46,94826,3,task-ig1e,NA,23527370,6895697,NA,complete,NA,62f135f1875ab6f7964515d9,computer,Desktop or Laptop,Mac OS 10.15.7,Safari 15.1,1440x900,1416x697,NA,ITT Ratings,2,for,3,NA,ACCEPT,NA,NA,NA,NA,NA,NA,NA,NA,batch3pro,batch3pro,21,62,1,Screen 1,continueButton,response_rating_scale_likert_active,8383,NA,NA,Agree,1,0,1,0,NA,NA,NA,NA,1,statements,I  feel it would be wrong not to accept a free vaccine when so many other people around the world do not have access to them.,1,17/06/2021 12:31,17/06/2021 12:47,IP Address,For (I feel positively about the vaccines),Rarely,Most weeks,36,Male,NA,"Undergraduate degree (BSc, BA)",control,23,3,For,For
65,1659975706552,08/08/2022 16:21:46,1659975706382,1,08/08/2022 17:21:46,94826,3,task-ig1e,NA,23527370,6895697,NA,complete,NA,62f135f1875ab6f7964515d9,computer,Desktop or Laptop,Mac OS 10.15.7,Safari 15.1,1440x900,1416x697,NA,ITT Ratings,2,for,3,NA,ACCEPT,NA,NA,NA,NA,NA,NA,NA,NA,batch3pro,NA,NA,END TASK,NA,NA,NA,NA,452138,NA,NA,NA,NA,0,1,0,NA,NA,NA,NA,NA,NA,NA,NA,NA,NA,NA,NA,NA,NA,NA,NA,NA,NA,NA,NA,NA,NA,NA
1,1659975762735,08/08/2022 16:22:42,1659975762532,1,08/08/2022 17:22:42,94826,3,task-ig1e,NA,23527531,6895760,NA,complete,NA,62f13830f763d19926a19909,computer,Desktop or Laptop,Mac OS 10.15,Firefox 103.0,1440x900,1135x740,NA,ITT Ratings,2,for,3,NA,ACCEPT,NA,NA,NA,NA,NA,NA,NA,NA,batch3pro,NA,NA,BEGIN TASK,NA,NA,NA,NA,NA,NA,NA,NA,NA,0,1,0,NA,NA,NA,NA,NA,NA,NA,NA,NA,NA,NA,NA,NA,NA,NA,NA,NA,NA,NA,NA,NA,NA,NA
2,1659975765618,08/08/2022 16:22:45,1659975765505,1,08/08/2022 17:22:45,94826,3,task-ig1e,NA,23527531,6895760,NA,complete,NA,62f13830f763d19926a19909,computer,Desktop or Laptop,Mac OS 10.15,Firefox 103.0,1440x900,1135x740,NA,ITT Ratings,2,for,3,NA,ACCEPT,NA,NA,NA,NA,NA,NA,NA,NA,batch3pro,batch3pro,1,1,1,Screen 1,advancementZone,continue_button,2896,NA,NA,NA,NA,0,1,0,NA,NA,NA,NA,NA,instructions,NA,NA,NA,NA,NA,NA,NA,NA,NA,NA,NA,NA,NA,NA,NA,NA,NA
3,1659975768864,08/08/2022 16:22:48,1659975768768,1,08/08/2022 17:22:48,94826,3,task-ig1e,NA,23527531,6895760,NA,complete,NA,62f13830f763d19926a19909,computer,Desktop or Laptop,Mac OS 10.15,Firefox 103.0,1440x900,1135x740,NA,ITT Ratings,2,for,3,NA,ACCEPT,NA,NA,NA,NA,NA,NA,NA,NA,batch3pro,batch3pro,57,1,1,Screen 1,continueButton,response_rating_scale_likert_active,3229,NA,NA,Strongly Agree,1,0,1,0,NA,NA,NA,NA,1,statements,I want to follow the government advice,1,17/06/2021 12:41,17/06/2021 12:51,IP Address,For (I feel positively about the vaccines),Rarely,Once or twice a year,32,Male,NA,"Undergraduate degree (BSc, BA)",control,29,3,For,For
4,1659975770395,08/08/2022 16:22:50,1659975770323,1,08/08/2022 17:22:50,94826,3,task-ig1e,NA,23527531,6895760,NA,complete,NA,62f13830f763d19926a19909,computer,Desktop or Laptop,Mac OS 10.15,Firefox 103.0,1440x900,1135x740,NA,ITT Ratings,2,for,3,NA,ACCEPT,NA,NA,NA,NA,NA,NA,NA,NA,batch3pro,batch3pro,61,2,1,Screen 1,continueButton,response_rating_scale_likert_active,1534,NA,NA,Strongly Agree,1,0,1,0,NA,NA,NA,NA,1,statements,It will protect myself and the people around me and therefore I want to be vaccinated.,1,17/06/2021 12:32,17/06/2021 12:52,IP Address,For (I feel positively about the vaccines),Never,Most weeks,21,Female,NA,A levels,control,30,1,For,For
5,1659975773434,08/08/2022 16:22:53,1659975773346,1,08/08/2022 17:22:53,94826,3,task-ig1e,NA,23527531,6895760,NA,complete,NA,62f13830f763d19926a19909,computer,Desktop or Laptop,Mac OS 10.15,Firefox 103.0,1440x900,1135x740,NA,ITT Ratings,2,for,3,NA,ACCEPT,NA,NA,NA,NA,NA,NA,NA,NA,batch3pro,batch3pro,20,3,1,Screen 1,continueButton,response_rating_scale_likert_active,3003,NA,NA,Strongly Agree,1,0,1,0,NA,NA,NA,NA,1,statements,I feel it is my duty to ensure I am vaccinated as part of halting ongoing transmission.,1,17/06/2021 12:31,17/06/2021 12:47,IP Address,For (I feel positively about the vaccines),Rarely,Most weeks,36,Male,NA,"Undergraduate degree (BSc, BA)",control,23,2,For,For
6,1659975776362,08/08/2022 16:22:56,1659975776284,1,08/08/2022 17:22:56,94826,3,task-ig1e,NA,23527531,6895760,NA,complete,NA,62f13830f763d19926a19909,computer,Desktop or Laptop,Mac OS 10.15,Firefox 103.0,1440x900,1135x740,NA,ITT Ratings,2,for,3,NA,ACCEPT,NA,NA,NA,NA,NA,NA,NA,NA,batch3pro,batch3pro,6,4,1,Screen 1,continueButton,response_rating_scale_likert_active,2922,NA,NA,Disagree,1,0,1,0,NA,NA,NA,NA,1,statements,I don't believe the vaccine will work,1,17/06/2021 12:39,17/06/2021 12:46,IP Address,For (I feel positively about the vaccines),Most months,Rarely,34,Female,NA,"Undergraduate degree (BSc, BA)",control,21,3,For,Against
7,1659975778958,08/08/2022 16:22:58,1659975778876,1,08/08/2022 17:22:58,94826,3,task-ig1e,NA,23527531,6895760,NA,complete,NA,62f13830f763d19926a19909,computer,Desktop or Laptop,Mac OS 10.15,Firefox 103.0,1440x900,1135x740,NA,ITT Ratings,2,for,3,NA,ACCEPT,NA,NA,NA,NA,NA,NA,NA,NA,batch3pro,batch3pro,15,5,1,Screen 1,continueButton,response_rating_scale_likert_active,2576,NA,NA,Somewhat Agree,1,0,1,0,NA,NA,NA,NA,1,statements,Effective enough to stop the pandemic,1,17/06/2021 12:40,17/06/2021 12:47,IP Address,For (I feel positively about the vaccines),Rarely,A few times a year,20,Female,NA,A levels,control,22,3,For,For
8,1659975783531,08/08/2022 16:23:03,1659975783439,1,08/08/2022 17:23:03,94826,3,task-ig1e,NA,23527531,6895760,NA,complete,NA,62f13830f763d19926a19909,computer,Desktop or Laptop,Mac OS 10.15,Firefox 103.0,1440x900,1135x740,NA,ITT Ratings,2,for,3,NA,ACCEPT,NA,NA,NA,NA,NA,NA,NA,NA,batch3pro,batch3pro,56,6,1,Screen 1,continueButton,response_rating_scale_likert_active,4548,NA,NA,Strongly Agree,1,0,1,0,NA,NA,NA,NA,1,statements,"I want to protect others from COVID-19, especially those who can't receive a vaccine",1,17/06/2021 12:41,17/06/2021 12:51,IP Address,For (I feel positively about the vaccines),Rarely,Once or twice a year,32,Male,NA,"Undergraduate degree (BSc, BA)",control,29,2,For,For
9,1659975787829,08/08/2022 16:23:07,1659975787753,1,08/08/2022 17:23:07,94826,3,task-ig1e,NA,23527531,6895760,NA,complete,NA,62f13830f763d19926a19909,computer,Desktop or Laptop,Mac OS 10.15,Firefox 103.0,1440x900,1135x740,NA,ITT Ratings,2,for,3,NA,ACCEPT,NA,NA,NA,NA,NA,NA,NA,NA,batch3pro,batch3pro,36,7,1,Screen 1,continueButton,response_rating_scale_likert_active,4297,NA,NA,Neither Agree nor Disagree,1,0,1,0,NA,NA,NA,NA,1,statements,After effects the dangers for reaciton,1,17/06/2021 12:44,17/06/2021 12:49,IP Address,For (I feel positively about the vaccines),A few times a year,Most weeks,29,Male,NA,"Undergraduate degree (BSc, BA)",control,26,3,For,Against
10,1659975792674,08/08/2022 16:23:12,1659975792603,1,08/08/2022 17:23:12,94826,3,task-ig1e,NA,23527531,6895760,NA,complete,NA,62f13830f763d19926a19909,computer,Desktop or Laptop,Mac OS 10.15,Firefox 103.0,1440x900,1135x740,NA,ITT Ratings,2,for,3,NA,ACCEPT,NA,NA,NA,NA,NA,NA,NA,NA,batch3pro,batch3pro,32,8,1,Screen 1,continueButton,response_rating_scale_likert_active,4831,NA,NA,Strongly Agree,1,0,1,0,NA,NA,NA,NA,1,statements,To try to help go back to a normal way of life,1,17/06/2021 12:27,17/06/2021 12:49,IP Address,For (I feel positively about the vaccines),Rarely,Most weeks,22,Male,NA,"GCSEs,Vocational Training / Apprenticeship",choice,25,2,For,For
11,1659975794263,08/08/2022 16:23:14,1659975794176,1,08/08/2022 17:23:14,94826,3,task-ig1e,NA,23527531,6895760,NA,complete,NA,62f13830f763d19926a19909,computer,Desktop or Laptop,Mac OS 10.15,Firefox 103.0,1440x900,1135x740,NA,ITT Ratings,2,for,3,NA,ACCEPT,NA,NA,NA,NA,NA,NA,NA,NA,batch3pro,batch3pro,49,9,1,Screen 1,continueButton,response_rating_scale_likert_active,1557,NA,NA,Strongly Agree,1,0,1,0,NA,NA,NA,NA,1,statements,It protects me and other people as well so is our social duty to have one,1,17/06/2021 12:28,17/06/2021 12:51,IP Address,For (I feel positively about the vaccines),Rarely,Most weeks,41,Male,NA,Doctorate (PhD),control,28,1,For,For
12,1659975798843,08/08/2022 16:23:18,1659975798764,1,08/08/2022 17:23:18,94826,3,task-ig1e,NA,23527531,6895760,NA,complete,NA,62f13830f763d19926a19909,computer,Desktop or Laptop,Mac OS 10.15,Firefox 103.0,1440x900,1135x740,NA,ITT Ratings,2,for,3,NA,ACCEPT,NA,NA,NA,NA,NA,NA,NA,NA,batch3pro,batch3pro,30,10,1,Screen 1,continueButton,response_rating_scale_likert_active,4572,NA,NA,Somewhat Agree,1,0,1,0,NA,NA,NA,NA,1,statements,"They were rushed, it usually takes year for vaccines to be developed safely",1,17/06/2021 12:27,17/06/2021 12:49,IP Address,For (I feel positively about the vaccines),Rarely,Most weeks,22,Male,NA,"GCSEs,Vocational Training / Apprenticeship",choice,25,3,For,Against
13,1659975802793,08/08/2022 16:23:22,1659975802680,1,08/08/2022 17:23:22,94826,3,task-ig1e,NA,23527531,6895760,NA,complete,NA,62f13830f763d19926a19909,computer,Desktop or Laptop,Mac OS 10.15,Firefox 103.0,1440x900,1135x740,NA,ITT Ratings,2,for,3,NA,ACCEPT,NA,NA,NA,NA,NA,NA,NA,NA,batch3pro,batch3pro,17,11,1,Screen 1,continueButton,response_rating_scale_likert_active,3903,NA,NA,Somewhat Agree,1,0,1,0,NA,NA,NA,NA,1,statements,The vaccines haven't been in general circulation long enough to fully understand any longer term health implications.,1,17/06/2021 12:31,17/06/2021 12:47,IP Address,For (I feel positively about the vaccines),Rarely,Most weeks,36,Male,NA,"Undergraduate degree (BSc, BA)",control,23,2,For,Against
14,1659975807201,08/08/2022 16:23:27,1659975807120,1,08/08/2022 17:23:27,94826,3,task-ig1e,NA,23527531,6895760,NA,complete,NA,62f13830f763d19926a19909,computer,Desktop or Laptop,Mac OS 10.15,Firefox 103.0,1440x900,1135x740,NA,ITT Ratings,2,for,3,NA,ACCEPT,NA,NA,NA,NA,NA,NA,NA,NA,batch3pro,batch3pro,5,12,1,Screen 1,continueButton,response_rating_scale_likert_active,4425,NA,NA,Somewhat Disagree,1,0,1,0,NA,NA,NA,NA,1,statements,I am concerned about side effects and other health risks that might develop from having the vaccine,1,17/06/2021 12:39,17/06/2021 12:46,IP Address,For (I feel positively about the vaccines),Most months,Rarely,34,Female,NA,"Undergraduate degree (BSc, BA)",control,21,2,For,Against
15,1659975809302,08/08/2022 16:23:29,1659975809222,1,08/08/2022 17:23:29,94826,3,task-ig1e,NA,23527531,6895760,NA,complete,NA,62f13830f763d19926a19909,computer,Desktop or Laptop,Mac OS 10.15,Firefox 103.0,1440x900,1135x740,NA,ITT Ratings,2,for,3,NA,ACCEPT,NA,NA,NA,NA,NA,NA,NA,NA,batch3pro,batch3pro,12,13,1,Screen 1,continueButton,response_rating_scale_likert_active,2085,NA,NA,Strongly Disagree,1,0,1,0,NA,NA,NA,NA,1,statements,Government controls us through vaccines,1,17/06/2021 12:40,17/06/2021 12:47,IP Address,For (I feel positively about the vaccines),Rarely,A few times a year,20,Female,NA,A levels,control,22,3,For,Against
16,1659975811385,08/08/2022 16:23:31,1659975811318,1,08/08/2022 17:23:31,94826,3,task-ig1e,NA,23527531,6895760,NA,complete,NA,62f13830f763d19926a19909,computer,Desktop or Laptop,Mac OS 10.15,Firefox 103.0,1440x900,1135x740,NA,ITT Ratings,2,for,3,NA,ACCEPT,NA,NA,NA,NA,NA,NA,NA,NA,batch3pro,batch3pro,25,14,1,Screen 1,continueButton,response_rating_scale_likert_active,2084,NA,NA,Strongly Agree,1,0,1,0,NA,NA,NA,NA,1,statements,I want to be able to go to events or travel abroad.,1,17/06/2021 12:39,17/06/2021 12:47,IP Address,For (I feel positively about the vaccines),Rarely,A few times a year,22,Male,NA,"Undergraduate degree (BSc, BA)",choice,24,1,For,For
17,1659975815053,08/08/2022 16:23:35,1659975814973,1,08/08/2022 17:23:34,94826,3,task-ig1e,NA,23527531,6895760,NA,complete,NA,62f13830f763d19926a19909,computer,Desktop or Laptop,Mac OS 10.15,Firefox 103.0,1440x900,1135x740,NA,ITT Ratings,2,for,3,NA,ACCEPT,NA,NA,NA,NA,NA,NA,NA,NA,batch3pro,batch3pro,50,15,1,Screen 1,continueButton,response_rating_scale_likert_active,3640,NA,NA,Strongly Agree,1,0,1,0,NA,NA,NA,NA,1,statements,It is the best and quickest way to get our society functioning again and get the economy going,1,17/06/2021 12:28,17/06/2021 12:51,IP Address,For (I feel positively about the vaccines),Rarely,Most weeks,41,Male,NA,Doctorate (PhD),control,28,2,For,For
18,1659975818462,08/08/2022 16:23:38,1659975818393,1,08/08/2022 17:23:38,94826,3,task-ig1e,NA,23527531,6895760,NA,complete,NA,62f13830f763d19926a19909,computer,Desktop or Laptop,Mac OS 10.15,Firefox 103.0,1440x900,1135x740,NA,ITT Ratings,2,for,3,NA,ACCEPT,NA,NA,NA,NA,NA,NA,NA,NA,batch3pro,batch3pro,58,16,1,Screen 1,continueButton,response_rating_scale_likert_active,3406,NA,NA,Somewhat Disagree,1,0,1,0,NA,NA,NA,NA,1,statements,I fear that the vaccine isn't safe.,1,17/06/2021 12:32,17/06/2021 12:52,IP Address,For (I feel positively about the vaccines),Never,Most weeks,21,Female,NA,A levels,control,30,1,For,Against
19,1659975822586,08/08/2022 16:23:42,1659975822489,1,08/08/2022 17:23:42,94826,3,task-ig1e,NA,23527531,6895760,NA,complete,NA,62f13830f763d19926a19909,computer,Desktop or Laptop,Mac OS 10.15,Firefox 103.0,1440x900,1135x740,NA,ITT Ratings,2,for,3,NA,ACCEPT,NA,NA,NA,NA,NA,NA,NA,NA,batch3pro,batch3pro,39,17,1,Screen 1,continueButton,response_rating_scale_likert_active,4083,NA,NA,Strongly Disagree,1,0,1,0,NA,NA,NA,NA,1,statements,I am not completely f*cking insane,1,17/06/2021 12:44,17/06/2021 12:49,IP Address,For (I feel positively about the vaccines),A few times a year,Most weeks,29,Male,NA,"Undergraduate degree (BSc, BA)",control,26,3,For,For
20,1659975828912,08/08/2022 16:23:48,1659975828826,1,08/08/2022 17:23:48,94826,3,task-ig1e,NA,23527531,6895760,NA,complete,NA,62f13830f763d19926a19909,computer,Desktop or Laptop,Mac OS 10.15,Firefox 103.0,1440x900,1135x740,NA,ITT Ratings,2,for,3,NA,ACCEPT,NA,NA,NA,NA,NA,NA,NA,NA,batch3pro,batch3pro,3,18,1,Screen 1,continueButton,response_rating_scale_likert_active,6305,NA,NA,Somewhat Disagree,1,0,1,0,NA,NA,NA,NA,1,statements,We would like to check you are reading each argument carefully. Please select 'Somewhat Disagree' for this answer,1,NA,NA,NA,NA,NA,NA,NA,NA,NA,NA,NA,NA,check2,NA,NA
21,1659975830972,08/08/2022 16:23:50,1659975830886,1,08/08/2022 17:23:50,94826,3,task-ig1e,NA,23527531,6895760,NA,complete,NA,62f13830f763d19926a19909,computer,Desktop or Laptop,Mac OS 10.15,Firefox 103.0,1440x900,1135x740,NA,ITT Ratings,2,for,3,NA,ACCEPT,NA,NA,NA,NA,NA,NA,NA,NA,batch3pro,batch3pro,62,19,1,Screen 1,continueButton,response_rating_scale_likert_active,2036,NA,NA,Agree,1,0,1,0,NA,NA,NA,NA,1,statements,The scientific evidence proves the vaccine is successful.,1,17/06/2021 12:32,17/06/2021 12:52,IP Address,For (I feel positively about the vaccines),Never,Most weeks,21,Female,NA,A levels,control,30,2,For,For
22,1659975833156,08/08/2022 16:23:53,1659975833087,1,08/08/2022 17:23:53,94826,3,task-ig1e,NA,23527531,6895760,NA,complete,NA,62f13830f763d19926a19909,computer,Desktop or Laptop,Mac OS 10.15,Firefox 103.0,1440x900,1135x740,NA,ITT Ratings,2,for,3,NA,ACCEPT,NA,NA,NA,NA,NA,NA,NA,NA,batch3pro,batch3pro,51,20,1,Screen 1,continueButton,response_rating_scale_likert_active,2182,NA,NA,Strongly Agree,1,0,1,0,NA,NA,NA,NA,1,statements,The vaccine is safe and has been tested and the side effects are very rare and unlikely to occur,1,17/06/2021 12:28,17/06/2021 12:51,IP Address,For (I feel positively about the vaccines),Rarely,Most weeks,41,Male,NA,Doctorate (PhD),control,28,3,For,For
23,1659975835510,08/08/2022 16:23:55,1659975835379,1,08/08/2022 17:23:55,94826,3,task-ig1e,NA,23527531,6895760,NA,complete,NA,62f13830f763d19926a19909,computer,Desktop or Laptop,Mac OS 10.15,Firefox 103.0,1440x900,1135x740,NA,ITT Ratings,2,for,3,NA,ACCEPT,NA,NA,NA,NA,NA,NA,NA,NA,batch3pro,batch3pro,10,21,1,Screen 1,continueButton,response_rating_scale_likert_active,2276,NA,NA,Strongly Disagree,1,0,1,0,NA,NA,NA,NA,1,statements,Don't know what's in it,1,17/06/2021 12:40,17/06/2021 12:47,IP Address,For (I feel positively about the vaccines),Rarely,A few times a year,20,Female,NA,A levels,control,22,1,For,Against
24,1659975837868,08/08/2022 16:23:57,1659975837757,1,08/08/2022 17:23:57,94826,3,task-ig1e,NA,23527531,6895760,NA,complete,NA,62f13830f763d19926a19909,computer,Desktop or Laptop,Mac OS 10.15,Firefox 103.0,1440x900,1135x740,NA,ITT Ratings,2,for,3,NA,ACCEPT,NA,NA,NA,NA,NA,NA,NA,NA,batch3pro,batch3pro,11,22,1,Screen 1,continueButton,response_rating_scale_likert_active,2364,NA,NA,Somewhat Agree,1,0,1,0,NA,NA,NA,NA,1,statements,Developed in a short timeframe,1,17/06/2021 12:40,17/06/2021 12:47,IP Address,For (I feel positively about the vaccines),Rarely,A few times a year,20,Female,NA,A levels,control,22,2,For,Against
25,1659975842021,08/08/2022 16:24:02,1659975841919,1,08/08/2022 17:24:01,94826,3,task-ig1e,NA,23527531,6895760,NA,complete,NA,62f13830f763d19926a19909,computer,Desktop or Laptop,Mac OS 10.15,Firefox 103.0,1440x900,1135x740,NA,ITT Ratings,2,for,3,NA,ACCEPT,NA,NA,NA,NA,NA,NA,NA,NA,batch3pro,batch3pro,48,23,1,Screen 1,continueButton,response_rating_scale_likert_active,4144,NA,NA,Disagree,1,0,1,0,NA,NA,NA,NA,1,statements,I think that the vaccine might cause side effects that might be worse than the disease itself and that having a vaccine is not worth the risk,1,17/06/2021 12:28,17/06/2021 12:51,IP Address,For (I feel positively about the vaccines),Rarely,Most weeks,41,Male,NA,Doctorate (PhD),control,28,3,For,Against
26,1659975844818,08/08/2022 16:24:04,1659975844719,1,08/08/2022 17:24:04,94826,3,task-ig1e,NA,23527531,6895760,NA,complete,NA,62f13830f763d19926a19909,computer,Desktop or Laptop,Mac OS 10.15,Firefox 103.0,1440x900,1135x740,NA,ITT Ratings,2,for,3,NA,ACCEPT,NA,NA,NA,NA,NA,NA,NA,NA,batch3pro,batch3pro,29,24,1,Screen 1,continueButton,response_rating_scale_likert_active,2782,NA,NA,Disagree,1,0,1,0,NA,NA,NA,NA,1,statements,They are unsafe because I watch the news,1,17/06/2021 12:27,17/06/2021 12:49,IP Address,For (I feel positively about the vaccines),Rarely,Most weeks,22,Male,NA,"GCSEs,Vocational Training / Apprenticeship",choice,25,2,For,Against
27,1659975846907,08/08/2022 16:24:06,1659975846838,1,08/08/2022 17:24:06,94826,3,task-ig1e,NA,23527531,6895760,NA,complete,NA,62f13830f763d19926a19909,computer,Desktop or Laptop,Mac OS 10.15,Firefox 103.0,1440x900,1135x740,NA,ITT Ratings,2,for,3,NA,ACCEPT,NA,NA,NA,NA,NA,NA,NA,NA,batch3pro,batch3pro,27,25,1,Screen 1,continueButton,response_rating_scale_likert_active,2105,NA,NA,Agree,1,0,1,0,NA,NA,NA,NA,1,statements,I believe the vaccines are safe and effective.,1,17/06/2021 12:39,17/06/2021 12:47,IP Address,For (I feel positively about the vaccines),Rarely,A few times a year,22,Male,NA,"Undergraduate degree (BSc, BA)",choice,24,3,For,For
28,1659975854496,08/08/2022 16:24:14,1659975854421,1,08/08/2022 17:24:14,94826,3,task-ig1e,NA,23527531,6895760,NA,complete,NA,62f13830f763d19926a19909,computer,Desktop or Laptop,Mac OS 10.15,Firefox 103.0,1440x900,1135x740,NA,ITT Ratings,2,for,3,NA,ACCEPT,NA,NA,NA,NA,NA,NA,NA,NA,batch3pro,batch3pro,21,26,1,Screen 1,continueButton,response_rating_scale_likert_active,7567,NA,NA,Neither Agree nor Disagree,1,0,1,0,NA,NA,NA,NA,1,statements,I  feel it would be wrong not to accept a free vaccine when so many other people around the world do not have access to them.,1,17/06/2021 12:31,17/06/2021 12:47,IP Address,For (I feel positively about the vaccines),Rarely,Most weeks,36,Male,NA,"Undergraduate degree (BSc, BA)",control,23,3,For,For
29,1659975855860,08/08/2022 16:24:15,1659975855776,1,08/08/2022 17:24:15,94826,3,task-ig1e,NA,23527531,6895760,NA,complete,NA,62f13830f763d19926a19909,computer,Desktop or Laptop,Mac OS 10.15,Firefox 103.0,1440x900,1135x740,NA,ITT Ratings,2,for,3,NA,ACCEPT,NA,NA,NA,NA,NA,NA,NA,NA,batch3pro,batch3pro,55,27,1,Screen 1,continueButton,response_rating_scale_likert_active,1339,NA,NA,Strongly Agree,1,0,1,0,NA,NA,NA,NA,1,statements,I want to protect myself from COVID-19,1,17/06/2021 12:41,17/06/2021 12:51,IP Address,For (I feel positively about the vaccines),Rarely,Once or twice a year,32,Male,NA,"Undergraduate degree (BSc, BA)",control,29,1,For,For
30,1659975858260,08/08/2022 16:24:18,1659975858185,1,08/08/2022 17:24:18,94826,3,task-ig1e,NA,23527531,6895760,NA,complete,NA,62f13830f763d19926a19909,computer,Desktop or Laptop,Mac OS 10.15,Firefox 103.0,1440x900,1135x740,NA,ITT Ratings,2,for,3,NA,ACCEPT,NA,NA,NA,NA,NA,NA,NA,NA,batch3pro,batch3pro,2,28,1,Screen 1,continueButton,response_rating_scale_likert_active,2394,NA,NA,Somewhat Agree,1,0,1,0,NA,NA,NA,NA,1,statements,We would like to check you are reading each argument carefully. Please select 'Somewhat Agree' for this answer,1,NA,NA,NA,NA,NA,NA,NA,NA,NA,NA,NA,NA,check1,NA,NA
31,1659975861220,08/08/2022 16:24:21,1659975861089,1,08/08/2022 17:24:21,94826,3,task-ig1e,NA,23527531,6895760,NA,complete,NA,62f13830f763d19926a19909,computer,Desktop or Laptop,Mac OS 10.15,Firefox 103.0,1440x900,1135x740,NA,ITT Ratings,2,for,3,NA,ACCEPT,NA,NA,NA,NA,NA,NA,NA,NA,batch3pro,batch3pro,38,29,1,Screen 1,continueButton,response_rating_scale_likert_active,2888,NA,NA,Strongly Agree,1,0,1,0,NA,NA,NA,NA,1,statements,It should be a requirement and safeguards public,1,17/06/2021 12:44,17/06/2021 12:49,IP Address,For (I feel positively about the vaccines),A few times a year,Most weeks,29,Male,NA,"Undergraduate degree (BSc, BA)",control,26,2,For,For
32,1659975862672,08/08/2022 16:24:22,1659975862598,1,08/08/2022 17:24:22,94826,3,task-ig1e,NA,23527531,6895760,NA,complete,NA,62f13830f763d19926a19909,computer,Desktop or Laptop,Mac OS 10.15,Firefox 103.0,1440x900,1135x740,NA,ITT Ratings,2,for,3,NA,ACCEPT,NA,NA,NA,NA,NA,NA,NA,NA,batch3pro,batch3pro,9,30,1,Screen 1,continueButton,response_rating_scale_likert_active,1493,NA,NA,Strongly Agree,1,0,1,0,NA,NA,NA,NA,1,statements,I want to be able to see my friends and family,1,17/06/2021 12:39,17/06/2021 12:46,IP Address,For (I feel positively about the vaccines),Most months,Rarely,34,Female,NA,"Undergraduate degree (BSc, BA)",control,21,3,For,For
33,1659975866318,08/08/2022 16:24:26,1659975866229,1,08/08/2022 17:24:26,94826,3,task-ig1e,NA,23527531,6895760,NA,complete,NA,62f13830f763d19926a19909,computer,Desktop or Laptop,Mac OS 10.15,Firefox 103.0,1440x900,1135x740,NA,ITT Ratings,2,for,3,NA,ACCEPT,NA,NA,NA,NA,NA,NA,NA,NA,batch3pro,batch3pro,24,31,1,Screen 1,continueButton,response_rating_scale_likert_active,3620,NA,NA,Disagree,1,0,1,0,NA,NA,NA,NA,1,statements,I do not trust the companies making the vaccines.,1,17/06/2021 12:39,17/06/2021 12:47,IP Address,For (I feel positively about the vaccines),Rarely,A few times a year,22,Male,NA,"Undergraduate degree (BSc, BA)",choice,24,3,For,Against
34,1659975870033,08/08/2022 16:24:30,1659975869932,1,08/08/2022 17:24:29,94826,3,task-ig1e,NA,23527531,6895760,NA,complete,NA,62f13830f763d19926a19909,computer,Desktop or Laptop,Mac OS 10.15,Firefox 103.0,1440x900,1135x740,NA,ITT Ratings,2,for,3,NA,ACCEPT,NA,NA,NA,NA,NA,NA,NA,NA,batch3pro,batch3pro,19,32,1,Screen 1,continueButton,response_rating_scale_likert_active,3691,NA,NA,Strongly Agree,1,0,1,0,NA,NA,NA,NA,1,statements,I believe the vaccine will provide the best protection against Covid-19 for myself and my families/friends.,1,17/06/2021 12:31,17/06/2021 12:47,IP Address,For (I feel positively about the vaccines),Rarely,Most weeks,36,Male,NA,"Undergraduate degree (BSc, BA)",control,23,1,For,For
35,1659975879540,08/08/2022 16:24:39,1659975879425,1,08/08/2022 17:24:39,94826,3,task-ig1e,NA,23527531,6895760,NA,complete,NA,62f13830f763d19926a19909,computer,Desktop or Laptop,Mac OS 10.15,Firefox 103.0,1440x900,1135x740,NA,ITT Ratings,2,for,3,NA,ACCEPT,NA,NA,NA,NA,NA,NA,NA,NA,batch3pro,batch3pro,60,33,1,Screen 1,continueButton,response_rating_scale_likert_active,9482,NA,NA,Neither Agree nor Disagree,1,0,1,0,NA,NA,NA,NA,1,statements,I believe we haven't had enough time to develop the vaccine.,1,17/06/2021 12:32,17/06/2021 12:52,IP Address,For (I feel positively about the vaccines),Never,Most weeks,21,Female,NA,A levels,control,30,3,For,Against
36,1659975881968,08/08/2022 16:24:41,1659975881897,1,08/08/2022 17:24:41,94826,3,task-ig1e,NA,23527531,6895760,NA,complete,NA,62f13830f763d19926a19909,computer,Desktop or Laptop,Mac OS 10.15,Firefox 103.0,1440x900,1135x740,NA,ITT Ratings,2,for,3,NA,ACCEPT,NA,NA,NA,NA,NA,NA,NA,NA,batch3pro,batch3pro,37,34,1,Screen 1,continueButton,response_rating_scale_likert_active,2461,NA,NA,Agree,1,0,1,0,NA,NA,NA,NA,1,statements,Better than dying of the virus,1,17/06/2021 12:44,17/06/2021 12:49,IP Address,For (I feel positively about the vaccines),A few times a year,Most weeks,29,Male,NA,"Undergraduate degree (BSc, BA)",control,26,1,For,For
37,1659975884258,08/08/2022 16:24:44,1659975884164,1,08/08/2022 17:24:44,94826,3,task-ig1e,NA,23527531,6895760,NA,complete,NA,62f13830f763d19926a19909,computer,Desktop or Laptop,Mac OS 10.15,Firefox 103.0,1440x900,1135x740,NA,ITT Ratings,2,for,3,NA,ACCEPT,NA,NA,NA,NA,NA,NA,NA,NA,batch3pro,batch3pro,26,35,1,Screen 1,continueButton,response_rating_scale_likert_active,2256,NA,NA,Strongly Agree,1,0,1,0,NA,NA,NA,NA,1,statements,I have family members which could be vulnerable and so do not want to catch the virus.,1,17/06/2021 12:39,17/06/2021 12:47,IP Address,For (I feel positively about the vaccines),Rarely,A few times a year,22,Male,NA,"Undergraduate degree (BSc, BA)",choice,24,2,For,For
38,1659975888362,08/08/2022 16:24:48,1659975888268,1,08/08/2022 17:24:48,94826,3,task-ig1e,NA,23527531,6895760,NA,complete,NA,62f13830f763d19926a19909,computer,Desktop or Laptop,Mac OS 10.15,Firefox 103.0,1440x900,1135x740,NA,ITT Ratings,2,for,3,NA,ACCEPT,NA,NA,NA,NA,NA,NA,NA,NA,batch3pro,batch3pro,59,36,1,Screen 1,continueButton,response_rating_scale_likert_active,4090,NA,NA,Neither Agree nor Disagree,1,0,1,0,NA,NA,NA,NA,1,statements,I'm worried I will get long term effects from the vaccine or be effected negatively by it.,1,17/06/2021 12:32,17/06/2021 12:52,IP Address,For (I feel positively about the vaccines),Never,Most weeks,21,Female,NA,A levels,control,30,2,For,Against
39,1659975890168,08/08/2022 16:24:50,1659975890084,1,08/08/2022 17:24:50,94826,3,task-ig1e,NA,23527531,6895760,NA,complete,NA,62f13830f763d19926a19909,computer,Desktop or Laptop,Mac OS 10.15,Firefox 103.0,1440x900,1135x740,NA,ITT Ratings,2,for,3,NA,ACCEPT,NA,NA,NA,NA,NA,NA,NA,NA,batch3pro,batch3pro,41,37,1,Screen 1,continueButton,response_rating_scale_likert_active,1788,NA,NA,Disagree,1,0,1,0,NA,NA,NA,NA,1,statements,The vaccine is not safe.,1,17/06/2021 12:43,17/06/2021 12:51,IP Address,For (I feel positively about the vaccines),Rarely,Rarely,32,Female,NA,"Postgraduate degree (MSc, MA, MPhil)",choice,27,2,For,Against
40,1659975892146,08/08/2022 16:24:52,1659975892061,1,08/08/2022 17:24:52,94826,3,task-ig1e,NA,23527531,6895760,NA,complete,NA,62f13830f763d19926a19909,computer,Desktop or Laptop,Mac OS 10.15,Firefox 103.0,1440x900,1135x740,NA,ITT Ratings,2,for,3,NA,ACCEPT,NA,NA,NA,NA,NA,NA,NA,NA,batch3pro,batch3pro,44,38,1,Screen 1,continueButton,response_rating_scale_likert_active,1954,NA,NA,Agree,1,0,1,0,NA,NA,NA,NA,1,statements,We're lucky to be in a position to have a vaccine.,1,17/06/2021 12:43,17/06/2021 12:51,IP Address,For (I feel positively about the vaccines),Rarely,Rarely,32,Female,NA,"Postgraduate degree (MSc, MA, MPhil)",choice,27,2,For,For
41,1659975894187,08/08/2022 16:24:54,1659975894112,1,08/08/2022 17:24:54,94826,3,task-ig1e,NA,23527531,6895760,NA,complete,NA,62f13830f763d19926a19909,computer,Desktop or Laptop,Mac OS 10.15,Firefox 103.0,1440x900,1135x740,NA,ITT Ratings,2,for,3,NA,ACCEPT,NA,NA,NA,NA,NA,NA,NA,NA,batch3pro,batch3pro,14,39,1,Screen 1,continueButton,response_rating_scale_likert_active,2031,NA,NA,Strongly Agree,1,0,1,0,NA,NA,NA,NA,1,statements,Reducing the spread of the virus,1,17/06/2021 12:40,17/06/2021 12:47,IP Address,For (I feel positively about the vaccines),Rarely,A few times a year,20,Female,NA,A levels,control,22,2,For,For
42,1659975896971,08/08/2022 16:24:56,1659975896849,1,08/08/2022 17:24:56,94826,3,task-ig1e,NA,23527531,6895760,NA,complete,NA,62f13830f763d19926a19909,computer,Desktop or Laptop,Mac OS 10.15,Firefox 103.0,1440x900,1135x740,NA,ITT Ratings,2,for,3,NA,ACCEPT,NA,NA,NA,NA,NA,NA,NA,NA,batch3pro,batch3pro,4,40,1,Screen 1,continueButton,response_rating_scale_likert_active,2720,NA,NA,Neither Agree nor Disagree,1,0,1,0,NA,NA,NA,NA,1,statements,"The vaccine has been rushed, normally it would take years to develop a vaccine",1,17/06/2021 12:39,17/06/2021 12:46,IP Address,For (I feel positively about the vaccines),Most months,Rarely,34,Female,NA,"Undergraduate degree (BSc, BA)",control,21,1,For,Against
43,1659975900714,08/08/2022 16:25:00,1659975900634,1,08/08/2022 17:25:00,94826,3,task-ig1e,NA,23527531,6895760,NA,complete,NA,62f13830f763d19926a19909,computer,Desktop or Laptop,Mac OS 10.15,Firefox 103.0,1440x900,1135x740,NA,ITT Ratings,2,for,3,NA,ACCEPT,NA,NA,NA,NA,NA,NA,NA,NA,batch3pro,batch3pro,34,41,1,Screen 1,continueButton,response_rating_scale_likert_active,3767,NA,NA,Disagree,1,0,1,0,NA,NA,NA,NA,1,statements,Chemicals are dangerous as not everyone understands the science,1,17/06/2021 12:44,17/06/2021 12:49,IP Address,For (I feel positively about the vaccines),A few times a year,Most weeks,29,Male,NA,"Undergraduate degree (BSc, BA)",control,26,1,For,Against
44,1659975904133,08/08/2022 16:25:04,1659975904021,1,08/08/2022 17:25:04,94826,3,task-ig1e,NA,23527531,6895760,NA,complete,NA,62f13830f763d19926a19909,computer,Desktop or Laptop,Mac OS 10.15,Firefox 103.0,1440x900,1135x740,NA,ITT Ratings,2,for,3,NA,ACCEPT,NA,NA,NA,NA,NA,NA,NA,NA,batch3pro,batch3pro,16,42,1,Screen 1,continueButton,response_rating_scale_likert_active,3372,NA,NA,Agree,1,0,1,0,NA,NA,NA,NA,1,statements,The vaccines haven't been tested enough for specific groups which I consider to be in.,1,17/06/2021 12:31,17/06/2021 12:47,IP Address,For (I feel positively about the vaccines),Rarely,Most weeks,36,Male,NA,"Undergraduate degree (BSc, BA)",control,23,1,For,Against
45,1659975907271,08/08/2022 16:25:07,1659975907130,1,08/08/2022 17:25:07,94826,3,task-ig1e,NA,23527531,6895760,NA,complete,NA,62f13830f763d19926a19909,computer,Desktop or Laptop,Mac OS 10.15,Firefox 103.0,1440x900,1135x740,NA,ITT Ratings,2,for,3,NA,ACCEPT,NA,NA,NA,NA,NA,NA,NA,NA,batch3pro,batch3pro,33,43,1,Screen 1,continueButton,response_rating_scale_likert_active,3091,NA,NA,Strongly Agree,1,0,1,0,NA,NA,NA,NA,1,statements,To help stop the NHS from  being overwhelmed,1,17/06/2021 12:27,17/06/2021 12:49,IP Address,For (I feel positively about the vaccines),Rarely,Most weeks,22,Male,NA,"GCSEs,Vocational Training / Apprenticeship",choice,25,3,For,For
46,1659975909501,08/08/2022 16:25:09,1659975909403,1,08/08/2022 17:25:09,94826,3,task-ig1e,NA,23527531,6895760,NA,complete,NA,62f13830f763d19926a19909,computer,Desktop or Laptop,Mac OS 10.15,Firefox 103.0,1440x900,1135x740,NA,ITT Ratings,2,for,3,NA,ACCEPT,NA,NA,NA,NA,NA,NA,NA,NA,batch3pro,batch3pro,47,44,1,Screen 1,continueButton,response_rating_scale_likert_active,2255,NA,NA,Disagree,1,0,1,0,NA,NA,NA,NA,1,statements,There are other ways to mitigate the impact of the disease and vaccination isn't necessary,1,17/06/2021 12:28,17/06/2021 12:51,IP Address,For (I feel positively about the vaccines),Rarely,Most weeks,41,Male,NA,Doctorate (PhD),control,28,2,For,Against
47,1659975912367,08/08/2022 16:25:12,1659975912265,1,08/08/2022 17:25:12,94826,3,task-ig1e,NA,23527531,6895760,NA,complete,NA,62f13830f763d19926a19909,computer,Desktop or Laptop,Mac OS 10.15,Firefox 103.0,1440x900,1135x740,NA,ITT Ratings,2,for,3,NA,ACCEPT,NA,NA,NA,NA,NA,NA,NA,NA,batch3pro,batch3pro,22,45,1,Screen 1,continueButton,response_rating_scale_likert_active,2846,NA,NA,Disagree,1,0,1,0,NA,NA,NA,NA,1,statements,I do not think the vaccines are safe.,1,17/06/2021 12:39,17/06/2021 12:47,IP Address,For (I feel positively about the vaccines),Rarely,A few times a year,22,Male,NA,"Undergraduate degree (BSc, BA)",choice,24,1,For,Against
48,1659975914403,08/08/2022 16:25:14,1659975914322,1,08/08/2022 17:25:14,94826,3,task-ig1e,NA,23527531,6895760,NA,complete,NA,62f13830f763d19926a19909,computer,Desktop or Laptop,Mac OS 10.15,Firefox 103.0,1440x900,1135x740,NA,ITT Ratings,2,for,3,NA,ACCEPT,NA,NA,NA,NA,NA,NA,NA,NA,batch3pro,batch3pro,53,46,1,Screen 1,continueButton,response_rating_scale_likert_active,2044,NA,NA,Somewhat Agree,1,0,1,0,NA,NA,NA,NA,1,statements,Scared of needles/injections,1,17/06/2021 12:41,17/06/2021 12:51,IP Address,For (I feel positively about the vaccines),Rarely,Once or twice a year,32,Male,NA,"Undergraduate degree (BSc, BA)",control,29,2,For,Against
49,1659975916443,08/08/2022 16:25:16,1659975916332,1,08/08/2022 17:25:16,94826,3,task-ig1e,NA,23527531,6895760,NA,complete,NA,62f13830f763d19926a19909,computer,Desktop or Laptop,Mac OS 10.15,Firefox 103.0,1440x900,1135x740,NA,ITT Ratings,2,for,3,NA,ACCEPT,NA,NA,NA,NA,NA,NA,NA,NA,batch3pro,batch3pro,40,47,1,Screen 1,continueButton,response_rating_scale_likert_active,1996,NA,NA,Somewhat Disagree,1,0,1,0,NA,NA,NA,NA,1,statements,I don't believe in the vaccine.,1,17/06/2021 12:43,17/06/2021 12:51,IP Address,For (I feel positively about the vaccines),Rarely,Rarely,32,Female,NA,"Postgraduate degree (MSc, MA, MPhil)",choice,27,1,For,Against
50,1659975919987,08/08/2022 16:25:19,1659975919897,1,08/08/2022 17:25:19,94826,3,task-ig1e,NA,23527531,6895760,NA,complete,NA,62f13830f763d19926a19909,computer,Desktop or Laptop,Mac OS 10.15,Firefox 103.0,1440x900,1135x740,NA,ITT Ratings,2,for,3,NA,ACCEPT,NA,NA,NA,NA,NA,NA,NA,NA,batch3pro,batch3pro,63,48,1,Screen 1,continueButton,response_rating_scale_likert_active,3551,NA,NA,Strongly Agree,1,0,1,0,NA,NA,NA,NA,1,statements,The vaccine will also help prevent any long term serious effects from contracting covid.,1,17/06/2021 12:32,17/06/2021 12:52,IP Address,For (I feel positively about the vaccines),Never,Most weeks,21,Female,NA,A levels,control,30,3,For,For
51,1659975923048,08/08/2022 16:25:23,1659975922923,1,08/08/2022 17:25:22,94826,3,task-ig1e,NA,23527531,6895760,NA,complete,NA,62f13830f763d19926a19909,computer,Desktop or Laptop,Mac OS 10.15,Firefox 103.0,1440x900,1135x740,NA,ITT Ratings,2,for,3,NA,ACCEPT,NA,NA,NA,NA,NA,NA,NA,NA,batch3pro,batch3pro,35,49,1,Screen 1,continueButton,response_rating_scale_likert_active,3010,NA,NA,Somewhat Agree,1,0,1,0,NA,NA,NA,NA,1,statements,"Not enough evidence, not enough time and research done",1,17/06/2021 12:44,17/06/2021 12:49,IP Address,For (I feel positively about the vaccines),A few times a year,Most weeks,29,Male,NA,"Undergraduate degree (BSc, BA)",control,26,2,For,Against
52,1659975925059,08/08/2022 16:25:25,1659975924977,1,08/08/2022 17:25:24,94826,3,task-ig1e,NA,23527531,6895760,NA,complete,NA,62f13830f763d19926a19909,computer,Desktop or Laptop,Mac OS 10.15,Firefox 103.0,1440x900,1135x740,NA,ITT Ratings,2,for,3,NA,ACCEPT,NA,NA,NA,NA,NA,NA,NA,NA,batch3pro,batch3pro,45,50,1,Screen 1,continueButton,response_rating_scale_likert_active,2039,NA,NA,Strongly Agree,1,0,1,0,NA,NA,NA,NA,1,statements,It will stop Covid spreading and create herd immunity.,1,17/06/2021 12:43,17/06/2021 12:51,IP Address,For (I feel positively about the vaccines),Rarely,Rarely,32,Female,NA,"Postgraduate degree (MSc, MA, MPhil)",choice,27,3,For,For
53,1659975929073,08/08/2022 16:25:29,1659975928939,1,08/08/2022 17:25:28,94826,3,task-ig1e,NA,23527531,6895760,NA,complete,NA,62f13830f763d19926a19909,computer,Desktop or Laptop,Mac OS 10.15,Firefox 103.0,1440x900,1135x740,NA,ITT Ratings,2,for,3,NA,ACCEPT,NA,NA,NA,NA,NA,NA,NA,NA,batch3pro,batch3pro,46,51,1,Screen 1,continueButton,response_rating_scale_likert_active,3947,NA,NA,Neither Agree nor Disagree,1,0,1,0,NA,NA,NA,NA,1,statements,The vaccine has been developed too quickly and has not been properly tested over a long period of time.,1,17/06/2021 12:28,17/06/2021 12:51,IP Address,For (I feel positively about the vaccines),Rarely,Most weeks,41,Male,NA,Doctorate (PhD),control,28,1,For,Against
54,1659975932685,08/08/2022 16:25:32,1659975932591,1,08/08/2022 17:25:32,94826,3,task-ig1e,NA,23527531,6895760,NA,complete,NA,62f13830f763d19926a19909,computer,Desktop or Laptop,Mac OS 10.15,Firefox 103.0,1440x900,1135x740,NA,ITT Ratings,2,for,3,NA,ACCEPT,NA,NA,NA,NA,NA,NA,NA,NA,batch3pro,batch3pro,23,52,1,Screen 1,continueButton,response_rating_scale_likert_active,3639,NA,NA,Strongly Disagree,1,0,1,0,NA,NA,NA,NA,1,statements,"I am young and so covid does not pose much risk to me, so I don't care about getting a vaccine.",1,17/06/2021 12:39,17/06/2021 12:47,IP Address,For (I feel positively about the vaccines),Rarely,A few times a year,22,Male,NA,"Undergraduate degree (BSc, BA)",choice,24,2,For,Against
55,1659975936562,08/08/2022 16:25:36,1659975936460,1,08/08/2022 17:25:36,94826,3,task-ig1e,NA,23527531,6895760,NA,complete,NA,62f13830f763d19926a19909,computer,Desktop or Laptop,Mac OS 10.15,Firefox 103.0,1440x900,1135x740,NA,ITT Ratings,2,for,3,NA,ACCEPT,NA,NA,NA,NA,NA,NA,NA,NA,batch3pro,batch3pro,13,53,1,Screen 1,continueButton,response_rating_scale_likert_active,3856,NA,NA,Strongly Agree,1,0,1,0,NA,NA,NA,NA,1,statements,Reduce the likelihood of me getting the virus,1,17/06/2021 12:40,17/06/2021 12:47,IP Address,For (I feel positively about the vaccines),Rarely,A few times a year,20,Female,NA,A levels,control,22,1,For,For
56,1659975943761,08/08/2022 16:25:43,1659975943674,1,08/08/2022 17:25:43,94826,3,task-ig1e,NA,23527531,6895760,NA,complete,NA,62f13830f763d19926a19909,computer,Desktop or Laptop,Mac OS 10.15,Firefox 103.0,1440x900,1135x740,NA,ITT Ratings,2,for,3,NA,ACCEPT,NA,NA,NA,NA,NA,NA,NA,NA,batch3pro,batch3pro,42,54,1,Screen 1,continueButton,response_rating_scale_likert_active,7197,NA,NA,Somewhat Agree,1,0,1,0,NA,NA,NA,NA,1,statements,The vaccine has been rushed.,1,17/06/2021 12:43,17/06/2021 12:51,IP Address,For (I feel positively about the vaccines),Rarely,Rarely,32,Female,NA,"Postgraduate degree (MSc, MA, MPhil)",choice,27,3,For,Against
57,1659975946111,08/08/2022 16:25:46,1659975946018,1,08/08/2022 17:25:46,94826,3,task-ig1e,NA,23527531,6895760,NA,complete,NA,62f13830f763d19926a19909,computer,Desktop or Laptop,Mac OS 10.15,Firefox 103.0,1440x900,1135x740,NA,ITT Ratings,2,for,3,NA,ACCEPT,NA,NA,NA,NA,NA,NA,NA,NA,batch3pro,batch3pro,31,55,1,Screen 1,continueButton,response_rating_scale_likert_active,2329,NA,NA,Strongly Agree,1,0,1,0,NA,NA,NA,NA,1,statements,"To keep myself, friends and families safe",1,17/06/2021 12:27,17/06/2021 12:49,IP Address,For (I feel positively about the vaccines),Rarely,Most weeks,22,Male,NA,"GCSEs,Vocational Training / Apprenticeship",choice,25,1,For,For
58,1659975948952,08/08/2022 16:25:48,1659975948843,1,08/08/2022 17:25:48,94826,3,task-ig1e,NA,23527531,6895760,NA,complete,NA,62f13830f763d19926a19909,computer,Desktop or Laptop,Mac OS 10.15,Firefox 103.0,1440x900,1135x740,NA,ITT Ratings,2,for,3,NA,ACCEPT,NA,NA,NA,NA,NA,NA,NA,NA,batch3pro,batch3pro,28,56,1,Screen 1,continueButton,response_rating_scale_likert_active,2808,NA,NA,Disagree,1,0,1,0,NA,NA,NA,NA,1,statements,It can cause long term damage like blood clots,1,17/06/2021 12:27,17/06/2021 12:49,IP Address,For (I feel positively about the vaccines),Rarely,Most weeks,22,Male,NA,"GCSEs,Vocational Training / Apprenticeship",choice,25,1,For,Against
59,1659975956148,08/08/2022 16:25:56,1659975956055,1,08/08/2022 17:25:56,94826,3,task-ig1e,NA,23527531,6895760,NA,complete,NA,62f13830f763d19926a19909,computer,Desktop or Laptop,Mac OS 10.15,Firefox 103.0,1440x900,1135x740,NA,ITT Ratings,2,for,3,NA,ACCEPT,NA,NA,NA,NA,NA,NA,NA,NA,batch3pro,batch3pro,54,57,1,Screen 1,continueButton,response_rating_scale_likert_active,7197,NA,NA,Strongly Disagree,1,0,1,0,NA,NA,NA,NA,1,statements,I'm a moron and think Bill Gates wants to put a microchip in me,1,17/06/2021 12:41,17/06/2021 12:51,IP Address,For (I feel positively about the vaccines),Rarely,Once or twice a year,32,Male,NA,"Undergraduate degree (BSc, BA)",control,29,3,For,Against
60,1659975959948,08/08/2022 16:25:59,1659975959848,1,08/08/2022 17:25:59,94826,3,task-ig1e,NA,23527531,6895760,NA,complete,NA,62f13830f763d19926a19909,computer,Desktop or Laptop,Mac OS 10.15,Firefox 103.0,1440x900,1135x740,NA,ITT Ratings,2,for,3,NA,ACCEPT,NA,NA,NA,NA,NA,NA,NA,NA,batch3pro,batch3pro,8,58,1,Screen 1,continueButton,response_rating_scale_likert_active,3764,NA,NA,Agree,1,0,1,0,NA,NA,NA,NA,1,statements,I trust the experts who have developed the vaccine,1,17/06/2021 12:39,17/06/2021 12:46,IP Address,For (I feel positively about the vaccines),Most months,Rarely,34,Female,NA,"Undergraduate degree (BSc, BA)",control,21,2,For,For
61,1659975963731,08/08/2022 16:26:03,1659975963652,1,08/08/2022 17:26:03,94826,3,task-ig1e,NA,23527531,6895760,NA,complete,NA,62f13830f763d19926a19909,computer,Desktop or Laptop,Mac OS 10.15,Firefox 103.0,1440x900,1135x740,NA,ITT Ratings,2,for,3,NA,ACCEPT,NA,NA,NA,NA,NA,NA,NA,NA,batch3pro,batch3pro,18,59,1,Screen 1,continueButton,response_rating_scale_likert_active,3786,NA,NA,Somewhat Disagree,1,0,1,0,NA,NA,NA,NA,1,statements,The vaccines are not completely effective so I see no point in having one,1,17/06/2021 12:31,17/06/2021 12:47,IP Address,For (I feel positively about the vaccines),Rarely,Most weeks,36,Male,NA,"Undergraduate degree (BSc, BA)",control,23,3,For,Against
62,1659975965775,08/08/2022 16:26:05,1659975965660,1,08/08/2022 17:26:05,94826,3,task-ig1e,NA,23527531,6895760,NA,complete,NA,62f13830f763d19926a19909,computer,Desktop or Laptop,Mac OS 10.15,Firefox 103.0,1440x900,1135x740,NA,ITT Ratings,2,for,3,NA,ACCEPT,NA,NA,NA,NA,NA,NA,NA,NA,batch3pro,batch3pro,52,60,1,Screen 1,continueButton,response_rating_scale_likert_active,1989,NA,NA,Agree,1,0,1,0,NA,NA,NA,NA,1,statements,Worry about side effects,1,17/06/2021 12:41,17/06/2021 12:51,IP Address,For (I feel positively about the vaccines),Rarely,Once or twice a year,32,Male,NA,"Undergraduate degree (BSc, BA)",control,29,1,For,Against
63,1659975967904,08/08/2022 16:26:07,1659975967800,1,08/08/2022 17:26:07,94826,3,task-ig1e,NA,23527531,6895760,NA,complete,NA,62f13830f763d19926a19909,computer,Desktop or Laptop,Mac OS 10.15,Firefox 103.0,1440x900,1135x740,NA,ITT Ratings,2,for,3,NA,ACCEPT,NA,NA,NA,NA,NA,NA,NA,NA,batch3pro,batch3pro,7,61,1,Screen 1,continueButton,response_rating_scale_likert_active,2128,NA,NA,Strongly Agree,1,0,1,0,NA,NA,NA,NA,1,statements,I want to get back to some form of normality,1,17/06/2021 12:39,17/06/2021 12:46,IP Address,For (I feel positively about the vaccines),Most months,Rarely,34,Female,NA,"Undergraduate degree (BSc, BA)",control,21,1,For,For
64,1659975968915,08/08/2022 16:26:08,1659975968827,1,08/08/2022 17:26:08,94826,3,task-ig1e,NA,23527531,6895760,NA,complete,NA,62f13830f763d19926a19909,computer,Desktop or Laptop,Mac OS 10.15,Firefox 103.0,1440x900,1135x740,NA,ITT Ratings,2,for,3,NA,ACCEPT,NA,NA,NA,NA,NA,NA,NA,NA,batch3pro,batch3pro,43,62,1,Screen 1,continueButton,response_rating_scale_likert_active,1016,NA,NA,Strongly Agree,1,0,1,0,NA,NA,NA,NA,1,statements,It's important to protect yourself and family.,1,17/06/2021 12:43,17/06/2021 12:51,IP Address,For (I feel positively about the vaccines),Rarely,Rarely,32,Female,NA,"Postgraduate degree (MSc, MA, MPhil)",choice,27,1,For,For
65,1659975969010,08/08/2022 16:26:09,1659975968834,1,08/08/2022 17:26:08,94826,3,task-ig1e,NA,23527531,6895760,NA,complete,NA,62f13830f763d19926a19909,computer,Desktop or Laptop,Mac OS 10.15,Firefox 103.0,1440x900,1135x740,NA,ITT Ratings,2,for,3,NA,ACCEPT,NA,NA,NA,NA,NA,NA,NA,NA,batch3pro,NA,NA,END TASK,NA,NA,NA,NA,206302,NA,NA,NA,NA,0,1,0,NA,NA,NA,NA,NA,NA,NA,NA,NA,NA,NA,NA,NA,NA,NA,NA,NA,NA,NA,NA,NA,NA,NA
1,1659975781733,08/08/2022 16:23:01,1659975781662,1,08/08/2022 17:23:01,94826,3,task-ig1e,NA,23527539,6895764,NA,complete,NA,62f1384ce8940b0812cb3012,computer,Desktop or Laptop,Windows 10,Chrome 104.0.0.0,1536x864,1536x792,NA,ITT Ratings,2,for,3,NA,ACCEPT,NA,NA,NA,NA,NA,NA,NA,NA,batch3pro,NA,NA,BEGIN TASK,NA,NA,NA,NA,NA,NA,NA,NA,NA,0,1,0,NA,NA,NA,NA,NA,NA,NA,NA,NA,NA,NA,NA,NA,NA,NA,NA,NA,NA,NA,NA,NA,NA,NA
2,1659975785016,08/08/2022 16:23:05,1659975784996,1,08/08/2022 17:23:04,94826,3,task-ig1e,NA,23527539,6895764,NA,complete,NA,62f1384ce8940b0812cb3012,computer,Desktop or Laptop,Windows 10,Chrome 104.0.0.0,1536x864,1536x792,NA,ITT Ratings,2,for,3,NA,ACCEPT,NA,NA,NA,NA,NA,NA,NA,NA,batch3pro,batch3pro,1,1,1,Screen 1,advancementZone,continue_button,3308.199999999255,NA,NA,NA,NA,0,1,0,NA,NA,NA,NA,NA,instructions,NA,NA,NA,NA,NA,NA,NA,NA,NA,NA,NA,NA,NA,NA,NA,NA,NA
3,1659975790996,08/08/2022 16:23:10,1659975790941,1,08/08/2022 17:23:10,94826,3,task-ig1e,NA,23527539,6895764,NA,complete,NA,62f1384ce8940b0812cb3012,computer,Desktop or Laptop,Windows 10,Chrome 104.0.0.0,1536x864,1536x792,NA,ITT Ratings,2,for,3,NA,ACCEPT,NA,NA,NA,NA,NA,NA,NA,NA,batch3pro,batch3pro,60,1,1,Screen 1,continueButton,response_rating_scale_likert_active,5935.099999997765,NA,NA,Somewhat Disagree,1,0,1,0,NA,NA,NA,NA,1,statements,I believe we haven't had enough time to develop the vaccine.,1,17/06/2021 12:32,17/06/2021 12:52,IP Address,For (I feel positively about the vaccines),Never,Most weeks,21,Female,NA,A levels,control,30,3,For,Against
4,1659975795866,08/08/2022 16:23:15,1659975795830,1,08/08/2022 17:23:15,94826,3,task-ig1e,NA,23527539,6895764,NA,complete,NA,62f1384ce8940b0812cb3012,computer,Desktop or Laptop,Windows 10,Chrome 104.0.0.0,1536x864,1536x792,NA,ITT Ratings,2,for,3,NA,ACCEPT,NA,NA,NA,NA,NA,NA,NA,NA,batch3pro,batch3pro,52,2,1,Screen 1,continueButton,response_rating_scale_likert_active,4879.5,NA,NA,Somewhat Disagree,1,0,1,0,NA,NA,NA,NA,1,statements,Worry about side effects,1,17/06/2021 12:41,17/06/2021 12:51,IP Address,For (I feel positively about the vaccines),Rarely,Once or twice a year,32,Male,NA,"Undergraduate degree (BSc, BA)",control,29,1,For,Against
5,1659975801791,08/08/2022 16:23:21,1659975801781,1,08/08/2022 17:23:21,94826,3,task-ig1e,NA,23527539,6895764,NA,complete,NA,62f1384ce8940b0812cb3012,computer,Desktop or Laptop,Windows 10,Chrome 104.0.0.0,1536x864,1536x792,NA,ITT Ratings,2,for,3,NA,ACCEPT,NA,NA,NA,NA,NA,NA,NA,NA,batch3pro,batch3pro,47,3,1,Screen 1,continueButton,response_rating_scale_likert_active,5944.89999999851,NA,NA,Strongly Disagree,1,0,1,0,NA,NA,NA,NA,1,statements,There are other ways to mitigate the impact of the disease and vaccination isn't necessary,1,17/06/2021 12:28,17/06/2021 12:51,IP Address,For (I feel positively about the vaccines),Rarely,Most weeks,41,Male,NA,Doctorate (PhD),control,28,2,For,Against
6,1659975806049,08/08/2022 16:23:26,1659975806036,1,08/08/2022 17:23:26,94826,3,task-ig1e,NA,23527539,6895764,NA,complete,NA,62f1384ce8940b0812cb3012,computer,Desktop or Laptop,Windows 10,Chrome 104.0.0.0,1536x864,1536x792,NA,ITT Ratings,2,for,3,NA,ACCEPT,NA,NA,NA,NA,NA,NA,NA,NA,batch3pro,batch3pro,48,4,1,Screen 1,continueButton,response_rating_scale_likert_active,4246.89999999851,NA,NA,Strongly Disagree,1,0,1,0,NA,NA,NA,NA,1,statements,I think that the vaccine might cause side effects that might be worse than the disease itself and that having a vaccine is not worth the risk,1,17/06/2021 12:28,17/06/2021 12:51,IP Address,For (I feel positively about the vaccines),Rarely,Most weeks,41,Male,NA,Doctorate (PhD),control,28,3,For,Against
7,1659975808772,08/08/2022 16:23:28,1659975808766,1,08/08/2022 17:23:28,94826,3,task-ig1e,NA,23527539,6895764,NA,complete,NA,62f1384ce8940b0812cb3012,computer,Desktop or Laptop,Windows 10,Chrome 104.0.0.0,1536x864,1536x792,NA,ITT Ratings,2,for,3,NA,ACCEPT,NA,NA,NA,NA,NA,NA,NA,NA,batch3pro,batch3pro,42,5,1,Screen 1,continueButton,response_rating_scale_likert_active,2723.10000000149,NA,NA,Disagree,1,0,1,0,NA,NA,NA,NA,1,statements,The vaccine has been rushed.,1,17/06/2021 12:43,17/06/2021 12:51,IP Address,For (I feel positively about the vaccines),Rarely,Rarely,32,Female,NA,"Postgraduate degree (MSc, MA, MPhil)",choice,27,3,For,Against
8,1659975810781,08/08/2022 16:23:30,1659975810761,1,08/08/2022 17:23:30,94826,3,task-ig1e,NA,23527539,6895764,NA,complete,NA,62f1384ce8940b0812cb3012,computer,Desktop or Laptop,Windows 10,Chrome 104.0.0.0,1536x864,1536x792,NA,ITT Ratings,2,for,3,NA,ACCEPT,NA,NA,NA,NA,NA,NA,NA,NA,batch3pro,batch3pro,6,6,1,Screen 1,continueButton,response_rating_scale_likert_active,1988.9000000022352,NA,NA,Strongly Disagree,1,0,1,0,NA,NA,NA,NA,1,statements,I don't believe the vaccine will work,1,17/06/2021 12:39,17/06/2021 12:46,IP Address,For (I feel positively about the vaccines),Most months,Rarely,34,Female,NA,"Undergraduate degree (BSc, BA)",control,21,3,For,Against
9,1659975812809,08/08/2022 16:23:32,1659975812799,1,08/08/2022 17:23:32,94826,3,task-ig1e,NA,23527539,6895764,NA,complete,NA,62f1384ce8940b0812cb3012,computer,Desktop or Laptop,Windows 10,Chrome 104.0.0.0,1536x864,1536x792,NA,ITT Ratings,2,for,3,NA,ACCEPT,NA,NA,NA,NA,NA,NA,NA,NA,batch3pro,batch3pro,24,7,1,Screen 1,continueButton,response_rating_scale_likert_active,2031.10000000149,NA,NA,Disagree,1,0,1,0,NA,NA,NA,NA,1,statements,I do not trust the companies making the vaccines.,1,17/06/2021 12:39,17/06/2021 12:47,IP Address,For (I feel positively about the vaccines),Rarely,A few times a year,22,Male,NA,"Undergraduate degree (BSc, BA)",choice,24,3,For,Against
10,1659975815060,08/08/2022 16:23:35,1659975815045,1,08/08/2022 17:23:35,94826,3,task-ig1e,NA,23527539,6895764,NA,complete,NA,62f1384ce8940b0812cb3012,computer,Desktop or Laptop,Windows 10,Chrome 104.0.0.0,1536x864,1536x792,NA,ITT Ratings,2,for,3,NA,ACCEPT,NA,NA,NA,NA,NA,NA,NA,NA,batch3pro,batch3pro,59,8,1,Screen 1,continueButton,response_rating_scale_likert_active,2239.10000000149,NA,NA,Disagree,1,0,1,0,NA,NA,NA,NA,1,statements,I'm worried I will get long term effects from the vaccine or be effected negatively by it.,1,17/06/2021 12:32,17/06/2021 12:52,IP Address,For (I feel positively about the vaccines),Never,Most weeks,21,Female,NA,A levels,control,30,2,For,Against
11,1659975817077,08/08/2022 16:23:37,1659975817054,1,08/08/2022 17:23:37,94826,3,task-ig1e,NA,23527539,6895764,NA,complete,NA,62f1384ce8940b0812cb3012,computer,Desktop or Laptop,Windows 10,Chrome 104.0.0.0,1536x864,1536x792,NA,ITT Ratings,2,for,3,NA,ACCEPT,NA,NA,NA,NA,NA,NA,NA,NA,batch3pro,batch3pro,22,9,1,Screen 1,continueButton,response_rating_scale_likert_active,2003.10000000149,NA,NA,Strongly Disagree,1,0,1,0,NA,NA,NA,NA,1,statements,I do not think the vaccines are safe.,1,17/06/2021 12:39,17/06/2021 12:47,IP Address,For (I feel positively about the vaccines),Rarely,A few times a year,22,Male,NA,"Undergraduate degree (BSc, BA)",choice,24,1,For,Against
12,1659975820195,08/08/2022 16:23:40,1659975820176,1,08/08/2022 17:23:40,94826,3,task-ig1e,NA,23527539,6895764,NA,complete,NA,62f1384ce8940b0812cb3012,computer,Desktop or Laptop,Windows 10,Chrome 104.0.0.0,1536x864,1536x792,NA,ITT Ratings,2,for,3,NA,ACCEPT,NA,NA,NA,NA,NA,NA,NA,NA,batch3pro,batch3pro,39,10,1,Screen 1,continueButton,response_rating_scale_likert_active,3115,NA,NA,Strongly Disagree,1,0,1,0,NA,NA,NA,NA,1,statements,I am not completely f*cking insane,1,17/06/2021 12:44,17/06/2021 12:49,IP Address,For (I feel positively about the vaccines),A few times a year,Most weeks,29,Male,NA,"Undergraduate degree (BSc, BA)",control,26,3,For,For
13,1659975821837,08/08/2022 16:23:41,1659975821829,1,08/08/2022 17:23:41,94826,3,task-ig1e,NA,23527539,6895764,NA,complete,NA,62f1384ce8940b0812cb3012,computer,Desktop or Laptop,Windows 10,Chrome 104.0.0.0,1536x864,1536x792,NA,ITT Ratings,2,for,3,NA,ACCEPT,NA,NA,NA,NA,NA,NA,NA,NA,batch3pro,batch3pro,58,11,1,Screen 1,continueButton,response_rating_scale_likert_active,1645,NA,NA,Strongly Disagree,1,0,1,0,NA,NA,NA,NA,1,statements,I fear that the vaccine isn't safe.,1,17/06/2021 12:32,17/06/2021 12:52,IP Address,For (I feel positively about the vaccines),Never,Most weeks,21,Female,NA,A levels,control,30,1,For,Against
14,1659975827132,08/08/2022 16:23:47,1659975827117,1,08/08/2022 17:23:47,94826,3,task-ig1e,NA,23527539,6895764,NA,complete,NA,62f1384ce8940b0812cb3012,computer,Desktop or Laptop,Windows 10,Chrome 104.0.0.0,1536x864,1536x792,NA,ITT Ratings,2,for,3,NA,ACCEPT,NA,NA,NA,NA,NA,NA,NA,NA,batch3pro,batch3pro,49,12,1,Screen 1,continueButton,response_rating_scale_likert_active,5281.10000000149,NA,NA,Strongly Agree,1,0,1,0,NA,NA,NA,NA,1,statements,It protects me and other people as well so is our social duty to have one,1,17/06/2021 12:28,17/06/2021 12:51,IP Address,For (I feel positively about the vaccines),Rarely,Most weeks,41,Male,NA,Doctorate (PhD),control,28,1,For,For
15,1659975829690,08/08/2022 16:23:49,1659975829683,1,08/08/2022 17:23:49,94826,3,task-ig1e,NA,23527539,6895764,NA,complete,NA,62f1384ce8940b0812cb3012,computer,Desktop or Laptop,Windows 10,Chrome 104.0.0.0,1536x864,1536x792,NA,ITT Ratings,2,for,3,NA,ACCEPT,NA,NA,NA,NA,NA,NA,NA,NA,batch3pro,batch3pro,12,13,1,Screen 1,continueButton,response_rating_scale_likert_active,2558.5,NA,NA,Strongly Disagree,1,0,1,0,NA,NA,NA,NA,1,statements,Government controls us through vaccines,1,17/06/2021 12:40,17/06/2021 12:47,IP Address,For (I feel positively about the vaccines),Rarely,A few times a year,20,Female,NA,A levels,control,22,3,For,Against
16,1659975832654,08/08/2022 16:23:52,1659975832640,1,08/08/2022 17:23:52,94826,3,task-ig1e,NA,23527539,6895764,NA,complete,NA,62f1384ce8940b0812cb3012,computer,Desktop or Laptop,Windows 10,Chrome 104.0.0.0,1536x864,1536x792,NA,ITT Ratings,2,for,3,NA,ACCEPT,NA,NA,NA,NA,NA,NA,NA,NA,batch3pro,batch3pro,20,14,1,Screen 1,continueButton,response_rating_scale_likert_active,2950.89999999851,NA,NA,Strongly Agree,1,0,1,0,NA,NA,NA,NA,1,statements,I feel it is my duty to ensure I am vaccinated as part of halting ongoing transmission.,1,17/06/2021 12:31,17/06/2021 12:47,IP Address,For (I feel positively about the vaccines),Rarely,Most weeks,36,Male,NA,"Undergraduate degree (BSc, BA)",control,23,2,For,For
17,1659975835373,08/08/2022 16:23:55,1659975835363,1,08/08/2022 17:23:55,94826,3,task-ig1e,NA,23527539,6895764,NA,complete,NA,62f1384ce8940b0812cb3012,computer,Desktop or Laptop,Windows 10,Chrome 104.0.0.0,1536x864,1536x792,NA,ITT Ratings,2,for,3,NA,ACCEPT,NA,NA,NA,NA,NA,NA,NA,NA,batch3pro,batch3pro,46,15,1,Screen 1,continueButton,response_rating_scale_likert_active,2716.29999999702,NA,NA,Strongly Disagree,1,0,1,0,NA,NA,NA,NA,1,statements,The vaccine has been developed too quickly and has not been properly tested over a long period of time.,1,17/06/2021 12:28,17/06/2021 12:51,IP Address,For (I feel positively about the vaccines),Rarely,Most weeks,41,Male,NA,Doctorate (PhD),control,28,1,For,Against
18,1659975838855,08/08/2022 16:23:58,1659975838840,1,08/08/2022 17:23:58,94826,3,task-ig1e,NA,23527539,6895764,NA,complete,NA,62f1384ce8940b0812cb3012,computer,Desktop or Laptop,Windows 10,Chrome 104.0.0.0,1536x864,1536x792,NA,ITT Ratings,2,for,3,NA,ACCEPT,NA,NA,NA,NA,NA,NA,NA,NA,batch3pro,batch3pro,11,16,1,Screen 1,continueButton,response_rating_scale_likert_active,3470.89999999851,NA,NA,Disagree,1,0,1,0,NA,NA,NA,NA,1,statements,Developed in a short timeframe,1,17/06/2021 12:40,17/06/2021 12:47,IP Address,For (I feel positively about the vaccines),Rarely,A few times a year,20,Female,NA,A levels,control,22,2,For,Against
19,1659975843113,08/08/2022 16:24:03,1659975843103,1,08/08/2022 17:24:03,94826,3,task-ig1e,NA,23527539,6895764,NA,complete,NA,62f1384ce8940b0812cb3012,computer,Desktop or Laptop,Windows 10,Chrome 104.0.0.0,1536x864,1536x792,NA,ITT Ratings,2,for,3,NA,ACCEPT,NA,NA,NA,NA,NA,NA,NA,NA,batch3pro,batch3pro,38,17,1,Screen 1,continueButton,response_rating_scale_likert_active,4257.300000000745,NA,NA,Strongly Agree,1,0,1,0,NA,NA,NA,NA,1,statements,It should be a requirement and safeguards public,1,17/06/2021 12:44,17/06/2021 12:49,IP Address,For (I feel positively about the vaccines),A few times a year,Most weeks,29,Male,NA,"Undergraduate degree (BSc, BA)",control,26,2,For,For
20,1659975844354,08/08/2022 16:24:04,1659975844343,1,08/08/2022 17:24:04,94826,3,task-ig1e,NA,23527539,6895764,NA,complete,NA,62f1384ce8940b0812cb3012,computer,Desktop or Laptop,Windows 10,Chrome 104.0.0.0,1536x864,1536x792,NA,ITT Ratings,2,for,3,NA,ACCEPT,NA,NA,NA,NA,NA,NA,NA,NA,batch3pro,batch3pro,31,18,1,Screen 1,continueButton,response_rating_scale_likert_active,1234.199999999255,NA,NA,Strongly Agree,1,0,1,0,NA,NA,NA,NA,1,statements,"To keep myself, friends and families safe",1,17/06/2021 12:27,17/06/2021 12:49,IP Address,For (I feel positively about the vaccines),Rarely,Most weeks,22,Male,NA,"GCSEs,Vocational Training / Apprenticeship",choice,25,1,For,For
21,1659975845434,08/08/2022 16:24:05,1659975845426,1,08/08/2022 17:24:05,94826,3,task-ig1e,NA,23527539,6895764,NA,complete,NA,62f1384ce8940b0812cb3012,computer,Desktop or Laptop,Windows 10,Chrome 104.0.0.0,1536x864,1536x792,NA,ITT Ratings,2,for,3,NA,ACCEPT,NA,NA,NA,NA,NA,NA,NA,NA,batch3pro,batch3pro,45,19,1,Screen 1,continueButton,response_rating_scale_likert_active,1076.4000000022352,NA,NA,Strongly Agree,1,0,1,0,NA,NA,NA,NA,1,statements,It will stop Covid spreading and create herd immunity.,1,17/06/2021 12:43,17/06/2021 12:51,IP Address,For (I feel positively about the vaccines),Rarely,Rarely,32,Female,NA,"Postgraduate degree (MSc, MA, MPhil)",choice,27,3,For,For
22,1659975848093,08/08/2022 16:24:08,1659975848070,1,08/08/2022 17:24:08,94826,3,task-ig1e,NA,23527539,6895764,NA,complete,NA,62f1384ce8940b0812cb3012,computer,Desktop or Laptop,Windows 10,Chrome 104.0.0.0,1536x864,1536x792,NA,ITT Ratings,2,for,3,NA,ACCEPT,NA,NA,NA,NA,NA,NA,NA,NA,batch3pro,batch3pro,41,20,1,Screen 1,continueButton,response_rating_scale_likert_active,2639.199999999255,NA,NA,Strongly Disagree,1,0,1,0,NA,NA,NA,NA,1,statements,The vaccine is not safe.,1,17/06/2021 12:43,17/06/2021 12:51,IP Address,For (I feel positively about the vaccines),Rarely,Rarely,32,Female,NA,"Postgraduate degree (MSc, MA, MPhil)",choice,27,2,For,Against
