Event.Index,UTC.Timestamp,UTC.Date,Local.Timestamp,Local.Timezone,Local.Date,Experiment.ID,Experiment.Version,Tree.Node.Key,Repeat.Key,Schedule.ID,Participant.Private.ID,Participant.Starting.Group,Participant.Status,Participant.Completion.Code,Participant.External.Session.ID,Participant.Device.Type,Participant.Device,Participant.OS,Participant.Browser,Participant.Monitor.Size,Participant.Viewport.Size,Checkpoint,Task.Name,Task.Version,branch.69an,randomiser.8vg2,quota.bqtt,quota.rycs,quota.wtfi,quota.usve,quota.zgic,quota.f3yz,quota.r9vy,quota.tfqq,quota.3dga,quota.dtj6,Spreadsheet,Spreadsheet.Name,Spreadsheet.Row,Trial.Number,Screen.Number,Screen.Name,Zone.Name,Zone.Type,Reaction.Time,Reaction.Onset,Response.Type,Response,Attempt,Correct,Incorrect,Dishonest,X.Coordinate,Y.Coordinate,Timed.Out,randomise_blocks,randomise_trials,display,Arguments,ShowProgressBar,StartDate,EndDate,Status,prolif_check,discuss_1,read_1,age,gender,gender_4_TEXT,edu,condition,ID,arg_ID,Position,Arg_Position
1,1659975755956,08/08/2022 16:22:35,1659975755832,1,08/08/2022 17:22:35,94826,3,task-fbpo,NA,23527526,6895758,NA,complete,NA,62f138210b18c6ea269e732f,computer,Desktop or Laptop,Windows 10,Chrome 103.0.0.0,1280x720,1280x577,NA,ITT Ratings,2,for,10,NA,NA,NA,NA,NA,NA,NA,NA,ACCEPT,NA,batch10pro,NA,NA,BEGIN TASK,NA,NA,NA,NA,NA,NA,NA,NA,NA,0,1,0,NA,NA,NA,NA,NA,NA,NA,NA,NA,NA,NA,NA,NA,NA,NA,NA,NA,NA,NA,NA,NA,NA,NA
2,1659975761442,08/08/2022 16:22:41,1659975761355,1,08/08/2022 17:22:41,94826,3,task-fbpo,NA,23527526,6895758,NA,complete,NA,62f138210b18c6ea269e732f,computer,Desktop or Laptop,Windows 10,Chrome 103.0.0.0,1280x720,1280x577,NA,ITT Ratings,2,for,10,NA,NA,NA,NA,NA,NA,NA,NA,ACCEPT,NA,batch10pro,batch10pro,1,1,1,Screen 1,advancementZone,continue_button,5448.200000047684,NA,NA,NA,NA,0,1,0,NA,NA,NA,NA,NA,instructions,NA,NA,NA,NA,NA,NA,NA,NA,NA,NA,NA,NA,NA,NA,NA,NA,NA
3,1659975771472,08/08/2022 16:22:51,1659975771401,1,08/08/2022 17:22:51,94826,3,task-fbpo,NA,23527526,6895758,NA,complete,NA,62f138210b18c6ea269e732f,computer,Desktop or Laptop,Windows 10,Chrome 103.0.0.0,1280x720,1280x577,NA,ITT Ratings,2,for,10,NA,NA,NA,NA,NA,NA,NA,NA,ACCEPT,NA,batch10pro,batch10pro,18,1,1,Screen 1,continueButton,response_rating_scale_likert_active,9993.5,NA,NA,Somewhat Disagree,1,0,1,0,NA,NA,NA,NA,1,statements,I am easily led by people in the media,1,17/06/2021 12:59,17/06/2021 13:08,IP Address,For (I feel positively about the vaccines),Most weeks,Most days,31,Male,NA,"Undergraduate degree (BSc, BA)",control,93,3,For,Against
4,1659975778060,08/08/2022 16:22:58,1659975777973,1,08/08/2022 17:22:57,94826,3,task-fbpo,NA,23527526,6895758,NA,complete,NA,62f138210b18c6ea269e732f,computer,Desktop or Laptop,Windows 10,Chrome 103.0.0.0,1280x720,1280x577,NA,ITT Ratings,2,for,10,NA,NA,NA,NA,NA,NA,NA,NA,ACCEPT,NA,batch10pro,batch10pro,21,2,1,Screen 1,continueButton,response_rating_scale_likert_active,6532.899999856949,NA,NA,Agree,1,0,1,0,NA,NA,NA,NA,1,statements,I want to be safe from this virus,1,17/06/2021 12:59,17/06/2021 13:08,IP Address,For (I feel positively about the vaccines),Most weeks,Most days,31,Male,NA,"Undergraduate degree (BSc, BA)",control,93,3,For,For
5,1659975780308,08/08/2022 16:23:00,1659975780218,1,08/08/2022 17:23:00,94826,3,task-fbpo,NA,23527526,6895758,NA,complete,NA,62f138210b18c6ea269e732f,computer,Desktop or Laptop,Windows 10,Chrome 103.0.0.0,1280x720,1280x577,NA,ITT Ratings,2,for,10,NA,NA,NA,NA,NA,NA,NA,NA,ACCEPT,NA,batch10pro,batch10pro,35,3,1,Screen 1,continueButton,response_rating_scale_likert_active,2211.100000143051,NA,NA,Strongly Disagree,1,0,1,0,NA,NA,NA,NA,1,statements,the vaccines are full of bad things,1,17/06/2021 12:58,17/06/2021 13:09,IP Address,For (I feel positively about the vaccines),A few times a year,Rarely,28,Female,NA,"Postgraduate degree (MSc, MA, MPhil)",control,96,2,For,Against
6,1659975782181,08/08/2022 16:23:02,1659975782106,1,08/08/2022 17:23:02,94826,3,task-fbpo,NA,23527526,6895758,NA,complete,NA,62f138210b18c6ea269e732f,computer,Desktop or Laptop,Windows 10,Chrome 103.0.0.0,1280x720,1280x577,NA,ITT Ratings,2,for,10,NA,NA,NA,NA,NA,NA,NA,NA,ACCEPT,NA,batch10pro,batch10pro,22,4,1,Screen 1,continueButton,response_rating_scale_likert_active,1866.4000000953672,NA,NA,Disagree,1,0,1,0,NA,NA,NA,NA,1,statements,Not been tested not enough time,1,17/06/2021 13:01,17/06/2021 13:09,IP Address,For (I feel positively about the vaccines),Most weeks,Most weeks,38,Male,NA,A levels,choice,94,1,For,Against
7,1659975783957,08/08/2022 16:23:03,1659975783889,1,08/08/2022 17:23:03,94826,3,task-fbpo,NA,23527526,6895758,NA,complete,NA,62f138210b18c6ea269e732f,computer,Desktop or Laptop,Windows 10,Chrome 103.0.0.0,1280x720,1280x577,NA,ITT Ratings,2,for,10,NA,NA,NA,NA,NA,NA,NA,NA,ACCEPT,NA,batch10pro,batch10pro,24,5,1,Screen 1,continueButton,response_rating_scale_likert_active,1763.5999999046326,NA,NA,Disagree,1,0,1,0,NA,NA,NA,NA,1,statements,I have an immune system already,1,17/06/2021 13:01,17/06/2021 13:09,IP Address,For (I feel positively about the vaccines),Most weeks,Most weeks,38,Male,NA,A levels,choice,94,3,For,Against
8,1659975791786,08/08/2022 16:23:11,1659975791720,1,08/08/2022 17:23:11,94826,3,task-fbpo,NA,23527526,6895758,NA,complete,NA,62f138210b18c6ea269e732f,computer,Desktop or Laptop,Windows 10,Chrome 103.0.0.0,1280x720,1280x577,NA,ITT Ratings,2,for,10,NA,NA,NA,NA,NA,NA,NA,NA,ACCEPT,NA,batch10pro,batch10pro,39,6,1,Screen 1,continueButton,response_rating_scale_likert_active,7788.600000143051,NA,NA,Somewhat Agree,1,0,1,0,NA,NA,NA,NA,1,statements,because they trust science and not conspiracies,1,17/06/2021 12:58,17/06/2021 13:09,IP Address,For (I feel positively about the vaccines),A few times a year,Rarely,28,Female,NA,"Postgraduate degree (MSc, MA, MPhil)",control,96,3,For,For
9,1659975796708,08/08/2022 16:23:16,1659975796631,1,08/08/2022 17:23:16,94826,3,task-fbpo,NA,23527526,6895758,NA,complete,NA,62f138210b18c6ea269e732f,computer,Desktop or Laptop,Windows 10,Chrome 103.0.0.0,1280x720,1280x577,NA,ITT Ratings,2,for,10,NA,NA,NA,NA,NA,NA,NA,NA,ACCEPT,NA,batch10pro,batch10pro,50,7,1,Screen 1,continueButton,response_rating_scale_likert_active,4879.899999856949,NA,NA,Strongly Agree,1,0,1,0,NA,NA,NA,NA,1,statements,"By having the vaccination I am not only protecting myself but also people I come into contact with. Hopefully, the vaccine will stop the spread of the virus.",1,17/06/2021 12:47,17/06/2021 13:09,IP Address,For (I feel positively about the vaccines),Rarely,A few times a year,54,Female,NA,GCSEs,choice,98,2,For,For
10,1659975799041,08/08/2022 16:23:19,1659975798972,1,08/08/2022 17:23:18,94826,3,task-fbpo,NA,23527526,6895758,NA,complete,NA,62f138210b18c6ea269e732f,computer,Desktop or Laptop,Windows 10,Chrome 103.0.0.0,1280x720,1280x577,NA,ITT Ratings,2,for,10,NA,NA,NA,NA,NA,NA,NA,NA,ACCEPT,NA,batch10pro,batch10pro,27,8,1,Screen 1,continueButton,response_rating_scale_likert_active,2307.7999999523163,NA,NA,Agree,1,0,1,0,NA,NA,NA,NA,1,statements,So I don't catch it again,1,17/06/2021 13:01,17/06/2021 13:09,IP Address,For (I feel positively about the vaccines),Most weeks,Most weeks,38,Male,NA,A levels,choice,94,3,For,For
11,1659975802029,08/08/2022 16:23:22,1659975801964,1,08/08/2022 17:23:21,94826,3,task-fbpo,NA,23527526,6895758,NA,complete,NA,62f138210b18c6ea269e732f,computer,Desktop or Laptop,Windows 10,Chrome 103.0.0.0,1280x720,1280x577,NA,ITT Ratings,2,for,10,NA,NA,NA,NA,NA,NA,NA,NA,ACCEPT,NA,batch10pro,batch10pro,28,9,1,Screen 1,continueButton,response_rating_scale_likert_active,2962.899999856949,NA,NA,Strongly Disagree,1,0,1,0,NA,NA,NA,NA,1,statements,The vaccines use new MRNA tech and are therefore unsafe.,1,17/06/2021 13:02,17/06/2021 13:09,IP Address,For (I feel positively about the vaccines),Rarely,Most months,21,Male,NA,A levels,control,95,1,For,Against
12,1659975803728,08/08/2022 16:23:23,1659975803653,1,08/08/2022 17:23:23,94826,3,task-fbpo,NA,23527526,6895758,NA,complete,NA,62f138210b18c6ea269e732f,computer,Desktop or Laptop,Windows 10,Chrome 103.0.0.0,1280x720,1280x577,NA,ITT Ratings,2,for,10,NA,NA,NA,NA,NA,NA,NA,NA,ACCEPT,NA,batch10pro,batch10pro,8,10,1,Screen 1,continueButton,response_rating_scale_likert_active,1658.8999998569489,NA,NA,Agree,1,0,1,0,NA,NA,NA,NA,1,statements,"I care about people and I don't want to die, vaccination is the only option.",1,17/06/2021 12:59,17/06/2021 13:08,IP Address,For (I feel positively about the vaccines),A few times a year,Most weeks,24,Male,NA,"Postgraduate degree (MSc, MA, MPhil)",choice,91,2,For,For
13,1659975805797,08/08/2022 16:23:25,1659975805722,1,08/08/2022 17:23:25,94826,3,task-fbpo,NA,23527526,6895758,NA,complete,NA,62f138210b18c6ea269e732f,computer,Desktop or Laptop,Windows 10,Chrome 103.0.0.0,1280x720,1280x577,NA,ITT Ratings,2,for,10,NA,NA,NA,NA,NA,NA,NA,NA,ACCEPT,NA,batch10pro,batch10pro,53,11,1,Screen 1,continueButton,response_rating_scale_likert_active,2039.7000000476835,NA,NA,Strongly Disagree,1,0,1,0,NA,NA,NA,NA,1,statements,"It has a tracker (or some variation, 5g or something) hidden in it",1,17/06/2021 12:24,17/06/2021 13:09,IP Address,For (I feel positively about the vaccines),Rarely,Most weeks,30,Male,NA,"Postgraduate degree (MSc, MA, MPhil)",control,99,2,For,Against
14,1659975807734,08/08/2022 16:23:27,1659975807660,1,08/08/2022 17:23:27,94826,3,task-fbpo,NA,23527526,6895758,NA,complete,NA,62f138210b18c6ea269e732f,computer,Desktop or Laptop,Windows 10,Chrome 103.0.0.0,1280x720,1280x577,NA,ITT Ratings,2,for,10,NA,NA,NA,NA,NA,NA,NA,NA,ACCEPT,NA,batch10pro,batch10pro,63,12,1,Screen 1,continueButton,response_rating_scale_likert_active,1909,NA,NA,Disagree,1,0,1,0,NA,NA,NA,NA,1,statements,I don't like needles,1,17/06/2021 12:48,17/06/2021 13:10,IP Address,For (I feel positively about the vaccines),Most months,A few times a year,42,Male,NA,Vocational Training / Apprenticeship,control,100,3,For,For
15,1659975809950,08/08/2022 16:23:29,1659975809880,1,08/08/2022 17:23:29,94826,3,task-fbpo,NA,23527526,6895758,NA,complete,NA,62f138210b18c6ea269e732f,computer,Desktop or Laptop,Windows 10,Chrome 103.0.0.0,1280x720,1280x577,NA,ITT Ratings,2,for,10,NA,NA,NA,NA,NA,NA,NA,NA,ACCEPT,NA,batch10pro,batch10pro,20,13,1,Screen 1,continueButton,response_rating_scale_likert_active,2193,NA,NA,Agree,1,0,1,0,NA,NA,NA,NA,1,statements,I want to see family,1,17/06/2021 12:59,17/06/2021 13:08,IP Address,For (I feel positively about the vaccines),Most weeks,Most days,31,Male,NA,"Undergraduate degree (BSc, BA)",control,93,2,For,For
16,1659975810864,08/08/2022 16:23:30,1659975810797,1,08/08/2022 17:23:30,94826,3,task-fbpo,NA,23527526,6895758,NA,complete,NA,62f138210b18c6ea269e732f,computer,Desktop or Laptop,Windows 10,Chrome 103.0.0.0,1280x720,1280x577,NA,ITT Ratings,2,for,10,NA,NA,NA,NA,NA,NA,NA,NA,ACCEPT,NA,batch10pro,batch10pro,59,14,1,Screen 1,continueButton,response_rating_scale_likert_active,887.2000000476837,NA,NA,Agree,1,0,1,0,NA,NA,NA,NA,1,statements,Get life back to as normal as we can.,1,17/06/2021 12:48,17/06/2021 13:10,IP Address,For (I feel positively about the vaccines),Most months,A few times a year,42,Male,NA,Vocational Training / Apprenticeship,control,100,2,For,Against
17,1659975811700,08/08/2022 16:23:31,1659975811624,1,08/08/2022 17:23:31,94826,3,task-fbpo,NA,23527526,6895758,NA,complete,NA,62f138210b18c6ea269e732f,computer,Desktop or Laptop,Windows 10,Chrome 103.0.0.0,1280x720,1280x577,NA,ITT Ratings,2,for,10,NA,NA,NA,NA,NA,NA,NA,NA,ACCEPT,NA,batch10pro,batch10pro,15,15,1,Screen 1,continueButton,response_rating_scale_likert_active,806.7999999523163,NA,NA,Agree,1,0,1,0,NA,NA,NA,NA,1,statements,I want to keep my friends and family safe,1,17/06/2021 12:59,17/06/2021 13:08,IP Address,For (I feel positively about the vaccines),Rarely,A few times a year,23,Female,NA,A levels,choice,92,3,For,For
18,1659975813607,08/08/2022 16:23:33,1659975813524,1,08/08/2022 17:23:33,94826,3,task-fbpo,NA,23527526,6895758,NA,complete,NA,62f138210b18c6ea269e732f,computer,Desktop or Laptop,Windows 10,Chrome 103.0.0.0,1280x720,1280x577,NA,ITT Ratings,2,for,10,NA,NA,NA,NA,NA,NA,NA,NA,ACCEPT,NA,batch10pro,batch10pro,48,16,1,Screen 1,continueButton,response_rating_scale_likert_active,1883.2000000476835,NA,NA,Strongly Disagree,1,0,1,0,NA,NA,NA,NA,1,statements,"Not everyone will have it, so what's the point.",1,17/06/2021 12:47,17/06/2021 13:09,IP Address,For (I feel positively about the vaccines),Rarely,A few times a year,54,Female,NA,GCSEs,choice,98,3,For,Against
19,1659975817189,08/08/2022 16:23:37,1659975817108,1,08/08/2022 17:23:37,94826,3,task-fbpo,NA,23527526,6895758,NA,complete,NA,62f138210b18c6ea269e732f,computer,Desktop or Laptop,Windows 10,Chrome 103.0.0.0,1280x720,1280x577,NA,ITT Ratings,2,for,10,NA,NA,NA,NA,NA,NA,NA,NA,ACCEPT,NA,batch10pro,batch10pro,31,17,1,Screen 1,continueButton,response_rating_scale_likert_active,3553.7999999523163,NA,NA,Agree,1,0,1,0,NA,NA,NA,NA,1,statements,The side effects of COVID are worse,1,17/06/2021 13:02,17/06/2021 13:09,IP Address,For (I feel positively about the vaccines),Rarely,Most months,21,Male,NA,A levels,control,95,1,For,For
20,1659975818716,08/08/2022 16:23:38,1659975818633,1,08/08/2022 17:23:38,94826,3,task-fbpo,NA,23527526,6895758,NA,complete,NA,62f138210b18c6ea269e732f,computer,Desktop or Laptop,Windows 10,Chrome 103.0.0.0,1280x720,1280x577,NA,ITT Ratings,2,for,10,NA,NA,NA,NA,NA,NA,NA,NA,ACCEPT,NA,batch10pro,batch10pro,44,18,1,Screen 1,continueButton,response_rating_scale_likert_active,1495.5999999046326,NA,NA,Agree,1,0,1,0,NA,NA,NA,NA,1,statements,I want to ensure I don't catch it myself,1,17/06/2021 12:46,17/06/2021 13:09,IP Address,For (I feel positively about the vaccines),Most weeks,Most months,33,Male,NA,A levels,control,97,2,For,For
21,1659975822171,08/08/2022 16:23:42,1659975822103,1,08/08/2022 17:23:42,94826,3,task-fbpo,NA,23527526,6895758,NA,complete,NA,62f138210b18c6ea269e732f,computer,Desktop or Laptop,Windows 10,Chrome 103.0.0.0,1280x720,1280x577,NA,ITT Ratings,2,for,10,NA,NA,NA,NA,NA,NA,NA,NA,ACCEPT,NA,batch10pro,batch10pro,5,19,1,Screen 1,continueButton,response_rating_scale_likert_active,3439.5,NA,NA,Strongly Disagree,1,0,1,0,NA,NA,NA,NA,1,statements,"I've heard that the COVID-19 vaccine causes blood clots, I'm young and healthy so COVID wouldn't affect me anyway.",1,17/06/2021 12:59,17/06/2021 13:08,IP Address,For (I feel positively about the vaccines),A few times a year,Most weeks,24,Male,NA,"Postgraduate degree (MSc, MA, MPhil)",choice,91,2,For,Against
22,1659975827846,08/08/2022 16:23:47,1659975827762,1,08/08/2022 17:23:47,94826,3,task-fbpo,NA,23527526,6895758,NA,complete,NA,62f138210b18c6ea269e732f,computer,Desktop or Laptop,Windows 10,Chrome 103.0.0.0,1280x720,1280x577,NA,ITT Ratings,2,for,10,NA,NA,NA,NA,NA,NA,NA,NA,ACCEPT,NA,batch10pro,batch10pro,58,20,1,Screen 1,continueButton,response_rating_scale_likert_active,5630.599999904633,NA,NA,Agree,1,0,1,0,NA,NA,NA,NA,1,statements,The vaccine is safe check out the info before making a decision,1,17/06/2021 12:48,17/06/2021 13:10,IP Address,For (I feel positively about the vaccines),Most months,A few times a year,42,Male,NA,Vocational Training / Apprenticeship,control,100,1,For,Against
23,1659975831275,08/08/2022 16:23:51,1659975831206,1,08/08/2022 17:23:51,94826,3,task-fbpo,NA,23527526,6895758,NA,complete,NA,62f138210b18c6ea269e732f,computer,Desktop or Laptop,Windows 10,Chrome 103.0.0.0,1280x720,1280x577,NA,ITT Ratings,2,for,10,NA,NA,NA,NA,NA,NA,NA,NA,ACCEPT,NA,batch10pro,batch10pro,16,21,1,Screen 1,continueButton,response_rating_scale_likert_active,3417,NA,NA,Strongly Disagree,1,0,1,0,NA,NA,NA,NA,1,statements,They do not trust the science,1,17/06/2021 12:59,17/06/2021 13:08,IP Address,For (I feel positively about the vaccines),Most weeks,Most days,31,Male,NA,"Undergraduate degree (BSc, BA)",control,93,1,For,Against
24,1659975837286,08/08/2022 16:23:57,1659975837204,1,08/08/2022 17:23:57,94826,3,task-fbpo,NA,23527526,6895758,NA,complete,NA,62f138210b18c6ea269e732f,computer,Desktop or Laptop,Windows 10,Chrome 103.0.0.0,1280x720,1280x577,NA,ITT Ratings,2,for,10,NA,NA,NA,NA,NA,NA,NA,NA,ACCEPT,NA,batch10pro,batch10pro,4,22,1,Screen 1,continueButton,response_rating_scale_likert_active,5967.5,NA,NA,Strongly Disagree,1,0,1,0,NA,NA,NA,NA,1,statements,"I don't trust the people who are making the vaccines, vaccines usually take years to develop.",1,17/06/2021 12:59,17/06/2021 13:08,IP Address,For (I feel positively about the vaccines),A few times a year,Most weeks,24,Male,NA,"Postgraduate degree (MSc, MA, MPhil)",choice,91,1,For,Against
25,1659975839746,08/08/2022 16:23:59,1659975839666,1,08/08/2022 17:23:59,94826,3,task-fbpo,NA,23527526,6895758,NA,complete,NA,62f138210b18c6ea269e732f,computer,Desktop or Laptop,Windows 10,Chrome 103.0.0.0,1280x720,1280x577,NA,ITT Ratings,2,for,10,NA,NA,NA,NA,NA,NA,NA,NA,ACCEPT,NA,batch10pro,batch10pro,6,23,1,Screen 1,continueButton,response_rating_scale_likert_active,2431.7999999523163,NA,NA,Strongly Disagree,1,0,1,0,NA,NA,NA,NA,1,statements,"COVID is pretty much just a bad flu, I think I'd be fine if I caught it so why get vaccinated?",1,17/06/2021 12:59,17/06/2021 13:08,IP Address,For (I feel positively about the vaccines),A few times a year,Most weeks,24,Male,NA,"Postgraduate degree (MSc, MA, MPhil)",choice,91,3,For,Against
26,1659975841995,08/08/2022 16:24:01,1659975841917,1,08/08/2022 17:24:01,94826,3,task-fbpo,NA,23527526,6895758,NA,complete,NA,62f138210b18c6ea269e732f,computer,Desktop or Laptop,Windows 10,Chrome 103.0.0.0,1280x720,1280x577,NA,ITT Ratings,2,for,10,NA,NA,NA,NA,NA,NA,NA,NA,ACCEPT,NA,batch10pro,batch10pro,9,24,1,Screen 1,continueButton,response_rating_scale_likert_active,2224,NA,NA,Agree,1,0,1,0,NA,NA,NA,NA,1,statements,I don't want to transmit COVID to my elderly relatives - vaccination seems like the best deterrent.,1,17/06/2021 12:59,17/06/2021 13:08,IP Address,For (I feel positively about the vaccines),A few times a year,Most weeks,24,Male,NA,"Postgraduate degree (MSc, MA, MPhil)",choice,91,3,For,For
27,1659975844455,08/08/2022 16:24:04,1659975844373,1,08/08/2022 17:24:04,94826,3,task-fbpo,NA,23527526,6895758,NA,complete,NA,62f138210b18c6ea269e732f,computer,Desktop or Laptop,Windows 10,Chrome 103.0.0.0,1280x720,1280x577,NA,ITT Ratings,2,for,10,NA,NA,NA,NA,NA,NA,NA,NA,ACCEPT,NA,batch10pro,batch10pro,61,25,1,Screen 1,continueButton,response_rating_scale_likert_active,2435.300000190735,NA,NA,Strongly Disagree,1,0,1,0,NA,NA,NA,NA,1,statements,Don't trust the process has been long enough,1,17/06/2021 12:48,17/06/2021 13:10,IP Address,For (I feel positively about the vaccines),Most months,A few times a year,42,Male,NA,Vocational Training / Apprenticeship,control,100,1,For,For
28,1659975847480,08/08/2022 16:24:07,1659975847407,1,08/08/2022 17:24:07,94826,3,task-fbpo,NA,23527526,6895758,NA,complete,NA,62f138210b18c6ea269e732f,computer,Desktop or Laptop,Windows 10,Chrome 103.0.0.0,1280x720,1280x577,NA,ITT Ratings,2,for,10,NA,NA,NA,NA,NA,NA,NA,NA,ACCEPT,NA,batch10pro,batch10pro,45,26,1,Screen 1,continueButton,response_rating_scale_likert_active,3006.7000000476837,NA,NA,Agree,1,0,1,0,NA,NA,NA,NA,1,statements,The vaccines are reliable and there's no reason not to.,1,17/06/2021 12:46,17/06/2021 13:09,IP Address,For (I feel positively about the vaccines),Most weeks,Most months,33,Male,NA,A levels,control,97,3,For,For
29,1659975849050,08/08/2022 16:24:09,1659975848966,1,08/08/2022 17:24:08,94826,3,task-fbpo,NA,23527526,6895758,NA,complete,NA,62f138210b18c6ea269e732f,computer,Desktop or Laptop,Windows 10,Chrome 103.0.0.0,1280x720,1280x577,NA,ITT Ratings,2,for,10,NA,NA,NA,NA,NA,NA,NA,NA,ACCEPT,NA,batch10pro,batch10pro,34,27,1,Screen 1,continueButton,response_rating_scale_likert_active,1529.8999998569489,NA,NA,Strongly Disagree,1,0,1,0,NA,NA,NA,NA,1,statements,the vaccines were made too quickly,1,17/06/2021 12:58,17/06/2021 13:09,IP Address,For (I feel positively about the vaccines),A few times a year,Rarely,28,Female,NA,"Postgraduate degree (MSc, MA, MPhil)",control,96,1,For,Against
30,1659975850805,08/08/2022 16:24:10,1659975850736,1,08/08/2022 17:24:10,94826,3,task-fbpo,NA,23527526,6895758,NA,complete,NA,62f138210b18c6ea269e732f,computer,Desktop or Laptop,Windows 10,Chrome 103.0.0.0,1280x720,1280x577,NA,ITT Ratings,2,for,10,NA,NA,NA,NA,NA,NA,NA,NA,ACCEPT,NA,batch10pro,batch10pro,29,28,1,Screen 1,continueButton,response_rating_scale_likert_active,1737.2999999523165,NA,NA,Disagree,1,0,1,0,NA,NA,NA,NA,1,statements,The vaccines have bad side effects,1,17/06/2021 13:02,17/06/2021 13:09,IP Address,For (I feel positively about the vaccines),Rarely,Most months,21,Male,NA,A levels,control,95,2,For,Against
31,1659975854924,08/08/2022 16:24:14,1659975854855,1,08/08/2022 17:24:14,94826,3,task-fbpo,NA,23527526,6895758,NA,complete,NA,62f138210b18c6ea269e732f,computer,Desktop or Laptop,Windows 10,Chrome 103.0.0.0,1280x720,1280x577,NA,ITT Ratings,2,for,10,NA,NA,NA,NA,NA,NA,NA,NA,ACCEPT,NA,batch10pro,batch10pro,2,29,1,Screen 1,continueButton,response_rating_scale_likert_active,4089.799999952316,NA,NA,Somewhat Agree,1,0,1,0,NA,NA,NA,NA,1,statements,We would like to check you are reading each argument carefully. Please select 'Somewhat Agree' for this answer,1,NA,NA,NA,NA,NA,NA,NA,NA,NA,NA,NA,NA,check1,NA,NA
32,1659975858630,08/08/2022 16:24:18,1659975858562,1,08/08/2022 17:24:18,94826,3,task-fbpo,NA,23527526,6895758,NA,complete,NA,62f138210b18c6ea269e732f,computer,Desktop or Laptop,Windows 10,Chrome 103.0.0.0,1280x720,1280x577,NA,ITT Ratings,2,for,10,NA,NA,NA,NA,NA,NA,NA,NA,ACCEPT,NA,batch10pro,batch10pro,40,30,1,Screen 1,continueButton,response_rating_scale_likert_active,3678.599999904633,NA,NA,Disagree,1,0,1,0,NA,NA,NA,NA,1,statements,The vaccine is government controlling citizens.,1,17/06/2021 12:46,17/06/2021 13:09,IP Address,For (I feel positively about the vaccines),Most weeks,Most months,33,Male,NA,A levels,control,97,1,For,Against
33,1659975861383,08/08/2022 16:24:21,1659975861312,1,08/08/2022 17:24:21,94826,3,task-fbpo,NA,23527526,6895758,NA,complete,NA,62f138210b18c6ea269e732f,computer,Desktop or Laptop,Windows 10,Chrome 103.0.0.0,1280x720,1280x577,NA,ITT Ratings,2,for,10,NA,NA,NA,NA,NA,NA,NA,NA,ACCEPT,NA,batch10pro,batch10pro,3,31,1,Screen 1,continueButton,response_rating_scale_likert_active,2720.099999904633,NA,NA,Somewhat Disagree,1,0,1,0,NA,NA,NA,NA,1,statements,We would like to check you are reading each argument carefully. Please select 'Somewhat Disagree' for this answer,1,NA,NA,NA,NA,NA,NA,NA,NA,NA,NA,NA,NA,check2,NA,NA
34,1659975863594,08/08/2022 16:24:23,1659975863509,1,08/08/2022 17:24:23,94826,3,task-fbpo,NA,23527526,6895758,NA,complete,NA,62f138210b18c6ea269e732f,computer,Desktop or Laptop,Windows 10,Chrome 103.0.0.0,1280x720,1280x577,NA,ITT Ratings,2,for,10,NA,NA,NA,NA,NA,NA,NA,NA,ACCEPT,NA,batch10pro,batch10pro,19,32,1,Screen 1,continueButton,response_rating_scale_likert_active,2169.300000190735,NA,NA,Strongly Agree,1,0,1,0,NA,NA,NA,NA,1,statements,I want to be able to travel internationally,1,17/06/2021 12:59,17/06/2021 13:08,IP Address,For (I feel positively about the vaccines),Most weeks,Most days,31,Male,NA,"Undergraduate degree (BSc, BA)",control,93,1,For,For
35,1659975866574,08/08/2022 16:24:26,1659975866505,1,08/08/2022 17:24:26,94826,3,task-fbpo,NA,23527526,6895758,NA,complete,NA,62f138210b18c6ea269e732f,computer,Desktop or Laptop,Windows 10,Chrome 103.0.0.0,1280x720,1280x577,NA,ITT Ratings,2,for,10,NA,NA,NA,NA,NA,NA,NA,NA,ACCEPT,NA,batch10pro,batch10pro,52,33,1,Screen 1,continueButton,response_rating_scale_likert_active,2968.100000143051,NA,NA,Strongly Disagree,1,0,1,0,NA,NA,NA,NA,1,statements,"Our bodies will fight it off naturally, we weaken ourselves by having the vaccine just because the government tells us to.",1,17/06/2021 12:24,17/06/2021 13:09,IP Address,For (I feel positively about the vaccines),Rarely,Most weeks,30,Male,NA,"Postgraduate degree (MSc, MA, MPhil)",control,99,1,For,Against
36,1659975868158,08/08/2022 16:24:28,1659975868068,1,08/08/2022 17:24:28,94826,3,task-fbpo,NA,23527526,6895758,NA,complete,NA,62f138210b18c6ea269e732f,computer,Desktop or Laptop,Windows 10,Chrome 103.0.0.0,1280x720,1280x577,NA,ITT Ratings,2,for,10,NA,NA,NA,NA,NA,NA,NA,NA,ACCEPT,NA,batch10pro,batch10pro,25,34,1,Screen 1,continueButton,response_rating_scale_likert_active,1540.1000001430511,NA,NA,Agree,1,0,1,0,NA,NA,NA,NA,1,statements,I need to to go away on holiday,1,17/06/2021 13:01,17/06/2021 13:09,IP Address,For (I feel positively about the vaccines),Most weeks,Most weeks,38,Male,NA,A levels,choice,94,1,For,For
37,1659975871273,08/08/2022 16:24:31,1659975871198,1,08/08/2022 17:24:31,94826,3,task-fbpo,NA,23527526,6895758,NA,complete,NA,62f138210b18c6ea269e732f,computer,Desktop or Laptop,Windows 10,Chrome 103.0.0.0,1280x720,1280x577,NA,ITT Ratings,2,for,10,NA,NA,NA,NA,NA,NA,NA,NA,ACCEPT,NA,batch10pro,batch10pro,23,35,1,Screen 1,continueButton,response_rating_scale_likert_active,3100.600000143051,NA,NA,Somewhat Agree,1,0,1,0,NA,NA,NA,NA,1,statements,I should choose what I want to put in my body,1,17/06/2021 13:01,17/06/2021 13:09,IP Address,For (I feel positively about the vaccines),Most weeks,Most weeks,38,Male,NA,A levels,choice,94,2,For,Against
38,1659975873316,08/08/2022 16:24:33,1659975873237,1,08/08/2022 17:24:33,94826,3,task-fbpo,NA,23527526,6895758,NA,complete,NA,62f138210b18c6ea269e732f,computer,Desktop or Laptop,Windows 10,Chrome 103.0.0.0,1280x720,1280x577,NA,ITT Ratings,2,for,10,NA,NA,NA,NA,NA,NA,NA,NA,ACCEPT,NA,batch10pro,batch10pro,14,36,1,Screen 1,continueButton,response_rating_scale_likert_active,2028.8999998569489,NA,NA,Strongly Agree,1,0,1,0,NA,NA,NA,NA,1,statements,I want to protect myself,1,17/06/2021 12:59,17/06/2021 13:08,IP Address,For (I feel positively about the vaccines),Rarely,A few times a year,23,Female,NA,A levels,choice,92,2,For,For
39,1659975876969,08/08/2022 16:24:36,1659975876889,1,08/08/2022 17:24:36,94826,3,task-fbpo,NA,23527526,6895758,NA,complete,NA,62f138210b18c6ea269e732f,computer,Desktop or Laptop,Windows 10,Chrome 103.0.0.0,1280x720,1280x577,NA,ITT Ratings,2,for,10,NA,NA,NA,NA,NA,NA,NA,NA,ACCEPT,NA,batch10pro,batch10pro,62,37,1,Screen 1,continueButton,response_rating_scale_likert_active,3635.799999952316,NA,NA,Disagree,1,0,1,0,NA,NA,NA,NA,1,statements,The government are scaring people with pumed stats,1,17/06/2021 12:48,17/06/2021 13:10,IP Address,For (I feel positively about the vaccines),Most months,A few times a year,42,Male,NA,Vocational Training / Apprenticeship,control,100,2,For,For
40,1659975878452,08/08/2022 16:24:38,1659975878371,1,08/08/2022 17:24:38,94826,3,task-fbpo,NA,23527526,6895758,NA,complete,NA,62f138210b18c6ea269e732f,computer,Desktop or Laptop,Windows 10,Chrome 103.0.0.0,1280x720,1280x577,NA,ITT Ratings,2,for,10,NA,NA,NA,NA,NA,NA,NA,NA,ACCEPT,NA,batch10pro,batch10pro,26,38,1,Screen 1,continueButton,response_rating_scale_likert_active,1449.8000001907349,NA,NA,Strongly Agree,1,0,1,0,NA,NA,NA,NA,1,statements,I want lockdown to end,1,17/06/2021 13:01,17/06/2021 13:09,IP Address,For (I feel positively about the vaccines),Most weeks,Most weeks,38,Male,NA,A levels,choice,94,2,For,For
41,1659975880044,08/08/2022 16:24:40,1659975879965,1,08/08/2022 17:24:39,94826,3,task-fbpo,NA,23527526,6895758,NA,complete,NA,62f138210b18c6ea269e732f,computer,Desktop or Laptop,Windows 10,Chrome 103.0.0.0,1280x720,1280x577,NA,ITT Ratings,2,for,10,NA,NA,NA,NA,NA,NA,NA,NA,ACCEPT,NA,batch10pro,batch10pro,42,39,1,Screen 1,continueButton,response_rating_scale_likert_active,1567.0999999046326,NA,NA,Strongly Disagree,1,0,1,0,NA,NA,NA,NA,1,statements,Covid is a hoax and a vaccine is pointless as it's a fake disease.,1,17/06/2021 12:46,17/06/2021 13:09,IP Address,For (I feel positively about the vaccines),Most weeks,Most months,33,Male,NA,A levels,control,97,3,For,Against
42,1659975881987,08/08/2022 16:24:41,1659975881901,1,08/08/2022 17:24:41,94826,3,task-fbpo,NA,23527526,6895758,NA,complete,NA,62f138210b18c6ea269e732f,computer,Desktop or Laptop,Windows 10,Chrome 103.0.0.0,1280x720,1280x577,NA,ITT Ratings,2,for,10,NA,NA,NA,NA,NA,NA,NA,NA,ACCEPT,NA,batch10pro,batch10pro,36,40,1,Screen 1,continueButton,response_rating_scale_likert_active,1911.7999999523165,NA,NA,Strongly Disagree,1,0,1,0,NA,NA,NA,NA,1,statements,all vaccines are damaging in the long run,1,17/06/2021 12:58,17/06/2021 13:09,IP Address,For (I feel positively about the vaccines),A few times a year,Rarely,28,Female,NA,"Postgraduate degree (MSc, MA, MPhil)",control,96,3,For,Against
43,1659975883580,08/08/2022 16:24:43,1659975883495,1,08/08/2022 17:24:43,94826,3,task-fbpo,NA,23527526,6895758,NA,complete,NA,62f138210b18c6ea269e732f,computer,Desktop or Laptop,Windows 10,Chrome 103.0.0.0,1280x720,1280x577,NA,ITT Ratings,2,for,10,NA,NA,NA,NA,NA,NA,NA,NA,ACCEPT,NA,batch10pro,batch10pro,55,41,1,Screen 1,continueButton,response_rating_scale_likert_active,1565.3000001907349,NA,NA,Strongly Agree,1,0,1,0,NA,NA,NA,NA,1,statements,It's responsible- it's about protecting others,1,17/06/2021 12:24,17/06/2021 13:09,IP Address,For (I feel positively about the vaccines),Rarely,Most weeks,30,Male,NA,"Postgraduate degree (MSc, MA, MPhil)",control,99,1,For,For
44,1659975885039,08/08/2022 16:24:45,1659975884969,1,08/08/2022 17:24:44,94826,3,task-fbpo,NA,23527526,6895758,NA,complete,NA,62f138210b18c6ea269e732f,computer,Desktop or Laptop,Windows 10,Chrome 103.0.0.0,1280x720,1280x577,NA,ITT Ratings,2,for,10,NA,NA,NA,NA,NA,NA,NA,NA,ACCEPT,NA,batch10pro,batch10pro,43,42,1,Screen 1,continueButton,response_rating_scale_likert_active,1447.6000001430511,NA,NA,Strongly Agree,1,0,1,0,NA,NA,NA,NA,1,statements,We need to protect our vulnerable.,1,17/06/2021 12:46,17/06/2021 13:09,IP Address,For (I feel positively about the vaccines),Most weeks,Most months,33,Male,NA,A levels,control,97,1,For,For
45,1659975886487,08/08/2022 16:24:46,1659975886421,1,08/08/2022 17:24:46,94826,3,task-fbpo,NA,23527526,6895758,NA,complete,NA,62f138210b18c6ea269e732f,computer,Desktop or Laptop,Windows 10,Chrome 103.0.0.0,1280x720,1280x577,NA,ITT Ratings,2,for,10,NA,NA,NA,NA,NA,NA,NA,NA,ACCEPT,NA,batch10pro,batch10pro,12,43,1,Screen 1,continueButton,response_rating_scale_likert_active,1424.2999999523165,NA,NA,Strongly Disagree,1,0,1,0,NA,NA,NA,NA,1,statements,I'm too scared of needles,1,17/06/2021 12:59,17/06/2021 13:08,IP Address,For (I feel positively about the vaccines),Rarely,A few times a year,23,Female,NA,A levels,choice,92,3,For,Against
46,1659975888227,08/08/2022 16:24:48,1659975888145,1,08/08/2022 17:24:48,94826,3,task-fbpo,NA,23527526,6895758,NA,complete,NA,62f138210b18c6ea269e732f,computer,Desktop or Laptop,Windows 10,Chrome 103.0.0.0,1280x720,1280x577,NA,ITT Ratings,2,for,10,NA,NA,NA,NA,NA,NA,NA,NA,ACCEPT,NA,batch10pro,batch10pro,37,44,1,Screen 1,continueButton,response_rating_scale_likert_active,1699.2000000476835,NA,NA,Agree,1,0,1,0,NA,NA,NA,NA,1,statements,one step closer to things going back to normal,1,17/06/2021 12:58,17/06/2021 13:09,IP Address,For (I feel positively about the vaccines),A few times a year,Rarely,28,Female,NA,"Postgraduate degree (MSc, MA, MPhil)",control,96,1,For,For
47,1659975889258,08/08/2022 16:24:49,1659975889190,1,08/08/2022 17:24:49,94826,3,task-fbpo,NA,23527526,6895758,NA,complete,NA,62f138210b18c6ea269e732f,computer,Desktop or Laptop,Windows 10,Chrome 103.0.0.0,1280x720,1280x577,NA,ITT Ratings,2,for,10,NA,NA,NA,NA,NA,NA,NA,NA,ACCEPT,NA,batch10pro,batch10pro,57,45,1,Screen 1,continueButton,response_rating_scale_likert_active,1018.3999998569489,NA,NA,Agree,1,0,1,0,NA,NA,NA,NA,1,statements,for your own health and those arround you,1,17/06/2021 12:24,17/06/2021 13:09,IP Address,For (I feel positively about the vaccines),Rarely,Most weeks,30,Male,NA,"Postgraduate degree (MSc, MA, MPhil)",control,99,3,For,For
48,1659975892199,08/08/2022 16:24:52,1659975892123,1,08/08/2022 17:24:52,94826,3,task-fbpo,NA,23527526,6895758,NA,complete,NA,62f138210b18c6ea269e732f,computer,Desktop or Laptop,Windows 10,Chrome 103.0.0.0,1280x720,1280x577,NA,ITT Ratings,2,for,10,NA,NA,NA,NA,NA,NA,NA,NA,ACCEPT,NA,batch10pro,batch10pro,49,46,1,Screen 1,continueButton,response_rating_scale_likert_active,2907.2999999523163,NA,NA,Agree,1,0,1,0,NA,NA,NA,NA,1,statements,I really want the injection so I will be protected against the virus. I already have the influenza vaccine so I am not worried.,1,17/06/2021 12:47,17/06/2021 13:09,IP Address,For (I feel positively about the vaccines),Rarely,A few times a year,54,Female,NA,GCSEs,choice,98,1,For,For
49,1659975893666,08/08/2022 16:24:53,1659975893591,1,08/08/2022 17:24:53,94826,3,task-fbpo,NA,23527526,6895758,NA,complete,NA,62f138210b18c6ea269e732f,computer,Desktop or Laptop,Windows 10,Chrome 103.0.0.0,1280x720,1280x577,NA,ITT Ratings,2,for,10,NA,NA,NA,NA,NA,NA,NA,NA,ACCEPT,NA,batch10pro,batch10pro,32,47,1,Screen 1,continueButton,response_rating_scale_likert_active,1446,NA,NA,Agree,1,0,1,0,NA,NA,NA,NA,1,statements,I want to protect others,1,17/06/2021 13:02,17/06/2021 13:09,IP Address,For (I feel positively about the vaccines),Rarely,Most months,21,Male,NA,A levels,control,95,2,For,For
50,1659975895639,08/08/2022 16:24:55,1659975895563,1,08/08/2022 17:24:55,94826,3,task-fbpo,NA,23527526,6895758,NA,complete,NA,62f138210b18c6ea269e732f,computer,Desktop or Laptop,Windows 10,Chrome 103.0.0.0,1280x720,1280x577,NA,ITT Ratings,2,for,10,NA,NA,NA,NA,NA,NA,NA,NA,ACCEPT,NA,batch10pro,batch10pro,30,48,1,Screen 1,continueButton,response_rating_scale_likert_active,1945.0999999046328,NA,NA,Strongly Disagree,1,0,1,0,NA,NA,NA,NA,1,statements,The vaccines contain a microchip,1,17/06/2021 13:02,17/06/2021 13:09,IP Address,For (I feel positively about the vaccines),Rarely,Most months,21,Male,NA,A levels,control,95,3,For,Against
51,1659975899861,08/08/2022 16:24:59,1659975899787,1,08/08/2022 17:24:59,94826,3,task-fbpo,NA,23527526,6895758,NA,complete,NA,62f138210b18c6ea269e732f,computer,Desktop or Laptop,Windows 10,Chrome 103.0.0.0,1280x720,1280x577,NA,ITT Ratings,2,for,10,NA,NA,NA,NA,NA,NA,NA,NA,ACCEPT,NA,batch10pro,batch10pro,7,49,1,Screen 1,continueButton,response_rating_scale_likert_active,4204.400000095367,NA,NA,Agree,1,0,1,0,NA,NA,NA,NA,1,statements,"We won't be able to get out of lockdown unless we all get vaccinated, I want to get out soon.",1,17/06/2021 12:59,17/06/2021 13:08,IP Address,For (I feel positively about the vaccines),A few times a year,Most weeks,24,Male,NA,"Postgraduate degree (MSc, MA, MPhil)",choice,91,1,For,For
52,1659975902563,08/08/2022 16:25:02,1659975902485,1,08/08/2022 17:25:02,94826,3,task-fbpo,NA,23527526,6895758,NA,complete,NA,62f138210b18c6ea269e732f,computer,Desktop or Laptop,Windows 10,Chrome 103.0.0.0,1280x720,1280x577,NA,ITT Ratings,2,for,10,NA,NA,NA,NA,NA,NA,NA,NA,ACCEPT,NA,batch10pro,batch10pro,33,50,1,Screen 1,continueButton,response_rating_scale_likert_active,2666.2999999523163,NA,NA,Agree,1,0,1,0,NA,NA,NA,NA,1,statements,I need to due to work,1,17/06/2021 13:02,17/06/2021 13:09,IP Address,For (I feel positively about the vaccines),Rarely,Most months,21,Male,NA,A levels,control,95,3,For,For
53,1659975904807,08/08/2022 16:25:04,1659975904727,1,08/08/2022 17:25:04,94826,3,task-fbpo,NA,23527526,6895758,NA,complete,NA,62f138210b18c6ea269e732f,computer,Desktop or Laptop,Windows 10,Chrome 103.0.0.0,1280x720,1280x577,NA,ITT Ratings,2,for,10,NA,NA,NA,NA,NA,NA,NA,NA,ACCEPT,NA,batch10pro,batch10pro,56,51,1,Screen 1,continueButton,response_rating_scale_likert_active,2213.5,NA,NA,Agree,1,0,1,0,NA,NA,NA,NA,1,statements,less worry in the long run,1,17/06/2021 12:24,17/06/2021 13:09,IP Address,For (I feel positively about the vaccines),Rarely,Most weeks,30,Male,NA,"Postgraduate degree (MSc, MA, MPhil)",control,99,2,For,For
54,1659975907183,08/08/2022 16:25:07,1659975907100,1,08/08/2022 17:25:07,94826,3,task-fbpo,NA,23527526,6895758,NA,complete,NA,62f138210b18c6ea269e732f,computer,Desktop or Laptop,Windows 10,Chrome 103.0.0.0,1280x720,1280x577,NA,ITT Ratings,2,for,10,NA,NA,NA,NA,NA,NA,NA,NA,ACCEPT,NA,batch10pro,batch10pro,47,52,1,Screen 1,continueButton,response_rating_scale_likert_active,2346.199999809265,NA,NA,Strongly Disagree,1,0,1,0,NA,NA,NA,NA,1,statements,There might be serious side affects.,1,17/06/2021 12:47,17/06/2021 13:09,IP Address,For (I feel positively about the vaccines),Rarely,A few times a year,54,Female,NA,GCSEs,choice,98,2,For,Against
55,1659975908211,08/08/2022 16:25:08,1659975908133,1,08/08/2022 17:25:08,94826,3,task-fbpo,NA,23527526,6895758,NA,complete,NA,62f138210b18c6ea269e732f,computer,Desktop or Laptop,Windows 10,Chrome 103.0.0.0,1280x720,1280x577,NA,ITT Ratings,2,for,10,NA,NA,NA,NA,NA,NA,NA,NA,ACCEPT,NA,batch10pro,batch10pro,10,53,1,Screen 1,continueButton,response_rating_scale_likert_active,1008.7999999523164,NA,NA,Strongly Disagree,1,0,1,0,NA,NA,NA,NA,1,statements,I don't trust what's in the vaccine,1,17/06/2021 12:59,17/06/2021 13:08,IP Address,For (I feel positively about the vaccines),Rarely,A few times a year,23,Female,NA,A levels,choice,92,1,For,Against
56,1659975911504,08/08/2022 16:25:11,1659975911431,1,08/08/2022 17:25:11,94826,3,task-fbpo,NA,23527526,6895758,NA,complete,NA,62f138210b18c6ea269e732f,computer,Desktop or Laptop,Windows 10,Chrome 103.0.0.0,1280x720,1280x577,NA,ITT Ratings,2,for,10,NA,NA,NA,NA,NA,NA,NA,NA,ACCEPT,NA,batch10pro,batch10pro,51,54,1,Screen 1,continueButton,response_rating_scale_likert_active,3272.599999904633,NA,NA,Agree,1,0,1,0,NA,NA,NA,NA,1,statements,"Other vaccination programmes have been successful in eradicating illnesses, so why should this be any different. Having the vaccine gives us the best chance of getting back to normal.",1,17/06/2021 12:47,17/06/2021 13:09,IP Address,For (I feel positively about the vaccines),Rarely,A few times a year,54,Female,NA,GCSEs,choice,98,3,For,For
57,1659975916178,08/08/2022 16:25:16,1659975916104,1,08/08/2022 17:25:16,94826,3,task-fbpo,NA,23527526,6895758,NA,complete,NA,62f138210b18c6ea269e732f,computer,Desktop or Laptop,Windows 10,Chrome 103.0.0.0,1280x720,1280x577,NA,ITT Ratings,2,for,10,NA,NA,NA,NA,NA,NA,NA,NA,ACCEPT,NA,batch10pro,batch10pro,54,55,1,Screen 1,continueButton,response_rating_scale_likert_active,4649.299999952316,NA,NA,Disagree,1,0,1,0,NA,NA,NA,NA,1,statements,"We dont know what the long term effects of taking it could be, like the ebola vaccine",1,17/06/2021 12:24,17/06/2021 13:09,IP Address,For (I feel positively about the vaccines),Rarely,Most weeks,30,Male,NA,"Postgraduate degree (MSc, MA, MPhil)",control,99,3,For,Against
58,1659975917536,08/08/2022 16:25:17,1659975917450,1,08/08/2022 17:25:17,94826,3,task-fbpo,NA,23527526,6895758,NA,complete,NA,62f138210b18c6ea269e732f,computer,Desktop or Laptop,Windows 10,Chrome 103.0.0.0,1280x720,1280x577,NA,ITT Ratings,2,for,10,NA,NA,NA,NA,NA,NA,NA,NA,ACCEPT,NA,batch10pro,batch10pro,13,56,1,Screen 1,continueButton,response_rating_scale_likert_active,1317.1000001430511,NA,NA,Strongly Agree,1,0,1,0,NA,NA,NA,NA,1,statements,I want life to continue like normal,1,17/06/2021 12:59,17/06/2021 13:08,IP Address,For (I feel positively about the vaccines),Rarely,A few times a year,23,Female,NA,A levels,choice,92,1,For,For
59,1659975919425,08/08/2022 16:25:19,1659975919320,1,08/08/2022 17:25:19,94826,3,task-fbpo,NA,23527526,6895758,NA,complete,NA,62f138210b18c6ea269e732f,computer,Desktop or Laptop,Windows 10,Chrome 103.0.0.0,1280x720,1280x577,NA,ITT Ratings,2,for,10,NA,NA,NA,NA,NA,NA,NA,NA,ACCEPT,NA,batch10pro,batch10pro,41,57,1,Screen 1,continueButton,response_rating_scale_likert_active,1838.5,NA,NA,Disagree,1,0,1,0,NA,NA,NA,NA,1,statements,I'm scared of needles so I can't face it.,1,17/06/2021 12:46,17/06/2021 13:09,IP Address,For (I feel positively about the vaccines),Most weeks,Most months,33,Male,NA,A levels,control,97,2,For,Against
60,1659975921193,08/08/2022 16:25:21,1659975921113,1,08/08/2022 17:25:21,94826,3,task-fbpo,NA,23527526,6895758,NA,complete,NA,62f138210b18c6ea269e732f,computer,Desktop or Laptop,Windows 10,Chrome 103.0.0.0,1280x720,1280x577,NA,ITT Ratings,2,for,10,NA,NA,NA,NA,NA,NA,NA,NA,ACCEPT,NA,batch10pro,batch10pro,46,58,1,Screen 1,continueButton,response_rating_scale_likert_active,1763,NA,NA,Strongly Disagree,1,0,1,0,NA,NA,NA,NA,1,statements,It's been rushed through so it's not safe.,1,17/06/2021 12:47,17/06/2021 13:09,IP Address,For (I feel positively about the vaccines),Rarely,A few times a year,54,Female,NA,GCSEs,choice,98,1,For,Against
61,1659975922960,08/08/2022 16:25:22,1659975922883,1,08/08/2022 17:25:22,94826,3,task-fbpo,NA,23527526,6895758,NA,complete,NA,62f138210b18c6ea269e732f,computer,Desktop or Laptop,Windows 10,Chrome 103.0.0.0,1280x720,1280x577,NA,ITT Ratings,2,for,10,NA,NA,NA,NA,NA,NA,NA,NA,ACCEPT,NA,batch10pro,batch10pro,60,59,1,Screen 1,continueButton,response_rating_scale_likert_active,1745.0999999046326,NA,NA,Agree,1,0,1,0,NA,NA,NA,NA,1,statements,Help save more lives.,1,17/06/2021 12:48,17/06/2021 13:10,IP Address,For (I feel positively about the vaccines),Most months,A few times a year,42,Male,NA,Vocational Training / Apprenticeship,control,100,3,For,Against
62,1659975925567,08/08/2022 16:25:25,1659975925493,1,08/08/2022 17:25:25,94826,3,task-fbpo,NA,23527526,6895758,NA,complete,NA,62f138210b18c6ea269e732f,computer,Desktop or Laptop,Windows 10,Chrome 103.0.0.0,1280x720,1280x577,NA,ITT Ratings,2,for,10,NA,NA,NA,NA,NA,NA,NA,NA,ACCEPT,NA,batch10pro,batch10pro,11,60,1,Screen 1,continueButton,response_rating_scale_likert_active,2580,NA,NA,Disagree,1,0,1,0,NA,NA,NA,NA,1,statements,I don't think they are effective,1,17/06/2021 12:59,17/06/2021 13:08,IP Address,For (I feel positively about the vaccines),Rarely,A few times a year,23,Female,NA,A levels,choice,92,2,For,Against
63,1659975927505,08/08/2022 16:25:27,1659975927427,1,08/08/2022 17:25:27,94826,3,task-fbpo,NA,23527526,6895758,NA,complete,NA,62f138210b18c6ea269e732f,computer,Desktop or Laptop,Windows 10,Chrome 103.0.0.0,1280x720,1280x577,NA,ITT Ratings,2,for,10,NA,NA,NA,NA,NA,NA,NA,NA,ACCEPT,NA,batch10pro,batch10pro,17,61,1,Screen 1,continueButton,response_rating_scale_likert_active,1911.9000000953672,NA,NA,Somewhat Disagree,1,0,1,0,NA,NA,NA,NA,1,statements,I have medical concerns,1,17/06/2021 12:59,17/06/2021 13:08,IP Address,For (I feel positively about the vaccines),Most weeks,Most days,31,Male,NA,"Undergraduate degree (BSc, BA)",control,93,2,For,Against
64,1659975933123,08/08/2022 16:25:33,1659975933051,1,08/08/2022 17:25:33,94826,3,task-fbpo,NA,23527526,6895758,NA,complete,NA,62f138210b18c6ea269e732f,computer,Desktop or Laptop,Windows 10,Chrome 103.0.0.0,1280x720,1280x577,NA,ITT Ratings,2,for,10,NA,NA,NA,NA,NA,NA,NA,NA,ACCEPT,NA,batch10pro,batch10pro,38,62,1,Screen 1,continueButton,response_rating_scale_likert_active,5601.5,NA,NA,Strongly Agree,1,0,1,0,NA,NA,NA,NA,1,statements,to keep those they loved who may be more at risk safe,1,17/06/2021 12:58,17/06/2021 13:09,IP Address,For (I feel positively about the vaccines),A few times a year,Rarely,28,Female,NA,"Postgraduate degree (MSc, MA, MPhil)",control,96,2,For,For
65,1659975933182,08/08/2022 16:25:33,1659975933063,1,08/08/2022 17:25:33,94826,3,task-fbpo,NA,23527526,6895758,NA,complete,NA,62f138210b18c6ea269e732f,computer,Desktop or Laptop,Windows 10,Chrome 103.0.0.0,1280x720,1280x577,NA,ITT Ratings,2,for,10,NA,NA,NA,NA,NA,NA,NA,NA,ACCEPT,NA,batch10pro,NA,NA,END TASK,NA,NA,NA,NA,177231,NA,NA,NA,NA,0,1,0,NA,NA,NA,NA,NA,NA,NA,NA,NA,NA,NA,NA,NA,NA,NA,NA,NA,NA,NA,NA,NA,NA,NA
1,1659975765287,08/08/2022 16:22:45,1659975776494,1,08/08/2022 17:22:56,94826,3,task-fbpo,NA,23527533,6895761,NA,complete,NA,62f1383acf2b978d07df468a,computer,Desktop or Laptop,Windows 10,Chrome 103.0.0.0,1280x720,1163x554,NA,ITT Ratings,2,for,10,NA,NA,NA,NA,NA,NA,NA,NA,ACCEPT,NA,batch10pro,NA,NA,BEGIN TASK,NA,NA,NA,NA,NA,NA,NA,NA,NA,0,1,0,NA,NA,NA,NA,NA,NA,NA,NA,NA,NA,NA,NA,NA,NA,NA,NA,NA,NA,NA,NA,NA,NA,NA
2,1659975770383,08/08/2022 16:22:50,1659975781579,1,08/08/2022 17:23:01,94826,3,task-fbpo,NA,23527533,6895761,NA,complete,NA,62f1383acf2b978d07df468a,computer,Desktop or Laptop,Windows 10,Chrome 103.0.0.0,1280x720,1163x554,NA,ITT Ratings,2,for,10,NA,NA,NA,NA,NA,NA,NA,NA,ACCEPT,NA,batch10pro,batch10pro,1,1,1,Screen 1,advancementZone,continue_button,5022.599999904633,NA,NA,NA,NA,0,1,0,NA,NA,NA,NA,NA,instructions,NA,NA,NA,NA,NA,NA,NA,NA,NA,NA,NA,NA,NA,NA,NA,NA,NA
3,1659975781936,08/08/2022 16:23:01,1659975793140,1,08/08/2022 17:23:13,94826,3,task-fbpo,NA,23527533,6895761,NA,complete,NA,62f1383acf2b978d07df468a,computer,Desktop or Laptop,Windows 10,Chrome 103.0.0.0,1280x720,1163x554,NA,ITT Ratings,2,for,10,NA,NA,NA,NA,NA,NA,NA,NA,ACCEPT,NA,batch10pro,batch10pro,58,1,1,Screen 1,continueButton,response_rating_scale_likert_active,11537.800000190737,NA,NA,Agree,1,0,1,0,NA,NA,NA,NA,1,statements,The vaccine is safe check out the info before making a decision,1,17/06/2021 12:48,17/06/2021 13:10,IP Address,For (I feel positively about the vaccines),Most months,A few times a year,42,Male,NA,Vocational Training / Apprenticeship,control,100,1,For,Against
4,1659975787500,08/08/2022 16:23:07,1659975798782,1,08/08/2022 17:23:18,94826,3,task-fbpo,NA,23527533,6895761,NA,complete,NA,62f1383acf2b978d07df468a,computer,Desktop or Laptop,Windows 10,Chrome 103.0.0.0,1280x720,1163x554,NA,ITT Ratings,2,for,10,NA,NA,NA,NA,NA,NA,NA,NA,ACCEPT,NA,batch10pro,batch10pro,18,2,1,Screen 1,continueButton,response_rating_scale_likert_active,5623.5,NA,NA,Somewhat Disagree,1,0,1,0,NA,NA,NA,NA,1,statements,I am easily led by people in the media,1,17/06/2021 12:59,17/06/2021 13:08,IP Address,For (I feel positively about the vaccines),Most weeks,Most days,31,Male,NA,"Undergraduate degree (BSc, BA)",control,93,3,For,Against
5,1659975794033,08/08/2022 16:23:14,1659975805318,1,08/08/2022 17:23:25,94826,3,task-fbpo,NA,23527533,6895761,NA,complete,NA,62f1383acf2b978d07df468a,computer,Desktop or Laptop,Windows 10,Chrome 103.0.0.0,1280x720,1163x554,NA,ITT Ratings,2,for,10,NA,NA,NA,NA,NA,NA,NA,NA,ACCEPT,NA,batch10pro,batch10pro,29,3,1,Screen 1,continueButton,response_rating_scale_likert_active,6522.700000047684,NA,NA,Somewhat Agree,1,0,1,0,NA,NA,NA,NA,1,statements,The vaccines have bad side effects,1,17/06/2021 13:02,17/06/2021 13:09,IP Address,For (I feel positively about the vaccines),Rarely,Most months,21,Male,NA,A levels,control,95,2,For,Against
6,1659975799811,08/08/2022 16:23:19,1659975811031,1,08/08/2022 17:23:31,94826,3,task-fbpo,NA,23527533,6895761,NA,complete,NA,62f1383acf2b978d07df468a,computer,Desktop or Laptop,Windows 10,Chrome 103.0.0.0,1280x720,1163x554,NA,ITT Ratings,2,for,10,NA,NA,NA,NA,NA,NA,NA,NA,ACCEPT,NA,batch10pro,batch10pro,50,4,1,Screen 1,continueButton,response_rating_scale_likert_active,5697.899999856949,NA,NA,Agree,1,0,1,0,NA,NA,NA,NA,1,statements,"By having the vaccination I am not only protecting myself but also people I come into contact with. Hopefully, the vaccine will stop the spread of the virus.",1,17/06/2021 12:47,17/06/2021 13:09,IP Address,For (I feel positively about the vaccines),Rarely,A few times a year,54,Female,NA,GCSEs,choice,98,2,For,For
7,1659975806682,08/08/2022 16:23:26,1659975817931,1,08/08/2022 17:23:37,94826,3,task-fbpo,NA,23527533,6895761,NA,complete,NA,62f1383acf2b978d07df468a,computer,Desktop or Laptop,Windows 10,Chrome 103.0.0.0,1280x720,1163x554,NA,ITT Ratings,2,for,10,NA,NA,NA,NA,NA,NA,NA,NA,ACCEPT,NA,batch10pro,batch10pro,47,5,1,Screen 1,continueButton,response_rating_scale_likert_active,6886.399999856949,NA,NA,Somewhat Disagree,1,0,1,0,NA,NA,NA,NA,1,statements,There might be serious side affects.,1,17/06/2021 12:47,17/06/2021 13:09,IP Address,For (I feel positively about the vaccines),Rarely,A few times a year,54,Female,NA,GCSEs,choice,98,2,For,Against
8,1659975810104,08/08/2022 16:23:30,1659975821308,1,08/08/2022 17:23:41,94826,3,task-fbpo,NA,23527533,6895761,NA,complete,NA,62f1383acf2b978d07df468a,computer,Desktop or Laptop,Windows 10,Chrome 103.0.0.0,1280x720,1163x554,NA,ITT Ratings,2,for,10,NA,NA,NA,NA,NA,NA,NA,NA,ACCEPT,NA,batch10pro,batch10pro,56,6,1,Screen 1,continueButton,response_rating_scale_likert_active,3360.2999999523163,NA,NA,Somewhat Agree,1,0,1,0,NA,NA,NA,NA,1,statements,less worry in the long run,1,17/06/2021 12:24,17/06/2021 13:09,IP Address,For (I feel positively about the vaccines),Rarely,Most weeks,30,Male,NA,"Postgraduate degree (MSc, MA, MPhil)",control,99,2,For,For
9,1659975811346,08/08/2022 16:23:31,1659975822631,1,08/08/2022 17:23:42,94826,3,task-fbpo,NA,23527533,6895761,NA,complete,NA,62f1383acf2b978d07df468a,computer,Desktop or Laptop,Windows 10,Chrome 103.0.0.0,1280x720,1163x554,NA,ITT Ratings,2,for,10,NA,NA,NA,NA,NA,NA,NA,NA,ACCEPT,NA,batch10pro,batch10pro,14,7,1,Screen 1,continueButton,response_rating_scale_likert_active,1308.7999999523165,NA,NA,Somewhat Agree,1,0,1,0,NA,NA,NA,NA,1,statements,I want to protect myself,1,17/06/2021 12:59,17/06/2021 13:08,IP Address,For (I feel positively about the vaccines),Rarely,A few times a year,23,Female,NA,A levels,choice,92,2,For,For
10,1659975812826,08/08/2022 16:23:32,1659975824112,1,08/08/2022 17:23:44,94826,3,task-fbpo,NA,23527533,6895761,NA,complete,NA,62f1383acf2b978d07df468a,computer,Desktop or Laptop,Windows 10,Chrome 103.0.0.0,1280x720,1163x554,NA,ITT Ratings,2,for,10,NA,NA,NA,NA,NA,NA,NA,NA,ACCEPT,NA,batch10pro,batch10pro,37,8,1,Screen 1,continueButton,response_rating_scale_likert_active,1468.6999998092651,NA,NA,Somewhat Agree,1,0,1,0,NA,NA,NA,NA,1,statements,one step closer to things going back to normal,1,17/06/2021 12:58,17/06/2021 13:09,IP Address,For (I feel positively about the vaccines),A few times a year,Rarely,28,Female,NA,"Postgraduate degree (MSc, MA, MPhil)",control,96,1,For,For
11,1659975816547,08/08/2022 16:23:36,1659975827822,1,08/08/2022 17:23:47,94826,3,task-fbpo,NA,23527533,6895761,NA,complete,NA,62f1383acf2b978d07df468a,computer,Desktop or Laptop,Windows 10,Chrome 103.0.0.0,1280x720,1163x554,NA,ITT Ratings,2,for,10,NA,NA,NA,NA,NA,NA,NA,NA,ACCEPT,NA,batch10pro,batch10pro,7,9,1,Screen 1,continueButton,response_rating_scale_likert_active,3693.5,NA,NA,Somewhat Agree,1,0,1,0,NA,NA,NA,NA,1,statements,"We won't be able to get out of lockdown unless we all get vaccinated, I want to get out soon.",1,17/06/2021 12:59,17/06/2021 13:08,IP Address,For (I feel positively about the vaccines),A few times a year,Most weeks,24,Male,NA,"Postgraduate degree (MSc, MA, MPhil)",choice,91,1,For,For
12,1659975818380,08/08/2022 16:23:38,1659975829510,1,08/08/2022 17:23:49,94826,3,task-fbpo,NA,23527533,6895761,NA,complete,NA,62f1383acf2b978d07df468a,computer,Desktop or Laptop,Windows 10,Chrome 103.0.0.0,1280x720,1163x554,NA,ITT Ratings,2,for,10,NA,NA,NA,NA,NA,NA,NA,NA,ACCEPT,NA,batch10pro,batch10pro,26,10,1,Screen 1,continueButton,response_rating_scale_likert_active,1675.7000000476835,NA,NA,Somewhat Agree,1,0,1,0,NA,NA,NA,NA,1,statements,I want lockdown to end,1,17/06/2021 13:01,17/06/2021 13:09,IP Address,For (I feel positively about the vaccines),Most weeks,Most weeks,38,Male,NA,A levels,choice,94,2,For,For
13,1659975820856,08/08/2022 16:23:40,1659975832128,1,08/08/2022 17:23:52,94826,3,task-fbpo,NA,23527533,6895761,NA,complete,NA,62f1383acf2b978d07df468a,computer,Desktop or Laptop,Windows 10,Chrome 103.0.0.0,1280x720,1163x554,NA,ITT Ratings,2,for,10,NA,NA,NA,NA,NA,NA,NA,NA,ACCEPT,NA,batch10pro,batch10pro,34,11,1,Screen 1,continueButton,response_rating_scale_likert_active,2606,NA,NA,Neither Agree nor Disagree,1,0,1,0,NA,NA,NA,NA,1,statements,the vaccines were made too quickly,1,17/06/2021 12:58,17/06/2021 13:09,IP Address,For (I feel positively about the vaccines),A few times a year,Rarely,28,Female,NA,"Postgraduate degree (MSc, MA, MPhil)",control,96,1,For,Against
14,1659975822464,08/08/2022 16:23:42,1659975833738,1,08/08/2022 17:23:53,94826,3,task-fbpo,NA,23527533,6895761,NA,complete,NA,62f1383acf2b978d07df468a,computer,Desktop or Laptop,Windows 10,Chrome 103.0.0.0,1280x720,1163x554,NA,ITT Ratings,2,for,10,NA,NA,NA,NA,NA,NA,NA,NA,ACCEPT,NA,batch10pro,batch10pro,61,12,1,Screen 1,continueButton,response_rating_scale_likert_active,1597.2999999523165,NA,NA,Neither Agree nor Disagree,1,0,1,0,NA,NA,NA,NA,1,statements,Don't trust the process has been long enough,1,17/06/2021 12:48,17/06/2021 13:10,IP Address,For (I feel positively about the vaccines),Most months,A few times a year,42,Male,NA,Vocational Training / Apprenticeship,control,100,1,For,For
15,1659975825673,08/08/2022 16:23:45,1659975836949,1,08/08/2022 17:23:56,94826,3,task-fbpo,NA,23527533,6895761,NA,complete,NA,62f1383acf2b978d07df468a,computer,Desktop or Laptop,Windows 10,Chrome 103.0.0.0,1280x720,1163x554,NA,ITT Ratings,2,for,10,NA,NA,NA,NA,NA,NA,NA,NA,ACCEPT,NA,batch10pro,batch10pro,19,13,1,Screen 1,continueButton,response_rating_scale_likert_active,3199.599999904633,NA,NA,Agree,1,0,1,0,NA,NA,NA,NA,1,statements,I want to be able to travel internationally,1,17/06/2021 12:59,17/06/2021 13:08,IP Address,For (I feel positively about the vaccines),Most weeks,Most days,31,Male,NA,"Undergraduate degree (BSc, BA)",control,93,1,For,For
16,1659975832547,08/08/2022 16:23:52,1659975843765,1,08/08/2022 17:24:03,94826,3,task-fbpo,NA,23527533,6895761,NA,complete,NA,62f1383acf2b978d07df468a,computer,Desktop or Laptop,Windows 10,Chrome 103.0.0.0,1280x720,1163x554,NA,ITT Ratings,2,for,10,NA,NA,NA,NA,NA,NA,NA,NA,ACCEPT,NA,batch10pro,batch10pro,6,14,1,Screen 1,continueButton,response_rating_scale_likert_active,6802.799999952316,NA,NA,Somewhat Disagree,1,0,1,0,NA,NA,NA,NA,1,statements,"COVID is pretty much just a bad flu, I think I'd be fine if I caught it so why get vaccinated?",1,17/06/2021 12:59,17/06/2021 13:08,IP Address,For (I feel positively about the vaccines),A few times a year,Most weeks,24,Male,NA,"Postgraduate degree (MSc, MA, MPhil)",choice,91,3,For,Against
17,1659975836337,08/08/2022 16:23:56,1659975847610,1,08/08/2022 17:24:07,94826,3,task-fbpo,NA,23527533,6895761,NA,complete,NA,62f1383acf2b978d07df468a,computer,Desktop or Laptop,Windows 10,Chrome 103.0.0.0,1280x720,1163x554,NA,ITT Ratings,2,for,10,NA,NA,NA,NA,NA,NA,NA,NA,ACCEPT,NA,batch10pro,batch10pro,5,15,1,Screen 1,continueButton,response_rating_scale_likert_active,3828.700000047684,NA,NA,Somewhat Disagree,1,0,1,0,NA,NA,NA,NA,1,statements,"I've heard that the COVID-19 vaccine causes blood clots, I'm young and healthy so COVID wouldn't affect me anyway.",1,17/06/2021 12:59,17/06/2021 13:08,IP Address,For (I feel positively about the vaccines),A few times a year,Most weeks,24,Male,NA,"Postgraduate degree (MSc, MA, MPhil)",choice,91,2,For,Against
18,1659975842050,08/08/2022 16:24:02,1659975853254,1,08/08/2022 17:24:13,94826,3,task-fbpo,NA,23527533,6895761,NA,complete,NA,62f1383acf2b978d07df468a,computer,Desktop or Laptop,Windows 10,Chrome 103.0.0.0,1280x720,1163x554,NA,ITT Ratings,2,for,10,NA,NA,NA,NA,NA,NA,NA,NA,ACCEPT,NA,batch10pro,batch10pro,4,16,1,Screen 1,continueButton,response_rating_scale_likert_active,5631.700000047684,NA,NA,Neither Agree nor Disagree,1,0,1,0,NA,NA,NA,NA,1,statements,"I don't trust the people who are making the vaccines, vaccines usually take years to develop.",1,17/06/2021 12:59,17/06/2021 13:08,IP Address,For (I feel positively about the vaccines),A few times a year,Most weeks,24,Male,NA,"Postgraduate degree (MSc, MA, MPhil)",choice,91,1,For,Against
19,1659975845408,08/08/2022 16:24:05,1659975856679,1,08/08/2022 17:24:16,94826,3,task-fbpo,NA,23527533,6895761,NA,complete,NA,62f1383acf2b978d07df468a,computer,Desktop or Laptop,Windows 10,Chrome 103.0.0.0,1280x720,1163x554,NA,ITT Ratings,2,for,10,NA,NA,NA,NA,NA,NA,NA,NA,ACCEPT,NA,batch10pro,batch10pro,38,17,1,Screen 1,continueButton,response_rating_scale_likert_active,3412.2000000476837,NA,NA,Somewhat Agree,1,0,1,0,NA,NA,NA,NA,1,statements,to keep those they loved who may be more at risk safe,1,17/06/2021 12:58,17/06/2021 13:09,IP Address,For (I feel positively about the vaccines),A few times a year,Rarely,28,Female,NA,"Postgraduate degree (MSc, MA, MPhil)",control,96,2,For,For
20,1659975846529,08/08/2022 16:24:06,1659975857798,1,08/08/2022 17:24:17,94826,3,task-fbpo,NA,23527533,6895761,NA,complete,NA,62f1383acf2b978d07df468a,computer,Desktop or Laptop,Windows 10,Chrome 103.0.0.0,1280x720,1163x554,NA,ITT Ratings,2,for,10,NA,NA,NA,NA,NA,NA,NA,NA,ACCEPT,NA,batch10pro,batch10pro,59,18,1,Screen 1,continueButton,response_rating_scale_likert_active,1107.9000000953674,NA,NA,Somewhat Agree,1,0,1,0,NA,NA,NA,NA,1,statements,Get life back to as normal as we can.,1,17/06/2021 12:48,17/06/2021 13:10,IP Address,For (I feel positively about the vaccines),Most months,A few times a year,42,Male,NA,Vocational Training / Apprenticeship,control,100,2,For,Against
21,1659975848154,08/08/2022 16:24:08,1659975859270,1,08/08/2022 17:24:19,94826,3,task-fbpo,NA,23527533,6895761,NA,complete,NA,62f1383acf2b978d07df468a,computer,Desktop or Laptop,Windows 10,Chrome 103.0.0.0,1280x720,1163x554,NA,ITT Ratings,2,for,10,NA,NA,NA,NA,NA,NA,NA,NA,ACCEPT,NA,batch10pro,batch10pro,25,19,1,Screen 1,continueButton,response_rating_scale_likert_active,1459.4000000953674,NA,NA,Somewhat Agree,1,0,1,0,NA,NA,NA,NA,1,statements,I need to to go away on holiday,1,17/06/2021 13:01,17/06/2021 13:09,IP Address,For (I feel positively about the vaccines),Most weeks,Most weeks,38,Male,NA,A levels,choice,94,1,For,For
22,1659975849071,08/08/2022 16:24:09,1659975860340,1,08/08/2022 17:24:20,94826,3,task-fbpo,NA,23527533,6895761,NA,complete,NA,62f1383acf2b978d07df468a,computer,Desktop or Laptop,Windows 10,Chrome 103.0.0.0,1280x720,1163x554,NA,ITT Ratings,2,for,10,NA,NA,NA,NA,NA,NA,NA,NA,ACCEPT,NA,batch10pro,batch10pro,60,20,1,Screen 1,continueButton,response_rating_scale_likert_active,1057.7999999523165,NA,NA,Somewhat Agree,1,0,1,0,NA,NA,NA,NA,1,statements,Help save more lives.,1,17/06/2021 12:48,17/06/2021 13:10,IP Address,For (I feel positively about the vaccines),Most months,A few times a year,42,Male,NA,Vocational Training / Apprenticeship,control,100,3,For,Against
23,1659975852955,08/08/2022 16:24:12,1659975864225,1,08/08/2022 17:24:24,94826,3,task-fbpo,NA,23527533,6895761,NA,complete,NA,62f1383acf2b978d07df468a,computer,Desktop or Laptop,Windows 10,Chrome 103.0.0.0,1280x720,1163x554,NA,ITT Ratings,2,for,10,NA,NA,NA,NA,NA,NA,NA,NA,ACCEPT,NA,batch10pro,batch10pro,51,21,1,Screen 1,continueButton,response_rating_scale_likert_active,3872.199999809265,NA,NA,Somewhat Agree,1,0,1,0,NA,NA,NA,NA,1,statements,"Other vaccination programmes have been successful in eradicating illnesses, so why should this be any different. Having the vaccine gives us the best chance of getting back to normal.",1,17/06/2021 12:47,17/06/2021 13:09,IP Address,For (I feel positively about the vaccines),Rarely,A few times a year,54,Female,NA,GCSEs,choice,98,3,For,For
24,1659975855870,08/08/2022 16:24:15,1659975867151,1,08/08/2022 17:24:27,94826,3,task-fbpo,NA,23527533,6895761,NA,complete,NA,62f1383acf2b978d07df468a,computer,Desktop or Laptop,Windows 10,Chrome 103.0.0.0,1280x720,1163x554,NA,ITT Ratings,2,for,10,NA,NA,NA,NA,NA,NA,NA,NA,ACCEPT,NA,batch10pro,batch10pro,35,22,1,Screen 1,continueButton,response_rating_scale_likert_active,2912.599999904633,NA,NA,Disagree,1,0,1,0,NA,NA,NA,NA,1,statements,the vaccines are full of bad things,1,17/06/2021 12:58,17/06/2021 13:09,IP Address,For (I feel positively about the vaccines),A few times a year,Rarely,28,Female,NA,"Postgraduate degree (MSc, MA, MPhil)",control,96,2,For,Against
25,1659975862305,08/08/2022 16:24:22,1659975873502,1,08/08/2022 17:24:33,94826,3,task-fbpo,NA,23527533,6895761,NA,complete,NA,62f1383acf2b978d07df468a,computer,Desktop or Laptop,Windows 10,Chrome 103.0.0.0,1280x720,1163x554,NA,ITT Ratings,2,for,10,NA,NA,NA,NA,NA,NA,NA,NA,ACCEPT,NA,batch10pro,batch10pro,54,23,1,Screen 1,continueButton,response_rating_scale_likert_active,6339.199999809265,NA,NA,Disagree,1,0,1,0,NA,NA,NA,NA,1,statements,"We dont know what the long term effects of taking it could be, like the ebola vaccine",1,17/06/2021 12:24,17/06/2021 13:09,IP Address,For (I feel positively about the vaccines),Rarely,Most weeks,30,Male,NA,"Postgraduate degree (MSc, MA, MPhil)",control,99,3,For,Against
26,1659975864837,08/08/2022 16:24:24,1659975876121,1,08/08/2022 17:24:36,94826,3,task-fbpo,NA,23527533,6895761,NA,complete,NA,62f1383acf2b978d07df468a,computer,Desktop or Laptop,Windows 10,Chrome 103.0.0.0,1280x720,1163x554,NA,ITT Ratings,2,for,10,NA,NA,NA,NA,NA,NA,NA,NA,ACCEPT,NA,batch10pro,batch10pro,48,24,1,Screen 1,continueButton,response_rating_scale_likert_active,2607.400000095367,NA,NA,Disagree,1,0,1,0,NA,NA,NA,NA,1,statements,"Not everyone will have it, so what's the point.",1,17/06/2021 12:47,17/06/2021 13:09,IP Address,For (I feel positively about the vaccines),Rarely,A few times a year,54,Female,NA,GCSEs,choice,98,3,For,Against
27,1659975866932,08/08/2022 16:24:26,1659975878202,1,08/08/2022 17:24:38,94826,3,task-fbpo,NA,23527533,6895761,NA,complete,NA,62f1383acf2b978d07df468a,computer,Desktop or Laptop,Windows 10,Chrome 103.0.0.0,1280x720,1163x554,NA,ITT Ratings,2,for,10,NA,NA,NA,NA,NA,NA,NA,NA,ACCEPT,NA,batch10pro,batch10pro,13,25,1,Screen 1,continueButton,response_rating_scale_likert_active,2066.599999904633,NA,NA,Somewhat Agree,1,0,1,0,NA,NA,NA,NA,1,statements,I want life to continue like normal,1,17/06/2021 12:59,17/06/2021 13:08,IP Address,For (I feel positively about the vaccines),Rarely,A few times a year,23,Female,NA,A levels,choice,92,1,For,For
28,1659975870205,08/08/2022 16:24:30,1659975881393,1,08/08/2022 17:24:41,94826,3,task-fbpo,NA,23527533,6895761,NA,complete,NA,62f1383acf2b978d07df468a,computer,Desktop or Laptop,Windows 10,Chrome 103.0.0.0,1280x720,1163x554,NA,ITT Ratings,2,for,10,NA,NA,NA,NA,NA,NA,NA,NA,ACCEPT,NA,batch10pro,batch10pro,28,26,1,Screen 1,continueButton,response_rating_scale_likert_active,3178.399999856949,NA,NA,Disagree,1,0,1,0,NA,NA,NA,NA,1,statements,The vaccines use new MRNA tech and are therefore unsafe.,1,17/06/2021 13:02,17/06/2021 13:09,IP Address,For (I feel positively about the vaccines),Rarely,Most months,21,Male,NA,A levels,control,95,1,For,Against
29,1659975872111,08/08/2022 16:24:32,1659975883395,1,08/08/2022 17:24:43,94826,3,task-fbpo,NA,23527533,6895761,NA,complete,NA,62f1383acf2b978d07df468a,computer,Desktop or Laptop,Windows 10,Chrome 103.0.0.0,1280x720,1163x554,NA,ITT Ratings,2,for,10,NA,NA,NA,NA,NA,NA,NA,NA,ACCEPT,NA,batch10pro,batch10pro,21,27,1,Screen 1,continueButton,response_rating_scale_likert_active,1990.8000001907349,NA,NA,Somewhat Agree,1,0,1,0,NA,NA,NA,NA,1,statements,I want to be safe from this virus,1,17/06/2021 12:59,17/06/2021 13:08,IP Address,For (I feel positively about the vaccines),Most weeks,Most days,31,Male,NA,"Undergraduate degree (BSc, BA)",control,93,3,For,For
30,1659975876794,08/08/2022 16:24:36,1659975888065,1,08/08/2022 17:24:48,94826,3,task-fbpo,NA,23527533,6895761,NA,complete,NA,62f1383acf2b978d07df468a,computer,Desktop or Laptop,Windows 10,Chrome 103.0.0.0,1280x720,1163x554,NA,ITT Ratings,2,for,10,NA,NA,NA,NA,NA,NA,NA,NA,ACCEPT,NA,batch10pro,batch10pro,3,28,1,Screen 1,continueButton,response_rating_scale_likert_active,4657.100000143051,NA,NA,Somewhat Disagree,1,0,1,0,NA,NA,NA,NA,1,statements,We would like to check you are reading each argument carefully. Please select 'Somewhat Disagree' for this answer,1,NA,NA,NA,NA,NA,NA,NA,NA,NA,NA,NA,NA,check2,NA,NA
31,1659975878505,08/08/2022 16:24:38,1659975889713,1,08/08/2022 17:24:49,94826,3,task-fbpo,NA,23527533,6895761,NA,complete,NA,62f1383acf2b978d07df468a,computer,Desktop or Laptop,Windows 10,Chrome 103.0.0.0,1280x720,1163x554,NA,ITT Ratings,2,for,10,NA,NA,NA,NA,NA,NA,NA,NA,ACCEPT,NA,batch10pro,batch10pro,15,29,1,Screen 1,continueButton,response_rating_scale_likert_active,1635,NA,NA,Somewhat Agree,1,0,1,0,NA,NA,NA,NA,1,statements,I want to keep my friends and family safe,1,17/06/2021 12:59,17/06/2021 13:08,IP Address,For (I feel positively about the vaccines),Rarely,A few times a year,23,Female,NA,A levels,choice,92,3,For,For
32,1659975880483,08/08/2022 16:24:40,1659975891755,1,08/08/2022 17:24:51,94826,3,task-fbpo,NA,23527533,6895761,NA,complete,NA,62f1383acf2b978d07df468a,computer,Desktop or Laptop,Windows 10,Chrome 103.0.0.0,1280x720,1163x554,NA,ITT Ratings,2,for,10,NA,NA,NA,NA,NA,NA,NA,NA,ACCEPT,NA,batch10pro,batch10pro,11,30,1,Screen 1,continueButton,response_rating_scale_likert_active,2029.7999999523165,NA,NA,Somewhat Disagree,1,0,1,0,NA,NA,NA,NA,1,statements,I don't think they are effective,1,17/06/2021 12:59,17/06/2021 13:08,IP Address,For (I feel positively about the vaccines),Rarely,A few times a year,23,Female,NA,A levels,choice,92,2,For,Against
33,1659975882244,08/08/2022 16:24:42,1659975893512,1,08/08/2022 17:24:53,94826,3,task-fbpo,NA,23527533,6895761,NA,complete,NA,62f1383acf2b978d07df468a,computer,Desktop or Laptop,Windows 10,Chrome 103.0.0.0,1280x720,1163x554,NA,ITT Ratings,2,for,10,NA,NA,NA,NA,NA,NA,NA,NA,ACCEPT,NA,batch10pro,batch10pro,10,31,1,Screen 1,continueButton,response_rating_scale_likert_active,1745.7999999523165,NA,NA,Somewhat Disagree,1,0,1,0,NA,NA,NA,NA,1,statements,I don't trust what's in the vaccine,1,17/06/2021 12:59,17/06/2021 13:08,IP Address,For (I feel positively about the vaccines),Rarely,A few times a year,23,Female,NA,A levels,choice,92,1,For,Against
34,1659975884443,08/08/2022 16:24:44,1659975895711,1,08/08/2022 17:24:55,94826,3,task-fbpo,NA,23527533,6895761,NA,complete,NA,62f1383acf2b978d07df468a,computer,Desktop or Laptop,Windows 10,Chrome 103.0.0.0,1280x720,1163x554,NA,ITT Ratings,2,for,10,NA,NA,NA,NA,NA,NA,NA,NA,ACCEPT,NA,batch10pro,batch10pro,44,32,1,Screen 1,continueButton,response_rating_scale_likert_active,2187.099999904633,NA,NA,Somewhat Agree,1,0,1,0,NA,NA,NA,NA,1,statements,I want to ensure I don't catch it myself,1,17/06/2021 12:46,17/06/2021 13:09,IP Address,For (I feel positively about the vaccines),Most weeks,Most months,33,Male,NA,A levels,control,97,2,For,For
35,1659975886376,08/08/2022 16:24:46,1659975897644,1,08/08/2022 17:24:57,94826,3,task-fbpo,NA,23527533,6895761,NA,complete,NA,62f1383acf2b978d07df468a,computer,Desktop or Laptop,Windows 10,Chrome 103.0.0.0,1280x720,1163x554,NA,ITT Ratings,2,for,10,NA,NA,NA,NA,NA,NA,NA,NA,ACCEPT,NA,batch10pro,batch10pro,36,33,1,Screen 1,continueButton,response_rating_scale_likert_active,1922.1000001430511,NA,NA,Somewhat Disagree,1,0,1,0,NA,NA,NA,NA,1,statements,all vaccines are damaging in the long run,1,17/06/2021 12:58,17/06/2021 13:09,IP Address,For (I feel positively about the vaccines),A few times a year,Rarely,28,Female,NA,"Postgraduate degree (MSc, MA, MPhil)",control,96,3,For,Against
36,1659975889098,08/08/2022 16:24:49,1659975900314,1,08/08/2022 17:25:00,94826,3,task-fbpo,NA,23527533,6895761,NA,complete,NA,62f1383acf2b978d07df468a,computer,Desktop or Laptop,Windows 10,Chrome 103.0.0.0,1280x720,1163x554,NA,ITT Ratings,2,for,10,NA,NA,NA,NA,NA,NA,NA,NA,ACCEPT,NA,batch10pro,batch10pro,30,34,1,Screen 1,continueButton,response_rating_scale_likert_active,2658.5,NA,NA,Strongly Disagree,1,0,1,0,NA,NA,NA,NA,1,statements,The vaccines contain a microchip,1,17/06/2021 13:02,17/06/2021 13:09,IP Address,For (I feel positively about the vaccines),Rarely,Most months,21,Male,NA,A levels,control,95,3,For,Against
37,1659975891839,08/08/2022 16:24:51,1659975903113,1,08/08/2022 17:25:03,94826,3,task-fbpo,NA,23527533,6895761,NA,complete,NA,62f1383acf2b978d07df468a,computer,Desktop or Laptop,Windows 10,Chrome 103.0.0.0,1280x720,1163x554,NA,ITT Ratings,2,for,10,NA,NA,NA,NA,NA,NA,NA,NA,ACCEPT,NA,batch10pro,batch10pro,17,35,1,Screen 1,continueButton,response_rating_scale_likert_active,2786.800000190735,NA,NA,Somewhat Disagree,1,0,1,0,NA,NA,NA,NA,1,statements,I have medical concerns,1,17/06/2021 12:59,17/06/2021 13:08,IP Address,For (I feel positively about the vaccines),Most weeks,Most days,31,Male,NA,"Undergraduate degree (BSc, BA)",control,93,2,For,Against
38,1659975894159,08/08/2022 16:24:54,1659975905429,1,08/08/2022 17:25:05,94826,3,task-fbpo,NA,23527533,6895761,NA,complete,NA,62f1383acf2b978d07df468a,computer,Desktop or Laptop,Windows 10,Chrome 103.0.0.0,1280x720,1163x554,NA,ITT Ratings,2,for,10,NA,NA,NA,NA,NA,NA,NA,NA,ACCEPT,NA,batch10pro,batch10pro,53,36,1,Screen 1,continueButton,response_rating_scale_likert_active,2302.599999904633,NA,NA,Strongly Disagree,1,0,1,0,NA,NA,NA,NA,1,statements,"It has a tracker (or some variation, 5g or something) hidden in it",1,17/06/2021 12:24,17/06/2021 13:09,IP Address,For (I feel positively about the vaccines),Rarely,Most weeks,30,Male,NA,"Postgraduate degree (MSc, MA, MPhil)",control,99,2,For,Against
39,1659975898838,08/08/2022 16:24:58,1659975910043,1,08/08/2022 17:25:10,94826,3,task-fbpo,NA,23527533,6895761,NA,complete,NA,62f1383acf2b978d07df468a,computer,Desktop or Laptop,Windows 10,Chrome 103.0.0.0,1280x720,1163x554,NA,ITT Ratings,2,for,10,NA,NA,NA,NA,NA,NA,NA,NA,ACCEPT,NA,batch10pro,batch10pro,62,37,1,Screen 1,continueButton,response_rating_scale_likert_active,4601.599999904633,NA,NA,Somewhat Disagree,1,0,1,0,NA,NA,NA,NA,1,statements,The government are scaring people with pumed stats,1,17/06/2021 12:48,17/06/2021 13:10,IP Address,For (I feel positively about the vaccines),Most months,A few times a year,42,Male,NA,Vocational Training / Apprenticeship,control,100,2,For,For
40,1659975903391,08/08/2022 16:25:03,1659975914667,1,08/08/2022 17:25:14,94826,3,task-fbpo,NA,23527533,6895761,NA,complete,NA,62f1383acf2b978d07df468a,computer,Desktop or Laptop,Windows 10,Chrome 103.0.0.0,1280x720,1163x554,NA,ITT Ratings,2,for,10,NA,NA,NA,NA,NA,NA,NA,NA,ACCEPT,NA,batch10pro,batch10pro,39,38,1,Screen 1,continueButton,response_rating_scale_likert_active,4611.599999904633,NA,NA,Neither Agree nor Disagree,1,0,1,0,NA,NA,NA,NA,1,statements,because they trust science and not conspiracies,1,17/06/2021 12:58,17/06/2021 13:09,IP Address,For (I feel positively about the vaccines),A few times a year,Rarely,28,Female,NA,"Postgraduate degree (MSc, MA, MPhil)",control,96,3,For,For
41,1659975906953,08/08/2022 16:25:06,1659975918231,1,08/08/2022 17:25:18,94826,3,task-fbpo,NA,23527533,6895761,NA,complete,NA,62f1383acf2b978d07df468a,computer,Desktop or Laptop,Windows 10,Chrome 103.0.0.0,1280x720,1163x554,NA,ITT Ratings,2,for,10,NA,NA,NA,NA,NA,NA,NA,NA,ACCEPT,NA,batch10pro,batch10pro,45,39,1,Screen 1,continueButton,response_rating_scale_likert_active,3551.900000095367,NA,NA,Somewhat Agree,1,0,1,0,NA,NA,NA,NA,1,statements,The vaccines are reliable and there's no reason not to.,1,17/06/2021 12:46,17/06/2021 13:09,IP Address,For (I feel positively about the vaccines),Most weeks,Most months,33,Male,NA,A levels,control,97,3,For,For
42,1659975912462,08/08/2022 16:25:12,1659975923671,1,08/08/2022 17:25:23,94826,3,task-fbpo,NA,23527533,6895761,NA,complete,NA,62f1383acf2b978d07df468a,computer,Desktop or Laptop,Windows 10,Chrome 103.0.0.0,1280x720,1163x554,NA,ITT Ratings,2,for,10,NA,NA,NA,NA,NA,NA,NA,NA,ACCEPT,NA,batch10pro,batch10pro,22,40,1,Screen 1,continueButton,response_rating_scale_likert_active,5429.400000095367,NA,NA,Somewhat Disagree,1,0,1,0,NA,NA,NA,NA,1,statements,Not been tested not enough time,1,17/06/2021 13:01,17/06/2021 13:09,IP Address,For (I feel positively about the vaccines),Most weeks,Most weeks,38,Male,NA,A levels,choice,94,1,For,Against
43,1659975914233,08/08/2022 16:25:14,1659975925508,1,08/08/2022 17:25:25,94826,3,task-fbpo,NA,23527533,6895761,NA,complete,NA,62f1383acf2b978d07df468a,computer,Desktop or Laptop,Windows 10,Chrome 103.0.0.0,1280x720,1163x554,NA,ITT Ratings,2,for,10,NA,NA,NA,NA,NA,NA,NA,NA,ACCEPT,NA,batch10pro,batch10pro,16,41,1,Screen 1,continueButton,response_rating_scale_likert_active,1825.9000000953672,NA,NA,Somewhat Disagree,1,0,1,0,NA,NA,NA,NA,1,statements,They do not trust the science,1,17/06/2021 12:59,17/06/2021 13:08,IP Address,For (I feel positively about the vaccines),Most weeks,Most days,31,Male,NA,"Undergraduate degree (BSc, BA)",control,93,1,For,Against
44,1659975918326,08/08/2022 16:25:18,1659975929533,1,08/08/2022 17:25:29,94826,3,task-fbpo,NA,23527533,6895761,NA,complete,NA,62f1383acf2b978d07df468a,computer,Desktop or Laptop,Windows 10,Chrome 103.0.0.0,1280x720,1163x554,NA,ITT Ratings,2,for,10,NA,NA,NA,NA,NA,NA,NA,NA,ACCEPT,NA,batch10pro,batch10pro,9,42,1,Screen 1,continueButton,response_rating_scale_likert_active,4014.100000143051,NA,NA,Somewhat Agree,1,0,1,0,NA,NA,NA,NA,1,statements,I don't want to transmit COVID to my elderly relatives - vaccination seems like the best deterrent.,1,17/06/2021 12:59,17/06/2021 13:08,IP Address,For (I feel positively about the vaccines),A few times a year,Most weeks,24,Male,NA,"Postgraduate degree (MSc, MA, MPhil)",choice,91,3,For,For
45,1659975919579,08/08/2022 16:25:19,1659975930858,1,08/08/2022 17:25:30,94826,3,task-fbpo,NA,23527533,6895761,NA,complete,NA,62f1383acf2b978d07df468a,computer,Desktop or Laptop,Windows 10,Chrome 103.0.0.0,1280x720,1163x554,NA,ITT Ratings,2,for,10,NA,NA,NA,NA,NA,NA,NA,NA,ACCEPT,NA,batch10pro,batch10pro,43,43,1,Screen 1,continueButton,response_rating_scale_likert_active,1311.6000001430511,NA,NA,Somewhat Agree,1,0,1,0,NA,NA,NA,NA,1,statements,We need to protect our vulnerable.,1,17/06/2021 12:46,17/06/2021 13:09,IP Address,For (I feel positively about the vaccines),Most weeks,Most months,33,Male,NA,A levels,control,97,1,For,For
46,1659975921943,08/08/2022 16:25:21,1659975933223,1,08/08/2022 17:25:33,94826,3,task-fbpo,NA,23527533,6895761,NA,complete,NA,62f1383acf2b978d07df468a,computer,Desktop or Laptop,Windows 10,Chrome 103.0.0.0,1280x720,1163x554,NA,ITT Ratings,2,for,10,NA,NA,NA,NA,NA,NA,NA,NA,ACCEPT,NA,batch10pro,batch10pro,63,44,1,Screen 1,continueButton,response_rating_scale_likert_active,2353.7000000476837,NA,NA,Somewhat Disagree,1,0,1,0,NA,NA,NA,NA,1,statements,I don't like needles,1,17/06/2021 12:48,17/06/2021 13:10,IP Address,For (I feel positively about the vaccines),Most months,A few times a year,42,Male,NA,Vocational Training / Apprenticeship,control,100,3,For,For
47,1659975926304,08/08/2022 16:25:26,1659975937582,1,08/08/2022 17:25:37,94826,3,task-fbpo,NA,23527533,6895761,NA,complete,NA,62f1383acf2b978d07df468a,computer,Desktop or Laptop,Windows 10,Chrome 103.0.0.0,1280x720,1163x554,NA,ITT Ratings,2,for,10,NA,NA,NA,NA,NA,NA,NA,NA,ACCEPT,NA,batch10pro,batch10pro,2,45,1,Screen 1,continueButton,response_rating_scale_likert_active,4348.300000190735,NA,NA,Somewhat Agree,1,0,1,0,NA,NA,NA,NA,1,statements,We would like to check you are reading each argument carefully. Please select 'Somewhat Agree' for this answer,1,NA,NA,NA,NA,NA,NA,NA,NA,NA,NA,NA,NA,check1,NA,NA
48,1659975929447,08/08/2022 16:25:29,1659975940644,1,08/08/2022 17:25:40,94826,3,task-fbpo,NA,23527533,6895761,NA,complete,NA,62f1383acf2b978d07df468a,computer,Desktop or Laptop,Windows 10,Chrome 103.0.0.0,1280x720,1163x554,NA,ITT Ratings,2,for,10,NA,NA,NA,NA,NA,NA,NA,NA,ACCEPT,NA,batch10pro,batch10pro,23,46,1,Screen 1,continueButton,response_rating_scale_likert_active,3046.7000000476837,NA,NA,Somewhat Agree,1,0,1,0,NA,NA,NA,NA,1,statements,I should choose what I want to put in my body,1,17/06/2021 13:01,17/06/2021 13:09,IP Address,For (I feel positively about the vaccines),Most weeks,Most weeks,38,Male,NA,A levels,choice,94,2,For,Against
49,1659975932753,08/08/2022 16:25:32,1659975944030,1,08/08/2022 17:25:44,94826,3,task-fbpo,NA,23527533,6895761,NA,complete,NA,62f1383acf2b978d07df468a,computer,Desktop or Laptop,Windows 10,Chrome 103.0.0.0,1280x720,1163x554,NA,ITT Ratings,2,for,10,NA,NA,NA,NA,NA,NA,NA,NA,ACCEPT,NA,batch10pro,batch10pro,31,47,1,Screen 1,continueButton,response_rating_scale_likert_active,3374.899999856949,NA,NA,Somewhat Agree,1,0,1,0,NA,NA,NA,NA,1,statements,The side effects of COVID are worse,1,17/06/2021 13:02,17/06/2021 13:09,IP Address,For (I feel positively about the vaccines),Rarely,Most months,21,Male,NA,A levels,control,95,1,For,For
50,1659975934016,08/08/2022 16:25:34,1659975945296,1,08/08/2022 17:25:45,94826,3,task-fbpo,NA,23527533,6895761,NA,complete,NA,62f1383acf2b978d07df468a,computer,Desktop or Laptop,Windows 10,Chrome 103.0.0.0,1280x720,1163x554,NA,ITT Ratings,2,for,10,NA,NA,NA,NA,NA,NA,NA,NA,ACCEPT,NA,batch10pro,batch10pro,55,48,1,Screen 1,continueButton,response_rating_scale_likert_active,1255,NA,NA,Somewhat Agree,1,0,1,0,NA,NA,NA,NA,1,statements,It's responsible- it's about protecting others,1,17/06/2021 12:24,17/06/2021 13:09,IP Address,For (I feel positively about the vaccines),Rarely,Most weeks,30,Male,NA,"Postgraduate degree (MSc, MA, MPhil)",control,99,1,For,For
51,1659975936216,08/08/2022 16:25:36,1659975947495,1,08/08/2022 17:25:47,94826,3,task-fbpo,NA,23527533,6895761,NA,complete,NA,62f1383acf2b978d07df468a,computer,Desktop or Laptop,Windows 10,Chrome 103.0.0.0,1280x720,1163x554,NA,ITT Ratings,2,for,10,NA,NA,NA,NA,NA,NA,NA,NA,ACCEPT,NA,batch10pro,batch10pro,46,49,1,Screen 1,continueButton,response_rating_scale_likert_active,2187.399999856949,NA,NA,Somewhat Disagree,1,0,1,0,NA,NA,NA,NA,1,statements,It's been rushed through so it's not safe.,1,17/06/2021 12:47,17/06/2021 13:09,IP Address,For (I feel positively about the vaccines),Rarely,A few times a year,54,Female,NA,GCSEs,choice,98,1,For,Against
52,1659975939733,08/08/2022 16:25:39,1659975950921,1,08/08/2022 17:25:50,94826,3,task-fbpo,NA,23527533,6895761,NA,complete,NA,62f1383acf2b978d07df468a,computer,Desktop or Laptop,Windows 10,Chrome 103.0.0.0,1280x720,1163x554,NA,ITT Ratings,2,for,10,NA,NA,NA,NA,NA,NA,NA,NA,ACCEPT,NA,batch10pro,batch10pro,24,50,1,Screen 1,continueButton,response_rating_scale_likert_active,3413.600000143051,NA,NA,Somewhat Disagree,1,0,1,0,NA,NA,NA,NA,1,statements,I have an immune system already,1,17/06/2021 13:01,17/06/2021 13:09,IP Address,For (I feel positively about the vaccines),Most weeks,Most weeks,38,Male,NA,A levels,choice,94,3,For,Against
53,1659975942337,08/08/2022 16:25:42,1659975953608,1,08/08/2022 17:25:53,94826,3,task-fbpo,NA,23527533,6895761,NA,complete,NA,62f1383acf2b978d07df468a,computer,Desktop or Laptop,Windows 10,Chrome 103.0.0.0,1280x720,1163x554,NA,ITT Ratings,2,for,10,NA,NA,NA,NA,NA,NA,NA,NA,ACCEPT,NA,batch10pro,batch10pro,57,51,1,Screen 1,continueButton,response_rating_scale_likert_active,2675.5,NA,NA,Somewhat Agree,1,0,1,0,NA,NA,NA,NA,1,statements,for your own health and those arround you,1,17/06/2021 12:24,17/06/2021 13:09,IP Address,For (I feel positively about the vaccines),Rarely,Most weeks,30,Male,NA,"Postgraduate degree (MSc, MA, MPhil)",control,99,3,For,For
54,1659975944095,08/08/2022 16:25:44,1659975955374,1,08/08/2022 17:25:55,94826,3,task-fbpo,NA,23527533,6895761,NA,complete,NA,62f1383acf2b978d07df468a,computer,Desktop or Laptop,Windows 10,Chrome 103.0.0.0,1280x720,1163x554,NA,ITT Ratings,2,for,10,NA,NA,NA,NA,NA,NA,NA,NA,ACCEPT,NA,batch10pro,batch10pro,12,52,1,Screen 1,continueButton,response_rating_scale_likert_active,1754.3000001907349,NA,NA,Somewhat Disagree,1,0,1,0,NA,NA,NA,NA,1,statements,I'm too scared of needles,1,17/06/2021 12:59,17/06/2021 13:08,IP Address,For (I feel positively about the vaccines),Rarely,A few times a year,23,Female,NA,A levels,choice,92,3,For,Against
55,1659975945766,08/08/2022 16:25:45,1659975957052,1,08/08/2022 17:25:57,94826,3,task-fbpo,NA,23527533,6895761,NA,complete,NA,62f1383acf2b978d07df468a,computer,Desktop or Laptop,Windows 10,Chrome 103.0.0.0,1280x720,1163x554,NA,ITT Ratings,2,for,10,NA,NA,NA,NA,NA,NA,NA,NA,ACCEPT,NA,batch10pro,batch10pro,20,53,1,Screen 1,continueButton,response_rating_scale_likert_active,1666,NA,NA,Somewhat Agree,1,0,1,0,NA,NA,NA,NA,1,statements,I want to see family,1,17/06/2021 12:59,17/06/2021 13:08,IP Address,For (I feel positively about the vaccines),Most weeks,Most days,31,Male,NA,"Undergraduate degree (BSc, BA)",control,93,2,For,For
56,1659975947531,08/08/2022 16:25:47,1659975958799,1,08/08/2022 17:25:58,94826,3,task-fbpo,NA,23527533,6895761,NA,complete,NA,62f1383acf2b978d07df468a,computer,Desktop or Laptop,Windows 10,Chrome 103.0.0.0,1280x720,1163x554,NA,ITT Ratings,2,for,10,NA,NA,NA,NA,NA,NA,NA,NA,ACCEPT,NA,batch10pro,batch10pro,41,54,1,Screen 1,continueButton,response_rating_scale_likert_active,1735.2999999523165,NA,NA,Somewhat Disagree,1,0,1,0,NA,NA,NA,NA,1,statements,I'm scared of needles so I can't face it.,1,17/06/2021 12:46,17/06/2021 13:09,IP Address,For (I feel positively about the vaccines),Most weeks,Most months,33,Male,NA,A levels,control,97,2,For,Against
57,1659975950555,08/08/2022 16:25:50,1659975961764,1,08/08/2022 17:26:01,94826,3,task-fbpo,NA,23527533,6895761,NA,complete,NA,62f1383acf2b978d07df468a,computer,Desktop or Laptop,Windows 10,Chrome 103.0.0.0,1280x720,1163x554,NA,ITT Ratings,2,for,10,NA,NA,NA,NA,NA,NA,NA,NA,ACCEPT,NA,batch10pro,batch10pro,33,55,1,Screen 1,continueButton,response_rating_scale_likert_active,2953.7999999523163,NA,NA,Somewhat Disagree,1,0,1,0,NA,NA,NA,NA,1,statements,I need to due to work,1,17/06/2021 13:02,17/06/2021 13:09,IP Address,For (I feel positively about the vaccines),Rarely,Most months,21,Male,NA,A levels,control,95,3,For,For
58,1659975953033,08/08/2022 16:25:53,1659975964258,1,08/08/2022 17:26:04,94826,3,task-fbpo,NA,23527533,6895761,NA,complete,NA,62f1383acf2b978d07df468a,computer,Desktop or Laptop,Windows 10,Chrome 103.0.0.0,1280x720,1163x554,NA,ITT Ratings,2,for,10,NA,NA,NA,NA,NA,NA,NA,NA,ACCEPT,NA,batch10pro,batch10pro,27,56,1,Screen 1,continueButton,response_rating_scale_likert_active,2483.2999999523163,NA,NA,Somewhat Agree,1,0,1,0,NA,NA,NA,NA,1,statements,So I don't catch it again,1,17/06/2021 13:01,17/06/2021 13:09,IP Address,For (I feel positively about the vaccines),Most weeks,Most weeks,38,Male,NA,A levels,choice,94,3,For,For
59,1659975955286,08/08/2022 16:25:55,1659975966565,1,08/08/2022 17:26:06,94826,3,task-fbpo,NA,23527533,6895761,NA,complete,NA,62f1383acf2b978d07df468a,computer,Desktop or Laptop,Windows 10,Chrome 103.0.0.0,1280x720,1163x554,NA,ITT Ratings,2,for,10,NA,NA,NA,NA,NA,NA,NA,NA,ACCEPT,NA,batch10pro,batch10pro,52,57,1,Screen 1,continueButton,response_rating_scale_likert_active,2295.099999904633,NA,NA,Somewhat Disagree,1,0,1,0,NA,NA,NA,NA,1,statements,"Our bodies will fight it off naturally, we weaken ourselves by having the vaccine just because the government tells us to.",1,17/06/2021 12:24,17/06/2021 13:09,IP Address,For (I feel positively about the vaccines),Rarely,Most weeks,30,Male,NA,"Postgraduate degree (MSc, MA, MPhil)",control,99,1,For,Against
60,1659975957957,08/08/2022 16:25:57,1659975969157,1,08/08/2022 17:26:09,94826,3,task-fbpo,NA,23527533,6895761,NA,complete,NA,62f1383acf2b978d07df468a,computer,Desktop or Laptop,Windows 10,Chrome 103.0.0.0,1280x720,1163x554,NA,ITT Ratings,2,for,10,NA,NA,NA,NA,NA,NA,NA,NA,ACCEPT,NA,batch10pro,batch10pro,40,58,1,Screen 1,continueButton,response_rating_scale_likert_active,2580.599999904633,NA,NA,Disagree,1,0,1,0,NA,NA,NA,NA,1,statements,The vaccine is government controlling citizens.,1,17/06/2021 12:46,17/06/2021 13:09,IP Address,For (I feel positively about the vaccines),Most weeks,Most months,33,Male,NA,A levels,control,97,1,For,Against
61,1659975964630,08/08/2022 16:26:04,1659975975910,1,08/08/2022 17:26:15,94826,3,task-fbpo,NA,23527533,6895761,NA,complete,NA,62f1383acf2b978d07df468a,computer,Desktop or Laptop,Windows 10,Chrome 103.0.0.0,1280x720,1163x554,NA,ITT Ratings,2,for,10,NA,NA,NA,NA,NA,NA,NA,NA,ACCEPT,NA,batch10pro,batch10pro,49,59,1,Screen 1,continueButton,response_rating_scale_likert_active,6740.5,NA,NA,Somewhat Agree,1,0,1,0,NA,NA,NA,NA,1,statements,I really want the injection so I will be protected against the virus. I already have the influenza vaccine so I am not worried.,1,17/06/2021 12:47,17/06/2021 13:09,IP Address,For (I feel positively about the vaccines),Rarely,A few times a year,54,Female,NA,GCSEs,choice,98,1,For,For
62,1659975965550,08/08/2022 16:26:05,1659975976832,1,08/08/2022 17:26:16,94826,3,task-fbpo,NA,23527533,6895761,NA,complete,NA,62f1383acf2b978d07df468a,computer,Desktop or Laptop,Windows 10,Chrome 103.0.0.0,1280x720,1163x554,NA,ITT Ratings,2,for,10,NA,NA,NA,NA,NA,NA,NA,NA,ACCEPT,NA,batch10pro,batch10pro,32,60,1,Screen 1,continueButton,response_rating_scale_likert_active,908.2999999523164,NA,NA,Somewhat Agree,1,0,1,0,NA,NA,NA,NA,1,statements,I want to protect others,1,17/06/2021 13:02,17/06/2021 13:09,IP Address,For (I feel positively about the vaccines),Rarely,Most months,21,Male,NA,A levels,control,95,2,For,For
63,1659975969011,08/08/2022 16:26:09,1659975980199,1,08/08/2022 17:26:20,94826,3,task-fbpo,NA,23527533,6895761,NA,complete,NA,62f1383acf2b978d07df468a,computer,Desktop or Laptop,Windows 10,Chrome 103.0.0.0,1280x720,1163x554,NA,ITT Ratings,2,for,10,NA,NA,NA,NA,NA,NA,NA,NA,ACCEPT,NA,batch10pro,batch10pro,42,61,1,Screen 1,continueButton,response_rating_scale_likert_active,3357,NA,NA,Strongly Disagree,1,0,1,0,NA,NA,NA,NA,1,statements,Covid is a hoax and a vaccine is pointless as it's a fake disease.,1,17/06/2021 12:46,17/06/2021 13:09,IP Address,For (I feel positively about the vaccines),Most weeks,Most months,33,Male,NA,A levels,control,97,3,For,Against
64,1659975972845,08/08/2022 16:26:12,1659975984093,1,08/08/2022 17:26:24,94826,3,task-fbpo,NA,23527533,6895761,NA,complete,NA,62f1383acf2b978d07df468a,computer,Desktop or Laptop,Windows 10,Chrome 103.0.0.0,1280x720,1163x554,NA,ITT Ratings,2,for,10,NA,NA,NA,NA,NA,NA,NA,NA,ACCEPT,NA,batch10pro,batch10pro,8,62,1,Screen 1,continueButton,response_rating_scale_likert_active,3883.799999952316,NA,NA,Somewhat Agree,1,0,1,0,NA,NA,NA,NA,1,statements,"I care about people and I don't want to die, vaccination is the only option.",1,17/06/2021 12:59,17/06/2021 13:08,IP Address,For (I feel positively about the vaccines),A few times a year,Most weeks,24,Male,NA,"Postgraduate degree (MSc, MA, MPhil)",choice,91,2,For,For
65,1659975972906,08/08/2022 16:26:12,1659975984097,1,08/08/2022 17:26:24,94826,3,task-fbpo,NA,23527533,6895761,NA,complete,NA,62f1383acf2b978d07df468a,computer,Desktop or Laptop,Windows 10,Chrome 103.0.0.0,1280x720,1163x554,NA,ITT Ratings,2,for,10,NA,NA,NA,NA,NA,NA,NA,NA,ACCEPT,NA,batch10pro,NA,NA,END TASK,NA,NA,NA,NA,207603,NA,NA,NA,NA,0,1,0,NA,NA,NA,NA,NA,NA,NA,NA,NA,NA,NA,NA,NA,NA,NA,NA,NA,NA,NA,NA,NA,NA,NA
1,1659975903445,08/08/2022 16:25:03,1659975903193,1,08/08/2022 17:25:03,94826,3,task-fbpo,NA,23527595,6895783,NA,complete,NA,62f138b86fc316ab5354d106,tablet,Samsung SM-T870,Android 12,Chrome 104.0.0.0,1205x753,1205x585,NA,ITT Ratings,2,for,10,NA,NA,NA,NA,NA,NA,NA,NA,ACCEPT,NA,batch10pro,NA,NA,BEGIN TASK,NA,NA,NA,NA,NA,NA,NA,NA,NA,0,1,0,NA,NA,NA,NA,NA,NA,NA,NA,NA,NA,NA,NA,NA,NA,NA,NA,NA,NA,NA,NA,NA,NA,NA
2,1659975910676,08/08/2022 16:25:10,1659975910465,1,08/08/2022 17:25:10,94826,3,task-fbpo,NA,23527595,6895783,NA,complete,NA,62f138b86fc316ab5354d106,tablet,Samsung SM-T870,Android 12,Chrome 104.0.0.0,1205x753,1205x585,NA,ITT Ratings,2,for,10,NA,NA,NA,NA,NA,NA,NA,NA,ACCEPT,NA,batch10pro,batch10pro,1,1,1,Screen 1,advancementZone,continue_button,7223.80000000447,NA,NA,NA,NA,0,1,0,NA,NA,NA,NA,NA,instructions,NA,NA,NA,NA,NA,NA,NA,NA,NA,NA,NA,NA,NA,NA,NA,NA,NA
3,1659975919612,08/08/2022 16:25:19,1659975919382,1,08/08/2022 17:25:19,94826,3,task-fbpo,NA,23527595,6895783,NA,complete,NA,62f138b86fc316ab5354d106,tablet,Samsung SM-T870,Android 12,Chrome 104.0.0.0,1205x753,1205x585,NA,ITT Ratings,2,for,10,NA,NA,NA,NA,NA,NA,NA,NA,ACCEPT,NA,batch10pro,batch10pro,61,1,1,Screen 1,continueButton,response_rating_scale_likert_active,8898.60000000149,NA,NA,Disagree,1,0,1,0,NA,NA,NA,NA,1,statements,Don't trust the process has been long enough,1,17/06/2021 12:48,17/06/2021 13:10,IP Address,For (I feel positively about the vaccines),Most months,A few times a year,42,Male,NA,Vocational Training / Apprenticeship,control,100,1,For,For
4,1659975926933,08/08/2022 16:25:26,1659975926738,1,08/08/2022 17:25:26,94826,3,task-fbpo,NA,23527595,6895783,NA,complete,NA,62f138b86fc316ab5354d106,tablet,Samsung SM-T870,Android 12,Chrome 104.0.0.0,1205x753,1205x585,NA,ITT Ratings,2,for,10,NA,NA,NA,NA,NA,NA,NA,NA,ACCEPT,NA,batch10pro,batch10pro,50,2,1,Screen 1,continueButton,response_rating_scale_likert_active,7332.60000000149,NA,NA,Strongly Agree,1,0,1,0,NA,NA,NA,NA,1,statements,"By having the vaccination I am not only protecting myself but also people I come into contact with. Hopefully, the vaccine will stop the spread of the virus.",1,17/06/2021 12:47,17/06/2021 13:09,IP Address,For (I feel positively about the vaccines),Rarely,A few times a year,54,Female,NA,GCSEs,choice,98,2,For,For
5,1659975929347,08/08/2022 16:25:29,1659975929113,1,08/08/2022 17:25:29,94826,3,task-fbpo,NA,23527595,6895783,NA,complete,NA,62f138b86fc316ab5354d106,tablet,Samsung SM-T870,Android 12,Chrome 104.0.0.0,1205x753,1205x585,NA,ITT Ratings,2,for,10,NA,NA,NA,NA,NA,NA,NA,NA,ACCEPT,NA,batch10pro,batch10pro,26,3,1,Screen 1,continueButton,response_rating_scale_likert_active,2353.5,NA,NA,Strongly Agree,1,0,1,0,NA,NA,NA,NA,1,statements,I want lockdown to end,1,17/06/2021 13:01,17/06/2021 13:09,IP Address,For (I feel positively about the vaccines),Most weeks,Most weeks,38,Male,NA,A levels,choice,94,2,For,For
6,1659975932173,08/08/2022 16:25:32,1659975931971,1,08/08/2022 17:25:31,94826,3,task-fbpo,NA,23527595,6895783,NA,complete,NA,62f138b86fc316ab5354d106,tablet,Samsung SM-T870,Android 12,Chrome 104.0.0.0,1205x753,1205x585,NA,ITT Ratings,2,for,10,NA,NA,NA,NA,NA,NA,NA,NA,ACCEPT,NA,batch10pro,batch10pro,35,4,1,Screen 1,continueButton,response_rating_scale_likert_active,2836.5,NA,NA,Strongly Disagree,1,0,1,0,NA,NA,NA,NA,1,statements,the vaccines are full of bad things,1,17/06/2021 12:58,17/06/2021 13:09,IP Address,For (I feel positively about the vaccines),A few times a year,Rarely,28,Female,NA,"Postgraduate degree (MSc, MA, MPhil)",control,96,2,For,Against
7,1659975939014,08/08/2022 16:25:39,1659975938796,1,08/08/2022 17:25:38,94826,3,task-fbpo,NA,23527595,6895783,NA,complete,NA,62f138b86fc316ab5354d106,tablet,Samsung SM-T870,Android 12,Chrome 104.0.0.0,1205x753,1205x585,NA,ITT Ratings,2,for,10,NA,NA,NA,NA,NA,NA,NA,NA,ACCEPT,NA,batch10pro,batch10pro,7,5,1,Screen 1,continueButton,response_rating_scale_likert_active,6805.10000000149,NA,NA,Strongly Agree,1,0,1,0,NA,NA,NA,NA,1,statements,"We won't be able to get out of lockdown unless we all get vaccinated, I want to get out soon.",1,17/06/2021 12:59,17/06/2021 13:08,IP Address,For (I feel positively about the vaccines),A few times a year,Most weeks,24,Male,NA,"Postgraduate degree (MSc, MA, MPhil)",choice,91,1,For,For
8,1659975941423,08/08/2022 16:25:41,1659975941210,1,08/08/2022 17:25:41,94826,3,task-fbpo,NA,23527595,6895783,NA,complete,NA,62f138b86fc316ab5354d106,tablet,Samsung SM-T870,Android 12,Chrome 104.0.0.0,1205x753,1205x585,NA,ITT Ratings,2,for,10,NA,NA,NA,NA,NA,NA,NA,NA,ACCEPT,NA,batch10pro,batch10pro,57,6,1,Screen 1,continueButton,response_rating_scale_likert_active,2393.8000000044703,NA,NA,Strongly Agree,1,0,1,0,NA,NA,NA,NA,1,statements,for your own health and those arround you,1,17/06/2021 12:24,17/06/2021 13:09,IP Address,For (I feel positively about the vaccines),Rarely,Most weeks,30,Male,NA,"Postgraduate degree (MSc, MA, MPhil)",control,99,3,For,For
9,1659975944843,08/08/2022 16:25:44,1659975944596,1,08/08/2022 17:25:44,94826,3,task-fbpo,NA,23527595,6895783,NA,complete,NA,62f138b86fc316ab5354d106,tablet,Samsung SM-T870,Android 12,Chrome 104.0.0.0,1205x753,1205x585,NA,ITT Ratings,2,for,10,NA,NA,NA,NA,NA,NA,NA,NA,ACCEPT,NA,batch10pro,batch10pro,48,7,1,Screen 1,continueButton,response_rating_scale_likert_active,3365.89999999851,NA,NA,Strongly Disagree,1,0,1,0,NA,NA,NA,NA,1,statements,"Not everyone will have it, so what's the point.",1,17/06/2021 12:47,17/06/2021 13:09,IP Address,For (I feel positively about the vaccines),Rarely,A few times a year,54,Female,NA,GCSEs,choice,98,3,For,Against
10,1659975947709,08/08/2022 16:25:47,1659975947529,1,08/08/2022 17:25:47,94826,3,task-fbpo,NA,23527595,6895783,NA,complete,NA,62f138b86fc316ab5354d106,tablet,Samsung SM-T870,Android 12,Chrome 104.0.0.0,1205x753,1205x585,NA,ITT Ratings,2,for,10,NA,NA,NA,NA,NA,NA,NA,NA,ACCEPT,NA,batch10pro,batch10pro,10,8,1,Screen 1,continueButton,response_rating_scale_likert_active,2912.10000000149,NA,NA,Disagree,1,0,1,0,NA,NA,NA,NA,1,statements,I don't trust what's in the vaccine,1,17/06/2021 12:59,17/06/2021 13:08,IP Address,For (I feel positively about the vaccines),Rarely,A few times a year,23,Female,NA,A levels,choice,92,1,For,Against
11,1659975950279,08/08/2022 16:25:50,1659975950085,1,08/08/2022 17:25:50,94826,3,task-fbpo,NA,23527595,6895783,NA,complete,NA,62f138b86fc316ab5354d106,tablet,Samsung SM-T870,Android 12,Chrome 104.0.0.0,1205x753,1205x585,NA,ITT Ratings,2,for,10,NA,NA,NA,NA,NA,NA,NA,NA,ACCEPT,NA,batch10pro,batch10pro,37,9,1,Screen 1,continueButton,response_rating_scale_likert_active,2536.79999999702,NA,NA,Strongly Agree,1,0,1,0,NA,NA,NA,NA,1,statements,one step closer to things going back to normal,1,17/06/2021 12:58,17/06/2021 13:09,IP Address,For (I feel positively about the vaccines),A few times a year,Rarely,28,Female,NA,"Postgraduate degree (MSc, MA, MPhil)",control,96,1,For,For
12,1659975952351,08/08/2022 16:25:52,1659975952133,1,08/08/2022 17:25:52,94826,3,task-fbpo,NA,23527595,6895783,NA,complete,NA,62f138b86fc316ab5354d106,tablet,Samsung SM-T870,Android 12,Chrome 104.0.0.0,1205x753,1205x585,NA,ITT Ratings,2,for,10,NA,NA,NA,NA,NA,NA,NA,NA,ACCEPT,NA,batch10pro,batch10pro,60,10,1,Screen 1,continueButton,response_rating_scale_likert_active,2028.89999999851,NA,NA,Strongly Agree,1,0,1,0,NA,NA,NA,NA,1,statements,Help save more lives.,1,17/06/2021 12:48,17/06/2021 13:10,IP Address,For (I feel positively about the vaccines),Most months,A few times a year,42,Male,NA,Vocational Training / Apprenticeship,control,100,3,For,Against
13,1659975956181,08/08/2022 16:25:56,1659975955977,1,08/08/2022 17:25:55,94826,3,task-fbpo,NA,23527595,6895783,NA,complete,NA,62f138b86fc316ab5354d106,tablet,Samsung SM-T870,Android 12,Chrome 104.0.0.0,1205x753,1205x585,NA,ITT Ratings,2,for,10,NA,NA,NA,NA,NA,NA,NA,NA,ACCEPT,NA,batch10pro,batch10pro,54,11,1,Screen 1,continueButton,response_rating_scale_likert_active,3824.70000000298,NA,NA,Disagree,1,0,1,0,NA,NA,NA,NA,1,statements,"We dont know what the long term effects of taking it could be, like the ebola vaccine",1,17/06/2021 12:24,17/06/2021 13:09,IP Address,For (I feel positively about the vaccines),Rarely,Most weeks,30,Male,NA,"Postgraduate degree (MSc, MA, MPhil)",control,99,3,For,Against
14,1659975959579,08/08/2022 16:25:59,1659975959378,1,08/08/2022 17:25:59,94826,3,task-fbpo,NA,23527595,6895783,NA,complete,NA,62f138b86fc316ab5354d106,tablet,Samsung SM-T870,Android 12,Chrome 104.0.0.0,1205x753,1205x585,NA,ITT Ratings,2,for,10,NA,NA,NA,NA,NA,NA,NA,NA,ACCEPT,NA,batch10pro,batch10pro,62,12,1,Screen 1,continueButton,response_rating_scale_likert_active,3382.5999999940395,NA,NA,Disagree,1,0,1,0,NA,NA,NA,NA,1,statements,The government are scaring people with pumed stats,1,17/06/2021 12:48,17/06/2021 13:10,IP Address,For (I feel positively about the vaccines),Most months,A few times a year,42,Male,NA,Vocational Training / Apprenticeship,control,100,2,For,For
15,1659975962164,08/08/2022 16:26:02,1659975961945,1,08/08/2022 17:26:01,94826,3,task-fbpo,NA,23527595,6895783,NA,complete,NA,62f138b86fc316ab5354d106,tablet,Samsung SM-T870,Android 12,Chrome 104.0.0.0,1205x753,1205x585,NA,ITT Ratings,2,for,10,NA,NA,NA,NA,NA,NA,NA,NA,ACCEPT,NA,batch10pro,batch10pro,42,13,1,Screen 1,continueButton,response_rating_scale_likert_active,2547.89999999851,NA,NA,Strongly Disagree,1,0,1,0,NA,NA,NA,NA,1,statements,Covid is a hoax and a vaccine is pointless as it's a fake disease.,1,17/06/2021 12:46,17/06/2021 13:09,IP Address,For (I feel positively about the vaccines),Most weeks,Most months,33,Male,NA,A levels,control,97,3,For,Against
16,1659975966337,08/08/2022 16:26:06,1659975966143,1,08/08/2022 17:26:06,94826,3,task-fbpo,NA,23527595,6895783,NA,complete,NA,62f138b86fc316ab5354d106,tablet,Samsung SM-T870,Android 12,Chrome 104.0.0.0,1205x753,1205x585,NA,ITT Ratings,2,for,10,NA,NA,NA,NA,NA,NA,NA,NA,ACCEPT,NA,batch10pro,batch10pro,45,14,1,Screen 1,continueButton,response_rating_scale_likert_active,4178.89999999851,NA,NA,Strongly Agree,1,0,1,0,NA,NA,NA,NA,1,statements,The vaccines are reliable and there's no reason not to.,1,17/06/2021 12:46,17/06/2021 13:09,IP Address,For (I feel positively about the vaccines),Most weeks,Most months,33,Male,NA,A levels,control,97,3,For,For
17,1659975968576,08/08/2022 16:26:08,1659975968377,1,08/08/2022 17:26:08,94826,3,task-fbpo,NA,23527595,6895783,NA,complete,NA,62f138b86fc316ab5354d106,tablet,Samsung SM-T870,Android 12,Chrome 104.0.0.0,1205x753,1205x585,NA,ITT Ratings,2,for,10,NA,NA,NA,NA,NA,NA,NA,NA,ACCEPT,NA,batch10pro,batch10pro,40,15,1,Screen 1,continueButton,response_rating_scale_likert_active,2215.60000000149,NA,NA,Strongly Disagree,1,0,1,0,NA,NA,NA,NA,1,statements,The vaccine is government controlling citizens.,1,17/06/2021 12:46,17/06/2021 13:09,IP Address,For (I feel positively about the vaccines),Most weeks,Most months,33,Male,NA,A levels,control,97,1,For,Against
18,1659975973890,08/08/2022 16:26:13,1659975973685,1,08/08/2022 17:26:13,94826,3,task-fbpo,NA,23527595,6895783,NA,complete,NA,62f138b86fc316ab5354d106,tablet,Samsung SM-T870,Android 12,Chrome 104.0.0.0,1205x753,1205x585,NA,ITT Ratings,2,for,10,NA,NA,NA,NA,NA,NA,NA,NA,ACCEPT,NA,batch10pro,batch10pro,2,16,1,Screen 1,continueButton,response_rating_scale_likert_active,5288.20000000298,NA,NA,Somewhat Agree,1,0,1,0,NA,NA,NA,NA,1,statements,We would like to check you are reading each argument carefully. Please select 'Somewhat Agree' for this answer,1,NA,NA,NA,NA,NA,NA,NA,NA,NA,NA,NA,NA,check1,NA,NA
19,1659975976918,08/08/2022 16:26:16,1659975976695,1,08/08/2022 17:26:16,94826,3,task-fbpo,NA,23527595,6895783,NA,complete,NA,62f138b86fc316ab5354d106,tablet,Samsung SM-T870,Android 12,Chrome 104.0.0.0,1205x753,1205x585,NA,ITT Ratings,2,for,10,NA,NA,NA,NA,NA,NA,NA,NA,ACCEPT,NA,batch10pro,batch10pro,15,17,1,Screen 1,continueButton,response_rating_scale_likert_active,2989.89999999851,NA,NA,Strongly Agree,1,0,1,0,NA,NA,NA,NA,1,statements,I want to keep my friends and family safe,1,17/06/2021 12:59,17/06/2021 13:08,IP Address,For (I feel positively about the vaccines),Rarely,A few times a year,23,Female,NA,A levels,choice,92,3,For,For
20,1659975983767,08/08/2022 16:26:23,1659975983585,1,08/08/2022 17:26:23,94826,3,task-fbpo,NA,23527595,6895783,NA,complete,NA,62f138b86fc316ab5354d106,tablet,Samsung SM-T870,Android 12,Chrome 104.0.0.0,1205x753,1205x585,NA,ITT Ratings,2,for,10,NA,NA,NA,NA,NA,NA,NA,NA,ACCEPT,NA,batch10pro,batch10pro,58,18,1,Screen 1,continueButton,response_rating_scale_likert_active,6871,NA,NA,Strongly Agree,1,0,1,0,NA,NA,NA,NA,1,statements,The vaccine is safe check out the info before making a decision,1,17/06/2021 12:48,17/06/2021 13:10,IP Address,For (I feel positively about the vaccines),Most months,A few times a year,42,Male,NA,Vocational Training / Apprenticeship,control,100,1,For,Against
21,1659975987874,08/08/2022 16:26:27,1659975987669,1,08/08/2022 17:26:27,94826,3,task-fbpo,NA,23527595,6895783,NA,complete,NA,62f138b86fc316ab5354d106,tablet,Samsung SM-T870,Android 12,Chrome 104.0.0.0,1205x753,1205x585,NA,ITT Ratings,2,for,10,NA,NA,NA,NA,NA,NA,NA,NA,ACCEPT,NA,batch10pro,batch10pro,9,19,1,Screen 1,continueButton,response_rating_scale_likert_active,4065.599999994039,NA,NA,Strongly Agree,1,0,1,0,NA,NA,NA,NA,1,statements,I don't want to transmit COVID to my elderly relatives - vaccination seems like the best deterrent.,1,17/06/2021 12:59,17/06/2021 13:08,IP Address,For (I feel positively about the vaccines),A few times a year,Most weeks,24,Male,NA,"Postgraduate degree (MSc, MA, MPhil)",choice,91,3,For,For
22,1659975989629,08/08/2022 16:26:29,1659975989450,1,08/08/2022 17:26:29,94826,3,task-fbpo,NA,23527595,6895783,NA,complete,NA,62f138b86fc316ab5354d106,tablet,Samsung SM-T870,Android 12,Chrome 104.0.0.0,1205x753,1205x585,NA,ITT Ratings,2,for,10,NA,NA,NA,NA,NA,NA,NA,NA,ACCEPT,NA,batch10pro,batch10pro,14,20,1,Screen 1,continueButton,response_rating_scale_likert_active,1760.9000000059605,NA,NA,Strongly Agree,1,0,1,0,NA,NA,NA,NA,1,statements,I want to protect myself,1,17/06/2021 12:59,17/06/2021 13:08,IP Address,For (I feel positively about the vaccines),Rarely,A few times a year,23,Female,NA,A levels,choice,92,2,For,For
