Event.Index,UTC.Timestamp,UTC.Date,Local.Timestamp,Local.Timezone,Local.Date,Experiment.ID,Experiment.Version,Tree.Node.Key,Repeat.Key,Schedule.ID,Participant.Private.ID,Participant.Starting.Group,Participant.Status,Participant.Completion.Code,Participant.External.Session.ID,Participant.Device.Type,Participant.Device,Participant.OS,Participant.Browser,Participant.Monitor.Size,Participant.Viewport.Size,Checkpoint,Task.Name,Task.Version,branch.69an,randomiser.8vg2,quota.bqtt,quota.rycs,quota.wtfi,quota.usve,quota.zgic,quota.f3yz,quota.r9vy,quota.tfqq,quota.3dga,quota.dtj6,Spreadsheet,Spreadsheet.Name,Spreadsheet.Row,Trial.Number,Screen.Number,Screen.Name,Zone.Name,Zone.Type,Reaction.Time,Reaction.Onset,Response.Type,Response,Attempt,Correct,Incorrect,Dishonest,X.Coordinate,Y.Coordinate,Timed.Out,randomise_blocks,randomise_trials,display,Arguments,ShowProgressBar,StartDate,EndDate,Status,prolif_check,discuss_1,read_1,age,gender,gender_4_TEXT,edu,condition,ID,arg_ID,Position,Arg_Position
1,1659975488196,08/08/2022 16:18:08,1659975485867,1,08/08/2022 17:18:05,94826,3,task-j4ag,NA,23527440,6895725,NA,complete,NA,62f13728e7b41fb89ee357a8,mobile,Samsung SM-G973F,Android 12,Samsung Browser 17.0,869x412,778x340,NA,ITT Ratings,2,for,5,NA,NA,NA,ACCEPT,NA,NA,NA,NA,NA,NA,batch5pro,NA,NA,BEGIN TASK,NA,NA,NA,NA,NA,NA,NA,NA,NA,0,1,0,NA,NA,NA,NA,NA,NA,NA,NA,NA,NA,NA,NA,NA,NA,NA,NA,NA,NA,NA,NA,NA,NA,NA
2,1659975489651,08/08/2022 16:18:09,1659975487395,1,08/08/2022 17:18:07,94826,3,task-j4ag,NA,23527440,6895725,NA,complete,NA,62f13728e7b41fb89ee357a8,mobile,Samsung SM-G973F,Android 12,Samsung Browser 17.0,869x412,778x340,NA,ITT Ratings,2,for,5,NA,NA,NA,ACCEPT,NA,NA,NA,NA,NA,NA,batch5pro,batch5pro,1,1,1,Screen 1,advancementZone,continue_button,1457.0999999046326,NA,NA,NA,NA,0,1,0,NA,NA,NA,NA,NA,instructions,NA,NA,NA,NA,NA,NA,NA,NA,NA,NA,NA,NA,NA,NA,NA,NA,NA
3,1659975497002,08/08/2022 16:18:17,1659975494761,1,08/08/2022 17:18:14,94826,3,task-j4ag,NA,23527440,6895725,NA,complete,NA,62f13728e7b41fb89ee357a8,mobile,Samsung SM-G973F,Android 12,Samsung Browser 17.0,869x412,778x340,NA,ITT Ratings,2,for,5,NA,NA,NA,ACCEPT,NA,NA,NA,NA,NA,NA,batch5pro,batch5pro,62,1,1,Screen 1,continueButton,response_rating_scale_likert_active,7331.899999976158,NA,NA,Strongly Agree,1,0,1,0,NA,NA,NA,NA,1,statements,The vaccine is helping to het the Country back to a nee normal,1,17/06/2021 12:52,17/06/2021 12:57,IP Address,For (I feel positively about the vaccines),Most months,Most months,29,Female,NA,"Undergraduate degree (BSc, BA)",control,50,2,For,For
4,1659975502326,08/08/2022 16:18:22,1659975500081,1,08/08/2022 17:18:20,94826,3,task-j4ag,NA,23527440,6895725,NA,complete,NA,62f13728e7b41fb89ee357a8,mobile,Samsung SM-G973F,Android 12,Samsung Browser 17.0,869x412,778x340,NA,ITT Ratings,2,for,5,NA,NA,NA,ACCEPT,NA,NA,NA,NA,NA,NA,batch5pro,batch5pro,6,2,1,Screen 1,continueButton,response_rating_scale_likert_active,5275.399999976158,NA,NA,Strongly Disagree,1,0,1,0,NA,NA,NA,NA,1,statements,I don't believe in vaccines as I believe it alters my DNA which will effect my children.,1,17/06/2021 12:39,17/06/2021 12:54,IP Address,For (I feel positively about the vaccines),Rarely,Most months,38,Male,NA,"Undergraduate degree (BSc, BA)",choice,41,3,For,Against
5,1659975505297,08/08/2022 16:18:25,1659975503067,1,08/08/2022 17:18:23,94826,3,task-j4ag,NA,23527440,6895725,NA,complete,NA,62f13728e7b41fb89ee357a8,mobile,Samsung SM-G973F,Android 12,Samsung Browser 17.0,869x412,778x340,NA,ITT Ratings,2,for,5,NA,NA,NA,ACCEPT,NA,NA,NA,NA,NA,NA,batch5pro,batch5pro,46,3,1,Screen 1,continueButton,response_rating_scale_likert_active,2944.7999999523163,NA,NA,Strongly Disagree,1,0,1,0,NA,NA,NA,NA,1,statements,I don't trust what's in the vaccine.,1,17/06/2021 12:48,17/06/2021 12:57,IP Address,For (I feel positively about the vaccines),Rarely,Most months,25,Female,NA,A levels,choice,48,1,For,Against
6,1659975508031,08/08/2022 16:18:28,1659975505747,1,08/08/2022 17:18:25,94826,3,task-j4ag,NA,23527440,6895725,NA,complete,NA,62f13728e7b41fb89ee357a8,mobile,Samsung SM-G973F,Android 12,Samsung Browser 17.0,869x412,778x340,NA,ITT Ratings,2,for,5,NA,NA,NA,ACCEPT,NA,NA,NA,NA,NA,NA,batch5pro,batch5pro,49,4,1,Screen 1,continueButton,response_rating_scale_likert_active,2637.899999976158,NA,NA,Strongly Agree,1,0,1,0,NA,NA,NA,NA,1,statements,I want to be safe against covid,1,17/06/2021 12:48,17/06/2021 12:57,IP Address,For (I feel positively about the vaccines),Rarely,Most months,25,Female,NA,A levels,choice,48,1,For,For
7,1659975510695,08/08/2022 16:18:30,1659975508450,1,08/08/2022 17:18:28,94826,3,task-j4ag,NA,23527440,6895725,NA,complete,NA,62f13728e7b41fb89ee357a8,mobile,Samsung SM-G973F,Android 12,Samsung Browser 17.0,869x412,778x340,NA,ITT Ratings,2,for,5,NA,NA,NA,ACCEPT,NA,NA,NA,NA,NA,NA,batch5pro,batch5pro,15,5,1,Screen 1,continueButton,response_rating_scale_likert_active,2663.7000000476837,NA,NA,Strongly Agree,1,0,1,0,NA,NA,NA,NA,1,statements,I could meet my family again,1,17/06/2021 12:31,17/06/2021 12:55,IP Address,For (I feel positively about the vaccines),Most days,Most weeks,23,Female,NA,"Undergraduate degree (BSc, BA)",choice,42,3,For,For
8,1659975514841,08/08/2022 16:18:34,1659975512596,1,08/08/2022 17:18:32,94826,3,task-j4ag,NA,23527440,6895725,NA,complete,NA,62f13728e7b41fb89ee357a8,mobile,Samsung SM-G973F,Android 12,Samsung Browser 17.0,869x412,778x340,NA,ITT Ratings,2,for,5,NA,NA,NA,ACCEPT,NA,NA,NA,NA,NA,NA,batch5pro,batch5pro,12,6,1,Screen 1,continueButton,response_rating_scale_likert_active,4098.399999976158,NA,NA,Strongly Disagree,1,0,1,0,NA,NA,NA,NA,1,statements,I could become more ill,1,17/06/2021 12:31,17/06/2021 12:55,IP Address,For (I feel positively about the vaccines),Most days,Most weeks,23,Female,NA,"Undergraduate degree (BSc, BA)",choice,42,3,For,Against
9,1659975520038,08/08/2022 16:18:40,1659975517787,1,08/08/2022 17:18:37,94826,3,task-j4ag,NA,23527440,6895725,NA,complete,NA,62f13728e7b41fb89ee357a8,mobile,Samsung SM-G973F,Android 12,Samsung Browser 17.0,869x412,778x340,NA,ITT Ratings,2,for,5,NA,NA,NA,ACCEPT,NA,NA,NA,NA,NA,NA,batch5pro,batch5pro,22,7,1,Screen 1,continueButton,response_rating_scale_likert_active,5149.100000023842,NA,NA,Strongly Disagree,1,0,1,0,NA,NA,NA,NA,1,statements,"The vaccines were rushed into distribution, and as a result of that, they may be dangerous or ineffective.",1,17/06/2021 12:41,17/06/2021 12:56,IP Address,For (I feel positively about the vaccines),Most weeks,Most weeks,23,Male,NA,"Undergraduate degree (BSc, BA)",control,44,1,For,Against
10,1659975525055,08/08/2022 16:18:45,1659975522791,1,08/08/2022 17:18:42,94826,3,task-j4ag,NA,23527440,6895725,NA,complete,NA,62f13728e7b41fb89ee357a8,mobile,Samsung SM-G973F,Android 12,Samsung Browser 17.0,869x412,778x340,NA,ITT Ratings,2,for,5,NA,NA,NA,ACCEPT,NA,NA,NA,NA,NA,NA,batch5pro,batch5pro,13,8,1,Screen 1,continueButton,response_rating_scale_likert_active,4963.5,NA,NA,Strongly Agree,1,0,1,0,NA,NA,NA,NA,1,statements,It could protect others around me as well as myself,1,17/06/2021 12:31,17/06/2021 12:55,IP Address,For (I feel positively about the vaccines),Most days,Most weeks,23,Female,NA,"Undergraduate degree (BSc, BA)",choice,42,1,For,For
11,1659975527957,08/08/2022 16:18:47,1659975525726,1,08/08/2022 17:18:45,94826,3,task-j4ag,NA,23527440,6895725,NA,complete,NA,62f13728e7b41fb89ee357a8,mobile,Samsung SM-G973F,Android 12,Samsung Browser 17.0,869x412,778x340,NA,ITT Ratings,2,for,5,NA,NA,NA,ACCEPT,NA,NA,NA,NA,NA,NA,batch5pro,batch5pro,18,9,1,Screen 1,continueButton,response_rating_scale_likert_active,2888.899999976158,NA,NA,Strongly Disagree,1,0,1,0,NA,NA,NA,NA,1,statements,I do not believe the vaccination is safe,1,17/06/2021 12:45,17/06/2021 12:55,IP Address,For (I feel positively about the vaccines),Never,Rarely,27,Female,NA,A levels,control,43,3,For,Against
12,1659975534698,08/08/2022 16:18:54,1659975532446,1,08/08/2022 17:18:52,94826,3,task-j4ag,NA,23527440,6895725,NA,complete,NA,62f13728e7b41fb89ee357a8,mobile,Samsung SM-G973F,Android 12,Samsung Browser 17.0,869x412,778x340,NA,ITT Ratings,2,for,5,NA,NA,NA,ACCEPT,NA,NA,NA,NA,NA,NA,batch5pro,batch5pro,58,10,1,Screen 1,continueButton,response_rating_scale_likert_active,6677.300000071526,NA,NA,Strongly Disagree,1,0,1,0,NA,NA,NA,NA,1,statements,That the vaccine isn't safe,1,17/06/2021 12:52,17/06/2021 12:57,IP Address,For (I feel positively about the vaccines),Most months,Most months,29,Female,NA,"Undergraduate degree (BSc, BA)",control,50,1,For,Against
13,1659975537579,08/08/2022 16:18:57,1659975535341,1,08/08/2022 17:18:55,94826,3,task-j4ag,NA,23527440,6895725,NA,complete,NA,62f13728e7b41fb89ee357a8,mobile,Samsung SM-G973F,Android 12,Samsung Browser 17.0,869x412,778x340,NA,ITT Ratings,2,for,5,NA,NA,NA,ACCEPT,NA,NA,NA,NA,NA,NA,batch5pro,batch5pro,44,11,1,Screen 1,continueButton,response_rating_scale_likert_active,2855.1999999284744,NA,NA,Strongly Agree,1,0,1,0,NA,NA,NA,NA,1,statements,It will help protect myself,1,17/06/2021 12:45,17/06/2021 12:57,IP Address,For (I feel positively about the vaccines),Never,Most months,22,Female,NA,"Postgraduate degree (MSc, MA, MPhil)",control,47,2,For,For
14,1659975541158,08/08/2022 16:19:01,1659975538915,1,08/08/2022 17:18:58,94826,3,task-j4ag,NA,23527440,6895725,NA,complete,NA,62f13728e7b41fb89ee357a8,mobile,Samsung SM-G973F,Android 12,Samsung Browser 17.0,869x412,778x340,NA,ITT Ratings,2,for,5,NA,NA,NA,ACCEPT,NA,NA,NA,NA,NA,NA,batch5pro,batch5pro,24,12,1,Screen 1,continueButton,response_rating_scale_likert_active,3534.600000023842,NA,NA,Strongly Disagree,1,0,1,0,NA,NA,NA,NA,1,statements,The vaccine may contain something that we have not been told about.,1,17/06/2021 12:41,17/06/2021 12:56,IP Address,For (I feel positively about the vaccines),Most weeks,Most weeks,23,Male,NA,"Undergraduate degree (BSc, BA)",control,44,3,For,Against
15,1659975543985,08/08/2022 16:19:03,1659975541742,1,08/08/2022 17:19:01,94826,3,task-j4ag,NA,23527440,6895725,NA,complete,NA,62f13728e7b41fb89ee357a8,mobile,Samsung SM-G973F,Android 12,Samsung Browser 17.0,869x412,778x340,NA,ITT Ratings,2,for,5,NA,NA,NA,ACCEPT,NA,NA,NA,NA,NA,NA,batch5pro,batch5pro,63,13,1,Screen 1,continueButton,response_rating_scale_likert_active,2790.100000023842,NA,NA,Strongly Agree,1,0,1,0,NA,NA,NA,NA,1,statements,You can go on holiday,1,17/06/2021 12:52,17/06/2021 12:57,IP Address,For (I feel positively about the vaccines),Most months,Most months,29,Female,NA,"Undergraduate degree (BSc, BA)",control,50,3,For,For
16,1659975548321,08/08/2022 16:19:08,1659975546069,1,08/08/2022 17:19:06,94826,3,task-j4ag,NA,23527440,6895725,NA,complete,NA,62f13728e7b41fb89ee357a8,mobile,Samsung SM-G973F,Android 12,Samsung Browser 17.0,869x412,778x340,NA,ITT Ratings,2,for,5,NA,NA,NA,ACCEPT,NA,NA,NA,NA,NA,NA,batch5pro,batch5pro,54,14,1,Screen 1,continueButton,response_rating_scale_likert_active,4272.5,NA,NA,Strongly Disagree,1,0,1,0,NA,NA,NA,NA,1,statements,I would rather risk it and rely on immune system.,1,17/06/2021 12:49,17/06/2021 12:57,IP Address,For (I feel positively about the vaccines),Rarely,A few times a year,38,Male,NA,GCSEs,control,49,3,For,Against
17,1659975552289,08/08/2022 16:19:12,1659975550051,1,08/08/2022 17:19:10,94826,3,task-j4ag,NA,23527440,6895725,NA,complete,NA,62f13728e7b41fb89ee357a8,mobile,Samsung SM-G973F,Android 12,Samsung Browser 17.0,869x412,778x340,NA,ITT Ratings,2,for,5,NA,NA,NA,ACCEPT,NA,NA,NA,NA,NA,NA,batch5pro,batch5pro,41,15,1,Screen 1,continueButton,response_rating_scale_likert_active,3942.100000023842,NA,NA,Strongly Disagree,1,0,1,0,NA,NA,NA,NA,1,statements,I am under the impression that vaccinations and autism are linked,1,17/06/2021 12:45,17/06/2021 12:57,IP Address,For (I feel positively about the vaccines),Never,Most months,22,Female,NA,"Postgraduate degree (MSc, MA, MPhil)",control,47,2,For,Against
18,1659975555401,08/08/2022 16:19:15,1659975553164,1,08/08/2022 17:19:13,94826,3,task-j4ag,NA,23527440,6895725,NA,complete,NA,62f13728e7b41fb89ee357a8,mobile,Samsung SM-G973F,Android 12,Samsung Browser 17.0,869x412,778x340,NA,ITT Ratings,2,for,5,NA,NA,NA,ACCEPT,NA,NA,NA,NA,NA,NA,batch5pro,batch5pro,19,16,1,Screen 1,continueButton,response_rating_scale_likert_active,3075.600000023842,NA,NA,Strongly Agree,1,0,1,0,NA,NA,NA,NA,1,statements,I believe the vaccine is beneficial and will provide protection,1,17/06/2021 12:45,17/06/2021 12:55,IP Address,For (I feel positively about the vaccines),Never,Rarely,27,Female,NA,A levels,control,43,1,For,For
19,1659975558469,08/08/2022 16:19:18,1659975556229,1,08/08/2022 17:19:16,94826,3,task-j4ag,NA,23527440,6895725,NA,complete,NA,62f13728e7b41fb89ee357a8,mobile,Samsung SM-G973F,Android 12,Samsung Browser 17.0,869x412,778x340,NA,ITT Ratings,2,for,5,NA,NA,NA,ACCEPT,NA,NA,NA,NA,NA,NA,batch5pro,batch5pro,57,17,1,Screen 1,continueButton,response_rating_scale_likert_active,3025.100000023842,NA,NA,Strongly Agree,1,0,1,0,NA,NA,NA,NA,1,statements,To assist in getting through this pandemic,1,17/06/2021 12:49,17/06/2021 12:57,IP Address,For (I feel positively about the vaccines),Rarely,A few times a year,38,Male,NA,GCSEs,control,49,3,For,For
20,1659975561765,08/08/2022 16:19:21,1659975559529,1,08/08/2022 17:19:19,94826,3,task-j4ag,NA,23527440,6895725,NA,complete,NA,62f13728e7b41fb89ee357a8,mobile,Samsung SM-G973F,Android 12,Samsung Browser 17.0,869x412,778x340,NA,ITT Ratings,2,for,5,NA,NA,NA,ACCEPT,NA,NA,NA,NA,NA,NA,batch5pro,batch5pro,26,18,1,Screen 1,continueButton,response_rating_scale_likert_active,3263.7999999523163,NA,NA,Strongly Agree,1,0,1,0,NA,NA,NA,NA,1,statements,So I can see my family and friends without fear of contracting the virus.,1,17/06/2021 12:41,17/06/2021 12:56,IP Address,For (I feel positively about the vaccines),Most weeks,Most weeks,23,Male,NA,"Undergraduate degree (BSc, BA)",control,44,2,For,For
21,1659975566641,08/08/2022 16:19:26,1659975564389,1,08/08/2022 17:19:24,94826,3,task-j4ag,NA,23527440,6895725,NA,complete,NA,62f13728e7b41fb89ee357a8,mobile,Samsung SM-G973F,Android 12,Samsung Browser 17.0,869x412,778x340,NA,ITT Ratings,2,for,5,NA,NA,NA,ACCEPT,NA,NA,NA,NA,NA,NA,batch5pro,batch5pro,29,19,1,Screen 1,continueButton,response_rating_scale_likert_active,4828.699999928474,NA,NA,Strongly Disagree,1,0,1,0,NA,NA,NA,NA,1,statements,I feel the vaccine has been developed too quickly and not tested rigorously enough to the sure that it is safe.,1,17/06/2021 12:44,17/06/2021 12:56,IP Address,For (I feel positively about the vaccines),Rarely,Rarely,40,Female,NA,"Undergraduate degree (BSc, BA)",choice,45,2,For,Against
22,1659975574323,08/08/2022 16:19:34,1659975572065,1,08/08/2022 17:19:32,94826,3,task-j4ag,NA,23527440,6895725,NA,complete,NA,62f13728e7b41fb89ee357a8,mobile,Samsung SM-G973F,Android 12,Samsung Browser 17.0,869x412,778x340,NA,ITT Ratings,2,for,5,NA,NA,NA,ACCEPT,NA,NA,NA,NA,NA,NA,batch5pro,batch5pro,2,20,1,Screen 1,continueButton,response_rating_scale_likert_active,7633.100000023842,NA,NA,Somewhat Agree,1,0,1,0,NA,NA,NA,NA,1,statements,We would like to check you are reading each argument carefully. Please select 'Somewhat Agree' for this answer,1,NA,NA,NA,NA,NA,NA,NA,NA,NA,NA,NA,NA,check1,NA,NA
23,1659975581479,08/08/2022 16:19:41,1659975579228,1,08/08/2022 17:19:39,94826,3,task-j4ag,NA,23527440,6895725,NA,complete,NA,62f13728e7b41fb89ee357a8,mobile,Samsung SM-G973F,Android 12,Samsung Browser 17.0,869x412,778x340,NA,ITT Ratings,2,for,5,NA,NA,NA,ACCEPT,NA,NA,NA,NA,NA,NA,batch5pro,batch5pro,5,21,1,Screen 1,continueButton,response_rating_scale_likert_active,7124.699999928474,NA,NA,Strongly Disagree,1,0,1,0,NA,NA,NA,NA,1,statements,The Government are having to insure the vaccines,1,17/06/2021 12:39,17/06/2021 12:54,IP Address,For (I feel positively about the vaccines),Rarely,Most months,38,Male,NA,"Undergraduate degree (BSc, BA)",choice,41,2,For,Against
24,1659975585263,08/08/2022 16:19:45,1659975583010,1,08/08/2022 17:19:43,94826,3,task-j4ag,NA,23527440,6895725,NA,complete,NA,62f13728e7b41fb89ee357a8,mobile,Samsung SM-G973F,Android 12,Samsung Browser 17.0,869x412,778x340,NA,ITT Ratings,2,for,5,NA,NA,NA,ACCEPT,NA,NA,NA,NA,NA,NA,batch5pro,batch5pro,45,22,1,Screen 1,continueButton,response_rating_scale_likert_active,3743,NA,NA,Strongly Agree,1,0,1,0,NA,NA,NA,NA,1,statements,"It will help protect the general population, and stop the spread of COVID-19",1,17/06/2021 12:45,17/06/2021 12:57,IP Address,For (I feel positively about the vaccines),Never,Most months,22,Female,NA,"Postgraduate degree (MSc, MA, MPhil)",control,47,3,For,For
25,1659975587754,08/08/2022 16:19:47,1659975585506,1,08/08/2022 17:19:45,94826,3,task-j4ag,NA,23527440,6895725,NA,complete,NA,62f13728e7b41fb89ee357a8,mobile,Samsung SM-G973F,Android 12,Samsung Browser 17.0,869x412,778x340,NA,ITT Ratings,2,for,5,NA,NA,NA,ACCEPT,NA,NA,NA,NA,NA,NA,batch5pro,batch5pro,47,23,1,Screen 1,continueButton,response_rating_scale_likert_active,2449.2000000476837,NA,NA,Strongly Disagree,1,0,1,0,NA,NA,NA,NA,1,statements,I don't think covid is real.,1,17/06/2021 12:48,17/06/2021 12:57,IP Address,For (I feel positively about the vaccines),Rarely,Most months,25,Female,NA,A levels,choice,48,2,For,Against
26,1659975593199,08/08/2022 16:19:53,1659975590956,1,08/08/2022 17:19:50,94826,3,task-j4ag,NA,23527440,6895725,NA,complete,NA,62f13728e7b41fb89ee357a8,mobile,Samsung SM-G973F,Android 12,Samsung Browser 17.0,869x412,778x340,NA,ITT Ratings,2,for,5,NA,NA,NA,ACCEPT,NA,NA,NA,NA,NA,NA,batch5pro,batch5pro,23,24,1,Screen 1,continueButton,response_rating_scale_likert_active,5410.800000071526,NA,NA,Strongly Disagree,1,0,1,0,NA,NA,NA,NA,1,statements,The side-effects of taking the vaccine are not worth the hassle of receiving a vaccine.,1,17/06/2021 12:41,17/06/2021 12:56,IP Address,For (I feel positively about the vaccines),Most weeks,Most weeks,23,Male,NA,"Undergraduate degree (BSc, BA)",control,44,2,For,Against
27,1659975596029,08/08/2022 16:19:56,1659975593791,1,08/08/2022 17:19:53,94826,3,task-j4ag,NA,23527440,6895725,NA,complete,NA,62f13728e7b41fb89ee357a8,mobile,Samsung SM-G973F,Android 12,Samsung Browser 17.0,869x412,778x340,NA,ITT Ratings,2,for,5,NA,NA,NA,ACCEPT,NA,NA,NA,NA,NA,NA,batch5pro,batch5pro,35,25,1,Screen 1,continueButton,response_rating_scale_likert_active,2794,NA,NA,Strongly Disagree,1,0,1,0,NA,NA,NA,NA,1,statements,health reasons and I can not take  it,1,17/06/2021 12:46,17/06/2021 12:56,IP Address,For (I feel positively about the vaccines),A few times a year,A few times a year,53,Female,NA,Vocational Training / Apprenticeship,control,46,2,For,Against
28,1659975599545,08/08/2022 16:19:59,1659975597293,1,08/08/2022 17:19:57,94826,3,task-j4ag,NA,23527440,6895725,NA,complete,NA,62f13728e7b41fb89ee357a8,mobile,Samsung SM-G973F,Android 12,Samsung Browser 17.0,869x412,778x340,NA,ITT Ratings,2,for,5,NA,NA,NA,ACCEPT,NA,NA,NA,NA,NA,NA,batch5pro,batch5pro,55,26,1,Screen 1,continueButton,response_rating_scale_likert_active,3462.899999976158,NA,NA,Strongly Agree,1,0,1,0,NA,NA,NA,NA,1,statements,It's safe and I want to ensure people around me are safe,1,17/06/2021 12:49,17/06/2021 12:57,IP Address,For (I feel positively about the vaccines),Rarely,A few times a year,38,Male,NA,GCSEs,control,49,1,For,For
29,1659975604937,08/08/2022 16:20:04,1659975602700,1,08/08/2022 17:20:02,94826,3,task-j4ag,NA,23527440,6895725,NA,complete,NA,62f13728e7b41fb89ee357a8,mobile,Samsung SM-G973F,Android 12,Samsung Browser 17.0,869x412,778x340,NA,ITT Ratings,2,for,5,NA,NA,NA,ACCEPT,NA,NA,NA,NA,NA,NA,batch5pro,batch5pro,51,27,1,Screen 1,continueButton,response_rating_scale_likert_active,5367.899999976158,NA,NA,Neither Agree nor Disagree,1,0,1,0,NA,NA,NA,NA,1,statements,I have been told it's the right thing by my doctor,1,17/06/2021 12:48,17/06/2021 12:57,IP Address,For (I feel positively about the vaccines),Rarely,Most months,25,Female,NA,A levels,choice,48,3,For,For
30,1659975608198,08/08/2022 16:20:08,1659975605938,1,08/08/2022 17:20:05,94826,3,task-j4ag,NA,23527440,6895725,NA,complete,NA,62f13728e7b41fb89ee357a8,mobile,Samsung SM-G973F,Android 12,Samsung Browser 17.0,869x412,778x340,NA,ITT Ratings,2,for,5,NA,NA,NA,ACCEPT,NA,NA,NA,NA,NA,NA,batch5pro,batch5pro,60,28,1,Screen 1,continueButton,response_rating_scale_likert_active,3200.899999976158,NA,NA,Neither Agree nor Disagree,1,0,1,0,NA,NA,NA,NA,1,statements,I've already had covid,1,17/06/2021 12:52,17/06/2021 12:57,IP Address,For (I feel positively about the vaccines),Most months,Most months,29,Female,NA,"Undergraduate degree (BSc, BA)",control,50,3,For,Against
31,1659975614548,08/08/2022 16:20:14,1659975612292,1,08/08/2022 17:20:12,94826,3,task-j4ag,NA,23527440,6895725,NA,complete,NA,62f13728e7b41fb89ee357a8,mobile,Samsung SM-G973F,Android 12,Samsung Browser 17.0,869x412,778x340,NA,ITT Ratings,2,for,5,NA,NA,NA,ACCEPT,NA,NA,NA,NA,NA,NA,batch5pro,batch5pro,38,29,1,Screen 1,continueButton,response_rating_scale_likert_active,6316.299999952316,NA,NA,Strongly Agree,1,0,1,0,NA,NA,NA,NA,1,statements,the evidence and information relating to the vaccine is positive,1,17/06/2021 12:46,17/06/2021 12:56,IP Address,For (I feel positively about the vaccines),A few times a year,A few times a year,53,Female,NA,Vocational Training / Apprenticeship,control,46,2,For,For
32,1659975617089,08/08/2022 16:20:17,1659975614833,1,08/08/2022 17:20:14,94826,3,task-j4ag,NA,23527440,6895725,NA,complete,NA,62f13728e7b41fb89ee357a8,mobile,Samsung SM-G973F,Android 12,Samsung Browser 17.0,869x412,778x340,NA,ITT Ratings,2,for,5,NA,NA,NA,ACCEPT,NA,NA,NA,NA,NA,NA,batch5pro,batch5pro,28,30,1,Screen 1,continueButton,response_rating_scale_likert_active,2501.7000000476837,NA,NA,Strongly Disagree,1,0,1,0,NA,NA,NA,NA,1,statements,I am allergic to one of the ingredients in the vaccine.,1,17/06/2021 12:44,17/06/2021 12:56,IP Address,For (I feel positively about the vaccines),Rarely,Rarely,40,Female,NA,"Undergraduate degree (BSc, BA)",choice,45,1,For,Against
33,1659975618898,08/08/2022 16:20:18,1659975616617,1,08/08/2022 17:20:16,94826,3,task-j4ag,NA,23527440,6895725,NA,complete,NA,62f13728e7b41fb89ee357a8,mobile,Samsung SM-G973F,Android 12,Samsung Browser 17.0,869x412,778x340,NA,ITT Ratings,2,for,5,NA,NA,NA,ACCEPT,NA,NA,NA,NA,NA,NA,batch5pro,batch5pro,33,31,1,Screen 1,continueButton,response_rating_scale_likert_active,1736.7999999523165,NA,NA,Strongly Agree,1,0,1,0,NA,NA,NA,NA,1,statements,I believe it is safe.,1,17/06/2021 12:44,17/06/2021 12:56,IP Address,For (I feel positively about the vaccines),Rarely,Rarely,40,Female,NA,"Undergraduate degree (BSc, BA)",choice,45,3,For,For
34,1659975620804,08/08/2022 16:20:20,1659975618493,1,08/08/2022 17:20:18,94826,3,task-j4ag,NA,23527440,6895725,NA,complete,NA,62f13728e7b41fb89ee357a8,mobile,Samsung SM-G973F,Android 12,Samsung Browser 17.0,869x412,778x340,NA,ITT Ratings,2,for,5,NA,NA,NA,ACCEPT,NA,NA,NA,NA,NA,NA,batch5pro,batch5pro,21,32,1,Screen 1,continueButton,response_rating_scale_likert_active,1834.1999999284744,NA,NA,Strongly Agree,1,0,1,0,NA,NA,NA,NA,1,statements,I want to be protected against covid,1,17/06/2021 12:45,17/06/2021 12:55,IP Address,For (I feel positively about the vaccines),Never,Rarely,27,Female,NA,A levels,control,43,3,For,For
35,1659975623744,08/08/2022 16:20:23,1659975621435,1,08/08/2022 17:20:21,94826,3,task-j4ag,NA,23527440,6895725,NA,complete,NA,62f13728e7b41fb89ee357a8,mobile,Samsung SM-G973F,Android 12,Samsung Browser 17.0,869x412,778x340,NA,ITT Ratings,2,for,5,NA,NA,NA,ACCEPT,NA,NA,NA,NA,NA,NA,batch5pro,batch5pro,10,33,1,Screen 1,continueButton,response_rating_scale_likert_active,2903.1999999284744,NA,NA,Strongly Disagree,1,0,1,0,NA,NA,NA,NA,1,statements,They haven't had enough time to create the vaccine,1,17/06/2021 12:31,17/06/2021 12:55,IP Address,For (I feel positively about the vaccines),Most days,Most weeks,23,Female,NA,"Undergraduate degree (BSc, BA)",choice,42,1,For,Against
36,1659975627803,08/08/2022 16:20:27,1659975625555,1,08/08/2022 17:20:25,94826,3,task-j4ag,NA,23527440,6895725,NA,complete,NA,62f13728e7b41fb89ee357a8,mobile,Samsung SM-G973F,Android 12,Samsung Browser 17.0,869x412,778x340,NA,ITT Ratings,2,for,5,NA,NA,NA,ACCEPT,NA,NA,NA,NA,NA,NA,batch5pro,batch5pro,32,34,1,Screen 1,continueButton,response_rating_scale_likert_active,4080.8000000715256,NA,NA,Strongly Agree,1,0,1,0,NA,NA,NA,NA,1,statements,It protects me and others around me by reducing the likelihood of me spreading the disease to others.,1,17/06/2021 12:44,17/06/2021 12:56,IP Address,For (I feel positively about the vaccines),Rarely,Rarely,40,Female,NA,"Undergraduate degree (BSc, BA)",choice,45,2,For,For
37,1659975630584,08/08/2022 16:20:30,1659975628331,1,08/08/2022 17:20:28,94826,3,task-j4ag,NA,23527440,6895725,NA,complete,NA,62f13728e7b41fb89ee357a8,mobile,Samsung SM-G973F,Android 12,Samsung Browser 17.0,869x412,778x340,NA,ITT Ratings,2,for,5,NA,NA,NA,ACCEPT,NA,NA,NA,NA,NA,NA,batch5pro,batch5pro,43,35,1,Screen 1,continueButton,response_rating_scale_likert_active,2738.900000095367,NA,NA,Strongly Agree,1,0,1,0,NA,NA,NA,NA,1,statements,The vaccine is safe and 95% effective,1,17/06/2021 12:45,17/06/2021 12:57,IP Address,For (I feel positively about the vaccines),Never,Most months,22,Female,NA,"Postgraduate degree (MSc, MA, MPhil)",control,47,1,For,For
38,1659975635066,08/08/2022 16:20:35,1659975632827,1,08/08/2022 17:20:32,94826,3,task-j4ag,NA,23527440,6895725,NA,complete,NA,62f13728e7b41fb89ee357a8,mobile,Samsung SM-G973F,Android 12,Samsung Browser 17.0,869x412,778x340,NA,ITT Ratings,2,for,5,NA,NA,NA,ACCEPT,NA,NA,NA,NA,NA,NA,batch5pro,batch5pro,34,36,1,Screen 1,continueButton,response_rating_scale_likert_active,4459.800000071526,NA,NA,Strongly Disagree,1,0,1,0,NA,NA,NA,NA,1,statements,government keeping track of us,1,17/06/2021 12:46,17/06/2021 12:56,IP Address,For (I feel positively about the vaccines),A few times a year,A few times a year,53,Female,NA,Vocational Training / Apprenticeship,control,46,1,For,Against
39,1659975637383,08/08/2022 16:20:37,1659975635118,1,08/08/2022 17:20:35,94826,3,task-j4ag,NA,23527440,6895725,NA,complete,NA,62f13728e7b41fb89ee357a8,mobile,Samsung SM-G973F,Android 12,Samsung Browser 17.0,869x412,778x340,NA,ITT Ratings,2,for,5,NA,NA,NA,ACCEPT,NA,NA,NA,NA,NA,NA,batch5pro,batch5pro,56,37,1,Screen 1,continueButton,response_rating_scale_likert_active,2253.5,NA,NA,Strongly Agree,1,0,1,0,NA,NA,NA,NA,1,statements,It's for the better good.,1,17/06/2021 12:49,17/06/2021 12:57,IP Address,For (I feel positively about the vaccines),Rarely,A few times a year,38,Male,NA,GCSEs,control,49,2,For,For
40,1659975640055,08/08/2022 16:20:40,1659975637808,1,08/08/2022 17:20:37,94826,3,task-j4ag,NA,23527440,6895725,NA,complete,NA,62f13728e7b41fb89ee357a8,mobile,Samsung SM-G973F,Android 12,Samsung Browser 17.0,869x412,778x340,NA,ITT Ratings,2,for,5,NA,NA,NA,ACCEPT,NA,NA,NA,NA,NA,NA,batch5pro,batch5pro,42,38,1,Screen 1,continueButton,response_rating_scale_likert_active,2652.2000000476837,NA,NA,Neither Agree nor Disagree,1,0,1,0,NA,NA,NA,NA,1,statements,I have a weak immune system,1,17/06/2021 12:45,17/06/2021 12:57,IP Address,For (I feel positively about the vaccines),Never,Most months,22,Female,NA,"Postgraduate degree (MSc, MA, MPhil)",control,47,3,For,Against
41,1659975644307,08/08/2022 16:20:44,1659975641901,1,08/08/2022 17:20:41,94826,3,task-j4ag,NA,23527440,6895725,NA,complete,NA,62f13728e7b41fb89ee357a8,mobile,Samsung SM-G973F,Android 12,Samsung Browser 17.0,869x412,778x340,NA,ITT Ratings,2,for,5,NA,NA,NA,ACCEPT,NA,NA,NA,NA,NA,NA,batch5pro,batch5pro,31,39,1,Screen 1,continueButton,response_rating_scale_likert_active,4054.599999904633,NA,NA,Strongly Agree,1,0,1,0,NA,NA,NA,NA,1,statements,It is a way of protecting from the serious health implications of catching covid.,1,17/06/2021 12:44,17/06/2021 12:56,IP Address,For (I feel positively about the vaccines),Rarely,Rarely,40,Female,NA,"Undergraduate degree (BSc, BA)",choice,45,1,For,For
42,1659975645863,08/08/2022 16:20:45,1659975643612,1,08/08/2022 17:20:43,94826,3,task-j4ag,NA,23527440,6895725,NA,complete,NA,62f13728e7b41fb89ee357a8,mobile,Samsung SM-G973F,Android 12,Samsung Browser 17.0,869x412,778x340,NA,ITT Ratings,2,for,5,NA,NA,NA,ACCEPT,NA,NA,NA,NA,NA,NA,batch5pro,batch5pro,20,40,1,Screen 1,continueButton,response_rating_scale_likert_active,1662.399999976158,NA,NA,Strongly Agree,1,0,1,0,NA,NA,NA,NA,1,statements,I believe all vaccines help,1,17/06/2021 12:45,17/06/2021 12:55,IP Address,For (I feel positively about the vaccines),Never,Rarely,27,Female,NA,A levels,control,43,2,For,For
43,1659975648131,08/08/2022 16:20:48,1659975645893,1,08/08/2022 17:20:45,94826,3,task-j4ag,NA,23527440,6895725,NA,complete,NA,62f13728e7b41fb89ee357a8,mobile,Samsung SM-G973F,Android 12,Samsung Browser 17.0,869x412,778x340,NA,ITT Ratings,2,for,5,NA,NA,NA,ACCEPT,NA,NA,NA,NA,NA,NA,batch5pro,batch5pro,61,41,1,Screen 1,continueButton,response_rating_scale_likert_active,2243.899999976158,NA,NA,Strongly Agree,1,0,1,0,NA,NA,NA,NA,1,statements,That the vaccine is safe,1,17/06/2021 12:52,17/06/2021 12:57,IP Address,For (I feel positively about the vaccines),Most months,Most months,29,Female,NA,"Undergraduate degree (BSc, BA)",control,50,1,For,For
44,1659975651853,08/08/2022 16:20:51,1659975649614,1,08/08/2022 17:20:49,94826,3,task-j4ag,NA,23527440,6895725,NA,complete,NA,62f13728e7b41fb89ee357a8,mobile,Samsung SM-G973F,Android 12,Samsung Browser 17.0,869x412,778x340,NA,ITT Ratings,2,for,5,NA,NA,NA,ACCEPT,NA,NA,NA,NA,NA,NA,batch5pro,batch5pro,40,42,1,Screen 1,continueButton,response_rating_scale_likert_active,3683.299999952316,NA,NA,Strongly Disagree,1,0,1,0,NA,NA,NA,NA,1,statements,I do not trust the people who have made the vaccine,1,17/06/2021 12:45,17/06/2021 12:57,IP Address,For (I feel positively about the vaccines),Never,Most months,22,Female,NA,"Postgraduate degree (MSc, MA, MPhil)",control,47,1,For,Against
45,1659975654063,08/08/2022 16:20:54,1659975651822,1,08/08/2022 17:20:51,94826,3,task-j4ag,NA,23527440,6895725,NA,complete,NA,62f13728e7b41fb89ee357a8,mobile,Samsung SM-G973F,Android 12,Samsung Browser 17.0,869x412,778x340,NA,ITT Ratings,2,for,5,NA,NA,NA,ACCEPT,NA,NA,NA,NA,NA,NA,batch5pro,batch5pro,52,43,1,Screen 1,continueButton,response_rating_scale_likert_active,2170.899999976158,NA,NA,Strongly Disagree,1,0,1,0,NA,NA,NA,NA,1,statements,Unsafe and could cause side effects,1,17/06/2021 12:49,17/06/2021 12:57,IP Address,For (I feel positively about the vaccines),Rarely,A few times a year,38,Male,NA,GCSEs,control,49,1,For,Against
46,1659975656483,08/08/2022 16:20:56,1659975654252,1,08/08/2022 17:20:54,94826,3,task-j4ag,NA,23527440,6895725,NA,complete,NA,62f13728e7b41fb89ee357a8,mobile,Samsung SM-G973F,Android 12,Samsung Browser 17.0,869x412,778x340,NA,ITT Ratings,2,for,5,NA,NA,NA,ACCEPT,NA,NA,NA,NA,NA,NA,batch5pro,batch5pro,50,44,1,Screen 1,continueButton,response_rating_scale_likert_active,2391.899999976158,NA,NA,Strongly Agree,1,0,1,0,NA,NA,NA,NA,1,statements,I want to help keep other people safe from covid,1,17/06/2021 12:48,17/06/2021 12:57,IP Address,For (I feel positively about the vaccines),Rarely,Most months,25,Female,NA,A levels,choice,48,2,For,For
47,1659975659159,08/08/2022 16:20:59,1659975656912,1,08/08/2022 17:20:56,94826,3,task-j4ag,NA,23527440,6895725,NA,complete,NA,62f13728e7b41fb89ee357a8,mobile,Samsung SM-G973F,Android 12,Samsung Browser 17.0,869x412,778x340,NA,ITT Ratings,2,for,5,NA,NA,NA,ACCEPT,NA,NA,NA,NA,NA,NA,batch5pro,batch5pro,9,45,1,Screen 1,continueButton,response_rating_scale_likert_active,2623.899999976158,NA,NA,Strongly Agree,1,0,1,0,NA,NA,NA,NA,1,statements,I want to be able to be able to participate in group activities.,1,17/06/2021 12:39,17/06/2021 12:54,IP Address,For (I feel positively about the vaccines),Rarely,Most months,38,Male,NA,"Undergraduate degree (BSc, BA)",choice,41,3,For,For
48,1659975666825,08/08/2022 16:21:06,1659975664582,1,08/08/2022 17:21:04,94826,3,task-j4ag,NA,23527440,6895725,NA,complete,NA,62f13728e7b41fb89ee357a8,mobile,Samsung SM-G973F,Android 12,Samsung Browser 17.0,869x412,778x340,NA,ITT Ratings,2,for,5,NA,NA,NA,ACCEPT,NA,NA,NA,NA,NA,NA,batch5pro,batch5pro,3,46,1,Screen 1,continueButton,response_rating_scale_likert_active,7629.600000023842,NA,NA,Somewhat Disagree,1,0,1,0,NA,NA,NA,NA,1,statements,We would like to check you are reading each argument carefully. Please select 'Somewhat Disagree' for this answer,1,NA,NA,NA,NA,NA,NA,NA,NA,NA,NA,NA,NA,check2,NA,NA
49,1659975669031,08/08/2022 16:21:09,1659975666761,1,08/08/2022 17:21:06,94826,3,task-j4ag,NA,23527440,6895725,NA,complete,NA,62f13728e7b41fb89ee357a8,mobile,Samsung SM-G973F,Android 12,Samsung Browser 17.0,869x412,778x340,NA,ITT Ratings,2,for,5,NA,NA,NA,ACCEPT,NA,NA,NA,NA,NA,NA,batch5pro,batch5pro,37,47,1,Screen 1,continueButton,response_rating_scale_likert_active,2140.899999976158,NA,NA,Strongly Agree,1,0,1,0,NA,NA,NA,NA,1,statements,to protect myself and family,1,17/06/2021 12:46,17/06/2021 12:56,IP Address,For (I feel positively about the vaccines),A few times a year,A few times a year,53,Female,NA,Vocational Training / Apprenticeship,control,46,1,For,For
50,1659975672022,08/08/2022 16:21:12,1659975669763,1,08/08/2022 17:21:09,94826,3,task-j4ag,NA,23527440,6895725,NA,complete,NA,62f13728e7b41fb89ee357a8,mobile,Samsung SM-G973F,Android 12,Samsung Browser 17.0,869x412,778x340,NA,ITT Ratings,2,for,5,NA,NA,NA,ACCEPT,NA,NA,NA,NA,NA,NA,batch5pro,batch5pro,14,48,1,Screen 1,continueButton,response_rating_scale_likert_active,2956,NA,NA,Strongly Agree,1,0,1,0,NA,NA,NA,NA,1,statements,It would mean that the rate of infection would go down,1,17/06/2021 12:31,17/06/2021 12:55,IP Address,For (I feel positively about the vaccines),Most days,Most weeks,23,Female,NA,"Undergraduate degree (BSc, BA)",choice,42,2,For,For
51,1659975675142,08/08/2022 16:21:15,1659975672837,1,08/08/2022 17:21:12,94826,3,task-j4ag,NA,23527440,6895725,NA,complete,NA,62f13728e7b41fb89ee357a8,mobile,Samsung SM-G973F,Android 12,Samsung Browser 17.0,869x412,778x340,NA,ITT Ratings,2,for,5,NA,NA,NA,ACCEPT,NA,NA,NA,NA,NA,NA,batch5pro,batch5pro,48,49,1,Screen 1,continueButton,response_rating_scale_likert_active,3036.399999976158,NA,NA,Strongly Disagree,1,0,1,0,NA,NA,NA,NA,1,statements,I don't want to be injected to with something that can make me ill.,1,17/06/2021 12:48,17/06/2021 12:57,IP Address,For (I feel positively about the vaccines),Rarely,Most months,25,Female,NA,A levels,choice,48,3,For,Against
52,1659975677876,08/08/2022 16:21:17,1659975675632,1,08/08/2022 17:21:15,94826,3,task-j4ag,NA,23527440,6895725,NA,complete,NA,62f13728e7b41fb89ee357a8,mobile,Samsung SM-G973F,Android 12,Samsung Browser 17.0,869x412,778x340,NA,ITT Ratings,2,for,5,NA,NA,NA,ACCEPT,NA,NA,NA,NA,NA,NA,batch5pro,batch5pro,53,50,1,Screen 1,continueButton,response_rating_scale_likert_active,2765.3000000715256,NA,NA,Strongly Disagree,1,0,1,0,NA,NA,NA,NA,1,statements,Don't know what's in them and who created them,1,17/06/2021 12:49,17/06/2021 12:57,IP Address,For (I feel positively about the vaccines),Rarely,A few times a year,38,Male,NA,GCSEs,control,49,2,For,Against
53,1659975684922,08/08/2022 16:21:24,1659975682679,1,08/08/2022 17:21:22,94826,3,task-j4ag,NA,23527440,6895725,NA,complete,NA,62f13728e7b41fb89ee357a8,mobile,Samsung SM-G973F,Android 12,Samsung Browser 17.0,869x412,778x340,NA,ITT Ratings,2,for,5,NA,NA,NA,ACCEPT,NA,NA,NA,NA,NA,NA,batch5pro,batch5pro,30,51,1,Screen 1,continueButton,response_rating_scale_likert_active,7006.200000047684,NA,NA,Strongly Disagree,1,0,1,0,NA,NA,NA,NA,1,statements,I believe the benefits of the vaccine do not outweigh the risks and believe that covid would be a mild disease for me.,1,17/06/2021 12:44,17/06/2021 12:56,IP Address,For (I feel positively about the vaccines),Rarely,Rarely,40,Female,NA,"Undergraduate degree (BSc, BA)",choice,45,3,For,Against
54,1659975690467,08/08/2022 16:21:30,1659975688230,1,08/08/2022 17:21:28,94826,3,task-j4ag,NA,23527440,6895725,NA,complete,NA,62f13728e7b41fb89ee357a8,mobile,Samsung SM-G973F,Android 12,Samsung Browser 17.0,869x412,778x340,NA,ITT Ratings,2,for,5,NA,NA,NA,ACCEPT,NA,NA,NA,NA,NA,NA,batch5pro,batch5pro,25,52,1,Screen 1,continueButton,response_rating_scale_likert_active,5511.200000047684,NA,NA,Strongly Agree,1,0,1,0,NA,NA,NA,NA,1,statements,"So that, if I do contract Covid-19 at any point, the symptoms will be minor and manageable.",1,17/06/2021 12:41,17/06/2021 12:56,IP Address,For (I feel positively about the vaccines),Most weeks,Most weeks,23,Male,NA,"Undergraduate degree (BSc, BA)",control,44,1,For,For
55,1659975697222,08/08/2022 16:21:37,1659975694893,1,08/08/2022 17:21:34,94826,3,task-j4ag,NA,23527440,6895725,NA,complete,NA,62f13728e7b41fb89ee357a8,mobile,Samsung SM-G973F,Android 12,Samsung Browser 17.0,869x412,778x340,NA,ITT Ratings,2,for,5,NA,NA,NA,ACCEPT,NA,NA,NA,NA,NA,NA,batch5pro,batch5pro,4,53,1,Screen 1,continueButton,response_rating_scale_likert_active,6621.799999952316,NA,NA,Strongly Disagree,1,0,1,0,NA,NA,NA,NA,1,statements,A defunct or manipulated research paper is usually brought out on facebook to put into question the vaccines ability to stop transmitting.,1,17/06/2021 12:39,17/06/2021 12:54,IP Address,For (I feel positively about the vaccines),Rarely,Most months,38,Male,NA,"Undergraduate degree (BSc, BA)",choice,41,1,For,Against
56,1659975700367,08/08/2022 16:21:40,1659975698127,1,08/08/2022 17:21:38,94826,3,task-j4ag,NA,23527440,6895725,NA,complete,NA,62f13728e7b41fb89ee357a8,mobile,Samsung SM-G973F,Android 12,Samsung Browser 17.0,869x412,778x340,NA,ITT Ratings,2,for,5,NA,NA,NA,ACCEPT,NA,NA,NA,NA,NA,NA,batch5pro,batch5pro,27,54,1,Screen 1,continueButton,response_rating_scale_likert_active,3186,NA,NA,Strongly Agree,1,0,1,0,NA,NA,NA,NA,1,statements,So that I can travel to different countries without hassle.,1,17/06/2021 12:41,17/06/2021 12:56,IP Address,For (I feel positively about the vaccines),Most weeks,Most weeks,23,Male,NA,"Undergraduate degree (BSc, BA)",control,44,3,For,For
57,1659975703755,08/08/2022 16:21:43,1659975701503,1,08/08/2022 17:21:41,94826,3,task-j4ag,NA,23527440,6895725,NA,complete,NA,62f13728e7b41fb89ee357a8,mobile,Samsung SM-G973F,Android 12,Samsung Browser 17.0,869x412,778x340,NA,ITT Ratings,2,for,5,NA,NA,NA,ACCEPT,NA,NA,NA,NA,NA,NA,batch5pro,batch5pro,11,55,1,Screen 1,continueButton,response_rating_scale_likert_active,3335.7000000476837,NA,NA,Strongly Disagree,1,0,1,0,NA,NA,NA,NA,1,statements,We are unsure of any possible side effects,1,17/06/2021 12:31,17/06/2021 12:55,IP Address,For (I feel positively about the vaccines),Most days,Most weeks,23,Female,NA,"Undergraduate degree (BSc, BA)",choice,42,2,For,Against
58,1659975706335,08/08/2022 16:21:46,1659975704084,1,08/08/2022 17:21:44,94826,3,task-j4ag,NA,23527440,6895725,NA,complete,NA,62f13728e7b41fb89ee357a8,mobile,Samsung SM-G973F,Android 12,Samsung Browser 17.0,869x412,778x340,NA,ITT Ratings,2,for,5,NA,NA,NA,ACCEPT,NA,NA,NA,NA,NA,NA,batch5pro,batch5pro,39,56,1,Screen 1,continueButton,response_rating_scale_likert_active,2543.5,NA,NA,Strongly Agree,1,0,1,0,NA,NA,NA,NA,1,statements,to be able to socialise and go on holiday,1,17/06/2021 12:46,17/06/2021 12:56,IP Address,For (I feel positively about the vaccines),A few times a year,A few times a year,53,Female,NA,Vocational Training / Apprenticeship,control,46,3,For,For
59,1659975708684,08/08/2022 16:21:48,1659975706433,1,08/08/2022 17:21:46,94826,3,task-j4ag,NA,23527440,6895725,NA,complete,NA,62f13728e7b41fb89ee357a8,mobile,Samsung SM-G973F,Android 12,Samsung Browser 17.0,869x412,778x340,NA,ITT Ratings,2,for,5,NA,NA,NA,ACCEPT,NA,NA,NA,NA,NA,NA,batch5pro,batch5pro,59,57,1,Screen 1,continueButton,response_rating_scale_likert_active,2309.7999999523163,NA,NA,Strongly Disagree,1,0,1,0,NA,NA,NA,NA,1,statements,You don't know what you are having injected,1,17/06/2021 12:52,17/06/2021 12:57,IP Address,For (I feel positively about the vaccines),Most months,Most months,29,Female,NA,"Undergraduate degree (BSc, BA)",control,50,2,For,Against
60,1659975716894,08/08/2022 16:21:56,1659975714657,1,08/08/2022 17:21:54,94826,3,task-j4ag,NA,23527440,6895725,NA,complete,NA,62f13728e7b41fb89ee357a8,mobile,Samsung SM-G973F,Android 12,Samsung Browser 17.0,869x412,778x340,NA,ITT Ratings,2,for,5,NA,NA,NA,ACCEPT,NA,NA,NA,NA,NA,NA,batch5pro,batch5pro,36,58,1,Screen 1,continueButton,response_rating_scale_likert_active,8188.200000047684,NA,NA,Strongly Disagree,1,0,1,0,NA,NA,NA,NA,1,statements,vaccine safety as it has not been out for long,1,17/06/2021 12:46,17/06/2021 12:56,IP Address,For (I feel positively about the vaccines),A few times a year,A few times a year,53,Female,NA,Vocational Training / Apprenticeship,control,46,3,For,Against
61,1659975719202,08/08/2022 16:21:59,1659975716909,1,08/08/2022 17:21:56,94826,3,task-j4ag,NA,23527440,6895725,NA,complete,NA,62f13728e7b41fb89ee357a8,mobile,Samsung SM-G973F,Android 12,Samsung Browser 17.0,869x412,778x340,NA,ITT Ratings,2,for,5,NA,NA,NA,ACCEPT,NA,NA,NA,NA,NA,NA,batch5pro,batch5pro,17,59,1,Screen 1,continueButton,response_rating_scale_likert_active,2214.600000023842,NA,NA,Strongly Disagree,1,0,1,0,NA,NA,NA,NA,1,statements,I am against vaccinations,1,17/06/2021 12:45,17/06/2021 12:55,IP Address,For (I feel positively about the vaccines),Never,Rarely,27,Female,NA,A levels,control,43,2,For,Against
62,1659975721856,08/08/2022 16:22:01,1659975719619,1,08/08/2022 17:21:59,94826,3,task-j4ag,NA,23527440,6895725,NA,complete,NA,62f13728e7b41fb89ee357a8,mobile,Samsung SM-G973F,Android 12,Samsung Browser 17.0,869x412,778x340,NA,ITT Ratings,2,for,5,NA,NA,NA,ACCEPT,NA,NA,NA,NA,NA,NA,batch5pro,batch5pro,8,60,1,Screen 1,continueButton,response_rating_scale_likert_active,2673.1999999284744,NA,NA,Strongly Agree,1,0,1,0,NA,NA,NA,NA,1,statements,I don't want friends or family to get sick.,1,17/06/2021 12:39,17/06/2021 12:54,IP Address,For (I feel positively about the vaccines),Rarely,Most months,38,Male,NA,"Undergraduate degree (BSc, BA)",choice,41,2,For,For
63,1659975725236,08/08/2022 16:22:05,1659975722983,1,08/08/2022 17:22:02,94826,3,task-j4ag,NA,23527440,6895725,NA,complete,NA,62f13728e7b41fb89ee357a8,mobile,Samsung SM-G973F,Android 12,Samsung Browser 17.0,869x412,778x340,NA,ITT Ratings,2,for,5,NA,NA,NA,ACCEPT,NA,NA,NA,NA,NA,NA,batch5pro,batch5pro,16,61,1,Screen 1,continueButton,response_rating_scale_likert_active,3331.2999999523163,NA,NA,Strongly Disagree,1,0,1,0,NA,NA,NA,NA,1,statements,I do not believe in the benefit of the vaccine,1,17/06/2021 12:45,17/06/2021 12:55,IP Address,For (I feel positively about the vaccines),Never,Rarely,27,Female,NA,A levels,control,43,1,For,Against
64,1659975727823,08/08/2022 16:22:07,1659975725579,1,08/08/2022 17:22:05,94826,3,task-j4ag,NA,23527440,6895725,NA,complete,NA,62f13728e7b41fb89ee357a8,mobile,Samsung SM-G973F,Android 12,Samsung Browser 17.0,869x412,778x340,NA,ITT Ratings,2,for,5,NA,NA,NA,ACCEPT,NA,NA,NA,NA,NA,NA,batch5pro,batch5pro,7,62,1,Screen 1,continueButton,response_rating_scale_likert_active,2563.2999999523163,NA,NA,Strongly Agree,1,0,1,0,NA,NA,NA,NA,1,statements,They don't want to get sick,1,17/06/2021 12:39,17/06/2021 12:54,IP Address,For (I feel positively about the vaccines),Rarely,Most months,38,Male,NA,"Undergraduate degree (BSc, BA)",choice,41,1,For,For
65,1659975728022,08/08/2022 16:22:08,1659975725592,1,08/08/2022 17:22:05,94826,3,task-j4ag,NA,23527440,6895725,NA,complete,NA,62f13728e7b41fb89ee357a8,mobile,Samsung SM-G973F,Android 12,Samsung Browser 17.0,869x412,778x340,NA,ITT Ratings,2,for,5,NA,NA,NA,ACCEPT,NA,NA,NA,NA,NA,NA,batch5pro,NA,NA,END TASK,NA,NA,NA,NA,239725,NA,NA,NA,NA,0,1,0,NA,NA,NA,NA,NA,NA,NA,NA,NA,NA,NA,NA,NA,NA,NA,NA,NA,NA,NA,NA,NA,NA,NA
1,1659975971530,08/08/2022 16:26:11,1659975923670,1,08/08/2022 17:25:23,94826,3,task-j4ag,NA,23527632,6895791,NA,complete,NA,62f138e9bc263a64d1416adc,computer,Desktop or Laptop,Mac OS 10.15.7,Safari 13.1.3,1440x900,1440x760,NA,ITT Ratings,2,for,5,NA,NA,NA,ACCEPT,NA,NA,NA,NA,NA,NA,batch5pro,NA,NA,BEGIN TASK,NA,NA,NA,NA,NA,NA,NA,NA,NA,0,1,0,NA,NA,NA,NA,NA,NA,NA,NA,NA,NA,NA,NA,NA,NA,NA,NA,NA,NA,NA,NA,NA,NA,NA
2,1659975978722,08/08/2022 16:26:18,1659975930903,1,08/08/2022 17:25:30,94826,3,task-j4ag,NA,23527632,6895791,NA,complete,NA,62f138e9bc263a64d1416adc,computer,Desktop or Laptop,Mac OS 10.15.7,Safari 13.1.3,1440x900,1440x760,NA,ITT Ratings,2,for,5,NA,NA,NA,ACCEPT,NA,NA,NA,NA,NA,NA,batch5pro,batch5pro,1,1,1,Screen 1,advancementZone,continue_button,7202,NA,NA,NA,NA,0,1,0,NA,NA,NA,NA,NA,instructions,NA,NA,NA,NA,NA,NA,NA,NA,NA,NA,NA,NA,NA,NA,NA,NA,NA
3,1659975983150,08/08/2022 16:26:23,1659975935312,1,08/08/2022 17:25:35,94826,3,task-j4ag,NA,23527632,6895791,NA,complete,NA,62f138e9bc263a64d1416adc,computer,Desktop or Laptop,Mac OS 10.15.7,Safari 13.1.3,1440x900,1440x760,NA,ITT Ratings,2,for,5,NA,NA,NA,ACCEPT,NA,NA,NA,NA,NA,NA,batch5pro,batch5pro,22,1,1,Screen 1,continueButton,response_rating_scale_likert_active,4394,NA,NA,Disagree,1,0,1,0,NA,NA,NA,NA,1,statements,"The vaccines were rushed into distribution, and as a result of that, they may be dangerous or ineffective.",1,17/06/2021 12:41,17/06/2021 12:56,IP Address,For (I feel positively about the vaccines),Most weeks,Most weeks,23,Male,NA,"Undergraduate degree (BSc, BA)",control,44,1,For,Against
4,1659975986480,08/08/2022 16:26:26,1659975938656,1,08/08/2022 17:25:38,94826,3,task-j4ag,NA,23527632,6895791,NA,complete,NA,62f138e9bc263a64d1416adc,computer,Desktop or Laptop,Mac OS 10.15.7,Safari 13.1.3,1440x900,1440x760,NA,ITT Ratings,2,for,5,NA,NA,NA,ACCEPT,NA,NA,NA,NA,NA,NA,batch5pro,batch5pro,16,2,1,Screen 1,continueButton,response_rating_scale_likert_active,3330,NA,NA,Strongly Disagree,1,0,1,0,NA,NA,NA,NA,1,statements,I do not believe in the benefit of the vaccine,1,17/06/2021 12:45,17/06/2021 12:55,IP Address,For (I feel positively about the vaccines),Never,Rarely,27,Female,NA,A levels,control,43,1,For,Against
5,1659975988322,08/08/2022 16:26:28,1659975940502,1,08/08/2022 17:25:40,94826,3,task-j4ag,NA,23527632,6895791,NA,complete,NA,62f138e9bc263a64d1416adc,computer,Desktop or Laptop,Mac OS 10.15.7,Safari 13.1.3,1440x900,1440x760,NA,ITT Ratings,2,for,5,NA,NA,NA,ACCEPT,NA,NA,NA,NA,NA,NA,batch5pro,batch5pro,47,3,1,Screen 1,continueButton,response_rating_scale_likert_active,1835,NA,NA,Strongly Disagree,1,0,1,0,NA,NA,NA,NA,1,statements,I don't think covid is real.,1,17/06/2021 12:48,17/06/2021 12:57,IP Address,For (I feel positively about the vaccines),Rarely,Most months,25,Female,NA,A levels,choice,48,2,For,Against
6,1659975992812,08/08/2022 16:26:32,1659975944970,1,08/08/2022 17:25:44,94826,3,task-j4ag,NA,23527632,6895791,NA,complete,NA,62f138e9bc263a64d1416adc,computer,Desktop or Laptop,Mac OS 10.15.7,Safari 13.1.3,1440x900,1440x760,NA,ITT Ratings,2,for,5,NA,NA,NA,ACCEPT,NA,NA,NA,NA,NA,NA,batch5pro,batch5pro,50,4,1,Screen 1,continueButton,response_rating_scale_likert_active,4458,NA,NA,Strongly Agree,1,0,1,0,NA,NA,NA,NA,1,statements,I want to help keep other people safe from covid,1,17/06/2021 12:48,17/06/2021 12:57,IP Address,For (I feel positively about the vaccines),Rarely,Most months,25,Female,NA,A levels,choice,48,2,For,For
7,1659975997347,08/08/2022 16:26:37,1659975949532,1,08/08/2022 17:25:49,94826,3,task-j4ag,NA,23527632,6895791,NA,complete,NA,62f138e9bc263a64d1416adc,computer,Desktop or Laptop,Mac OS 10.15.7,Safari 13.1.3,1440x900,1440x760,NA,ITT Ratings,2,for,5,NA,NA,NA,ACCEPT,NA,NA,NA,NA,NA,NA,batch5pro,batch5pro,31,5,1,Screen 1,continueButton,response_rating_scale_likert_active,4547,NA,NA,Strongly Agree,1,0,1,0,NA,NA,NA,NA,1,statements,It is a way of protecting from the serious health implications of catching covid.,1,17/06/2021 12:44,17/06/2021 12:56,IP Address,For (I feel positively about the vaccines),Rarely,Rarely,40,Female,NA,"Undergraduate degree (BSc, BA)",choice,45,1,For,For
8,1659976000935,08/08/2022 16:26:40,1659975953118,1,08/08/2022 17:25:53,94826,3,task-j4ag,NA,23527632,6895791,NA,complete,NA,62f138e9bc263a64d1416adc,computer,Desktop or Laptop,Mac OS 10.15.7,Safari 13.1.3,1440x900,1440x760,NA,ITT Ratings,2,for,5,NA,NA,NA,ACCEPT,NA,NA,NA,NA,NA,NA,batch5pro,batch5pro,51,6,1,Screen 1,continueButton,response_rating_scale_likert_active,3574,NA,NA,Somewhat Agree,1,0,1,0,NA,NA,NA,NA,1,statements,I have been told it's the right thing by my doctor,1,17/06/2021 12:48,17/06/2021 12:57,IP Address,For (I feel positively about the vaccines),Rarely,Most months,25,Female,NA,A levels,choice,48,3,For,For
9,1659976003148,08/08/2022 16:26:43,1659975955252,1,08/08/2022 17:25:55,94826,3,task-j4ag,NA,23527632,6895791,NA,complete,NA,62f138e9bc263a64d1416adc,computer,Desktop or Laptop,Mac OS 10.15.7,Safari 13.1.3,1440x900,1440x760,NA,ITT Ratings,2,for,5,NA,NA,NA,ACCEPT,NA,NA,NA,NA,NA,NA,batch5pro,batch5pro,56,7,1,Screen 1,continueButton,response_rating_scale_likert_active,2123.9999999999964,NA,NA,Strongly Agree,1,0,1,0,NA,NA,NA,NA,1,statements,It's for the better good.,1,17/06/2021 12:49,17/06/2021 12:57,IP Address,For (I feel positively about the vaccines),Rarely,A few times a year,38,Male,NA,GCSEs,control,49,2,For,For
10,1659976004818,08/08/2022 16:26:44,1659975956994,1,08/08/2022 17:25:56,94826,3,task-j4ag,NA,23527632,6895791,NA,complete,NA,62f138e9bc263a64d1416adc,computer,Desktop or Laptop,Mac OS 10.15.7,Safari 13.1.3,1440x900,1440x760,NA,ITT Ratings,2,for,5,NA,NA,NA,ACCEPT,NA,NA,NA,NA,NA,NA,batch5pro,batch5pro,44,8,1,Screen 1,continueButton,response_rating_scale_likert_active,1729,NA,NA,Strongly Agree,1,0,1,0,NA,NA,NA,NA,1,statements,It will help protect myself,1,17/06/2021 12:45,17/06/2021 12:57,IP Address,For (I feel positively about the vaccines),Never,Most months,22,Female,NA,"Postgraduate degree (MSc, MA, MPhil)",control,47,2,For,For
11,1659976010933,08/08/2022 16:26:50,1659975963111,1,08/08/2022 17:26:03,94826,3,task-j4ag,NA,23527632,6895791,NA,complete,NA,62f138e9bc263a64d1416adc,computer,Desktop or Laptop,Mac OS 10.15.7,Safari 13.1.3,1440x900,1440x760,NA,ITT Ratings,2,for,5,NA,NA,NA,ACCEPT,NA,NA,NA,NA,NA,NA,batch5pro,batch5pro,5,9,1,Screen 1,continueButton,response_rating_scale_likert_active,6107,NA,NA,Neither Agree nor Disagree,1,0,1,0,NA,NA,NA,NA,1,statements,The Government are having to insure the vaccines,1,17/06/2021 12:39,17/06/2021 12:54,IP Address,For (I feel positively about the vaccines),Rarely,Most months,38,Male,NA,"Undergraduate degree (BSc, BA)",choice,41,2,For,Against
12,1659976013142,08/08/2022 16:26:53,1659975965327,1,08/08/2022 17:26:05,94826,3,task-j4ag,NA,23527632,6895791,NA,complete,NA,62f138e9bc263a64d1416adc,computer,Desktop or Laptop,Mac OS 10.15.7,Safari 13.1.3,1440x900,1440x760,NA,ITT Ratings,2,for,5,NA,NA,NA,ACCEPT,NA,NA,NA,NA,NA,NA,batch5pro,batch5pro,15,10,1,Screen 1,continueButton,response_rating_scale_likert_active,2205,NA,NA,Strongly Agree,1,0,1,0,NA,NA,NA,NA,1,statements,I could meet my family again,1,17/06/2021 12:31,17/06/2021 12:55,IP Address,For (I feel positively about the vaccines),Most days,Most weeks,23,Female,NA,"Undergraduate degree (BSc, BA)",choice,42,3,For,For
13,1659976017197,08/08/2022 16:26:57,1659975969360,1,08/08/2022 17:26:09,94826,3,task-j4ag,NA,23527632,6895791,NA,complete,NA,62f138e9bc263a64d1416adc,computer,Desktop or Laptop,Mac OS 10.15.7,Safari 13.1.3,1440x900,1440x760,NA,ITT Ratings,2,for,5,NA,NA,NA,ACCEPT,NA,NA,NA,NA,NA,NA,batch5pro,batch5pro,25,11,1,Screen 1,continueButton,response_rating_scale_likert_active,4022,NA,NA,Strongly Agree,1,0,1,0,NA,NA,NA,NA,1,statements,"So that, if I do contract Covid-19 at any point, the symptoms will be minor and manageable.",1,17/06/2021 12:41,17/06/2021 12:56,IP Address,For (I feel positively about the vaccines),Most weeks,Most weeks,23,Male,NA,"Undergraduate degree (BSc, BA)",control,44,1,For,For
14,1659976023288,08/08/2022 16:27:03,1659975975454,1,08/08/2022 17:26:15,94826,3,task-j4ag,NA,23527632,6895791,NA,complete,NA,62f138e9bc263a64d1416adc,computer,Desktop or Laptop,Mac OS 10.15.7,Safari 13.1.3,1440x900,1440x760,NA,ITT Ratings,2,for,5,NA,NA,NA,ACCEPT,NA,NA,NA,NA,NA,NA,batch5pro,batch5pro,36,12,1,Screen 1,continueButton,response_rating_scale_likert_active,6078.000000000007,NA,NA,Strongly Disagree,1,0,1,0,NA,NA,NA,NA,1,statements,vaccine safety as it has not been out for long,1,17/06/2021 12:46,17/06/2021 12:56,IP Address,For (I feel positively about the vaccines),A few times a year,A few times a year,53,Female,NA,Vocational Training / Apprenticeship,control,46,3,For,Against
15,1659976026780,08/08/2022 16:27:06,1659975978952,1,08/08/2022 17:26:18,94826,3,task-j4ag,NA,23527632,6895791,NA,complete,NA,62f138e9bc263a64d1416adc,computer,Desktop or Laptop,Mac OS 10.15.7,Safari 13.1.3,1440x900,1440x760,NA,ITT Ratings,2,for,5,NA,NA,NA,ACCEPT,NA,NA,NA,NA,NA,NA,batch5pro,batch5pro,21,13,1,Screen 1,continueButton,response_rating_scale_likert_active,3488,NA,NA,Agree,1,0,1,0,NA,NA,NA,NA,1,statements,I want to be protected against covid,1,17/06/2021 12:45,17/06/2021 12:55,IP Address,For (I feel positively about the vaccines),Never,Rarely,27,Female,NA,A levels,control,43,3,For,For
16,1659976029843,08/08/2022 16:27:09,1659975982015,1,08/08/2022 17:26:22,94826,3,task-j4ag,NA,23527632,6895791,NA,complete,NA,62f138e9bc263a64d1416adc,computer,Desktop or Laptop,Mac OS 10.15.7,Safari 13.1.3,1440x900,1440x760,NA,ITT Ratings,2,for,5,NA,NA,NA,ACCEPT,NA,NA,NA,NA,NA,NA,batch5pro,batch5pro,12,14,1,Screen 1,continueButton,response_rating_scale_likert_active,3052,NA,NA,Strongly Disagree,1,0,1,0,NA,NA,NA,NA,1,statements,I could become more ill,1,17/06/2021 12:31,17/06/2021 12:55,IP Address,For (I feel positively about the vaccines),Most days,Most weeks,23,Female,NA,"Undergraduate degree (BSc, BA)",choice,42,3,For,Against
17,1659976032851,08/08/2022 16:27:12,1659975985028,1,08/08/2022 17:26:25,94826,3,task-j4ag,NA,23527632,6895791,NA,complete,NA,62f138e9bc263a64d1416adc,computer,Desktop or Laptop,Mac OS 10.15.7,Safari 13.1.3,1440x900,1440x760,NA,ITT Ratings,2,for,5,NA,NA,NA,ACCEPT,NA,NA,NA,NA,NA,NA,batch5pro,batch5pro,19,15,1,Screen 1,continueButton,response_rating_scale_likert_active,3003,NA,NA,Strongly Agree,1,0,1,0,NA,NA,NA,NA,1,statements,I believe the vaccine is beneficial and will provide protection,1,17/06/2021 12:45,17/06/2021 12:55,IP Address,For (I feel positively about the vaccines),Never,Rarely,27,Female,NA,A levels,control,43,1,For,For
18,1659976035493,08/08/2022 16:27:15,1659975987665,1,08/08/2022 17:26:27,94826,3,task-j4ag,NA,23527632,6895791,NA,complete,NA,62f138e9bc263a64d1416adc,computer,Desktop or Laptop,Mac OS 10.15.7,Safari 13.1.3,1440x900,1440x760,NA,ITT Ratings,2,for,5,NA,NA,NA,ACCEPT,NA,NA,NA,NA,NA,NA,batch5pro,batch5pro,10,16,1,Screen 1,continueButton,response_rating_scale_likert_active,2625.9999999999927,NA,NA,Strongly Disagree,1,0,1,0,NA,NA,NA,NA,1,statements,They haven't had enough time to create the vaccine,1,17/06/2021 12:31,17/06/2021 12:55,IP Address,For (I feel positively about the vaccines),Most days,Most weeks,23,Female,NA,"Undergraduate degree (BSc, BA)",choice,42,1,For,Against
19,1659976037914,08/08/2022 16:27:17,1659975990082,1,08/08/2022 17:26:30,94826,3,task-j4ag,NA,23527632,6895791,NA,complete,NA,62f138e9bc263a64d1416adc,computer,Desktop or Laptop,Mac OS 10.15.7,Safari 13.1.3,1440x900,1440x760,NA,ITT Ratings,2,for,5,NA,NA,NA,ACCEPT,NA,NA,NA,NA,NA,NA,batch5pro,batch5pro,54,17,1,Screen 1,continueButton,response_rating_scale_likert_active,2407.9999999999927,NA,NA,Strongly Disagree,1,0,1,0,NA,NA,NA,NA,1,statements,I would rather risk it and rely on immune system.,1,17/06/2021 12:49,17/06/2021 12:57,IP Address,For (I feel positively about the vaccines),Rarely,A few times a year,38,Male,NA,GCSEs,control,49,3,For,Against
20,1659976041599,08/08/2022 16:27:21,1659975993781,1,08/08/2022 17:26:33,94826,3,task-j4ag,NA,23527632,6895791,NA,complete,NA,62f138e9bc263a64d1416adc,computer,Desktop or Laptop,Mac OS 10.15.7,Safari 13.1.3,1440x900,1440x760,NA,ITT Ratings,2,for,5,NA,NA,NA,ACCEPT,NA,NA,NA,NA,NA,NA,batch5pro,batch5pro,13,18,1,Screen 1,continueButton,response_rating_scale_likert_active,3689,NA,NA,Strongly Agree,1,0,1,0,NA,NA,NA,NA,1,statements,It could protect others around me as well as myself,1,17/06/2021 12:31,17/06/2021 12:55,IP Address,For (I feel positively about the vaccines),Most days,Most weeks,23,Female,NA,"Undergraduate degree (BSc, BA)",choice,42,1,For,For
21,1659976044310,08/08/2022 16:27:24,1659975996481,1,08/08/2022 17:26:36,94826,3,task-j4ag,NA,23527632,6895791,NA,complete,NA,62f138e9bc263a64d1416adc,computer,Desktop or Laptop,Mac OS 10.15.7,Safari 13.1.3,1440x900,1440x760,NA,ITT Ratings,2,for,5,NA,NA,NA,ACCEPT,NA,NA,NA,NA,NA,NA,batch5pro,batch5pro,61,19,1,Screen 1,continueButton,response_rating_scale_likert_active,2687,NA,NA,Strongly Agree,1,0,1,0,NA,NA,NA,NA,1,statements,That the vaccine is safe,1,17/06/2021 12:52,17/06/2021 12:57,IP Address,For (I feel positively about the vaccines),Most months,Most months,29,Female,NA,"Undergraduate degree (BSc, BA)",control,50,1,For,For
22,1659976046969,08/08/2022 16:27:26,1659975999156,1,08/08/2022 17:26:39,94826,3,task-j4ag,NA,23527632,6895791,NA,complete,NA,62f138e9bc263a64d1416adc,computer,Desktop or Laptop,Mac OS 10.15.7,Safari 13.1.3,1440x900,1440x760,NA,ITT Ratings,2,for,5,NA,NA,NA,ACCEPT,NA,NA,NA,NA,NA,NA,batch5pro,batch5pro,53,20,1,Screen 1,continueButton,response_rating_scale_likert_active,2663,NA,NA,Strongly Disagree,1,0,1,0,NA,NA,NA,NA,1,statements,Don't know what's in them and who created them,1,17/06/2021 12:49,17/06/2021 12:57,IP Address,For (I feel positively about the vaccines),Rarely,A few times a year,38,Male,NA,GCSEs,control,49,2,For,Against
23,1659976058438,08/08/2022 16:27:38,1659976010608,1,08/08/2022 17:26:50,94826,3,task-j4ag,NA,23527632,6895791,NA,complete,NA,62f138e9bc263a64d1416adc,computer,Desktop or Laptop,Mac OS 10.15.7,Safari 13.1.3,1440x900,1440x760,NA,ITT Ratings,2,for,5,NA,NA,NA,ACCEPT,NA,NA,NA,NA,NA,NA,batch5pro,batch5pro,7,21,1,Screen 1,continueButton,response_rating_scale_likert_active,11442,NA,NA,Neither Agree nor Disagree,1,0,1,0,NA,NA,NA,NA,1,statements,They don't want to get sick,1,17/06/2021 12:39,17/06/2021 12:54,IP Address,For (I feel positively about the vaccines),Rarely,Most months,38,Male,NA,"Undergraduate degree (BSc, BA)",choice,41,1,For,For
24,1659976061187,08/08/2022 16:27:41,1659976013364,1,08/08/2022 17:26:53,94826,3,task-j4ag,NA,23527632,6895791,NA,complete,NA,62f138e9bc263a64d1416adc,computer,Desktop or Laptop,Mac OS 10.15.7,Safari 13.1.3,1440x900,1440x760,NA,ITT Ratings,2,for,5,NA,NA,NA,ACCEPT,NA,NA,NA,NA,NA,NA,batch5pro,batch5pro,46,22,1,Screen 1,continueButton,response_rating_scale_likert_active,2745,NA,NA,Strongly Disagree,1,0,1,0,NA,NA,NA,NA,1,statements,I don't trust what's in the vaccine.,1,17/06/2021 12:48,17/06/2021 12:57,IP Address,For (I feel positively about the vaccines),Rarely,Most months,25,Female,NA,A levels,choice,48,1,For,Against
25,1659976063877,08/08/2022 16:27:43,1659976015943,1,08/08/2022 17:26:55,94826,3,task-j4ag,NA,23527632,6895791,NA,complete,NA,62f138e9bc263a64d1416adc,computer,Desktop or Laptop,Mac OS 10.15.7,Safari 13.1.3,1440x900,1440x760,NA,ITT Ratings,2,for,5,NA,NA,NA,ACCEPT,NA,NA,NA,NA,NA,NA,batch5pro,batch5pro,41,23,1,Screen 1,continueButton,response_rating_scale_likert_active,2568,NA,NA,Strongly Disagree,1,0,1,0,NA,NA,NA,NA,1,statements,I am under the impression that vaccinations and autism are linked,1,17/06/2021 12:45,17/06/2021 12:57,IP Address,For (I feel positively about the vaccines),Never,Most months,22,Female,NA,"Postgraduate degree (MSc, MA, MPhil)",control,47,2,For,Against
26,1659976065308,08/08/2022 16:27:45,1659976017385,1,08/08/2022 17:26:57,94826,3,task-j4ag,NA,23527632,6895791,NA,complete,NA,62f138e9bc263a64d1416adc,computer,Desktop or Laptop,Mac OS 10.15.7,Safari 13.1.3,1440x900,1440x760,NA,ITT Ratings,2,for,5,NA,NA,NA,ACCEPT,NA,NA,NA,NA,NA,NA,batch5pro,batch5pro,17,24,1,Screen 1,continueButton,response_rating_scale_likert_active,1432.9999999999854,NA,NA,Strongly Disagree,1,0,1,0,NA,NA,NA,NA,1,statements,I am against vaccinations,1,17/06/2021 12:45,17/06/2021 12:55,IP Address,For (I feel positively about the vaccines),Never,Rarely,27,Female,NA,A levels,control,43,2,For,Against
27,1659976068575,08/08/2022 16:27:48,1659976020737,1,08/08/2022 17:27:00,94826,3,task-j4ag,NA,23527632,6895791,NA,complete,NA,62f138e9bc263a64d1416adc,computer,Desktop or Laptop,Mac OS 10.15.7,Safari 13.1.3,1440x900,1440x760,NA,ITT Ratings,2,for,5,NA,NA,NA,ACCEPT,NA,NA,NA,NA,NA,NA,batch5pro,batch5pro,38,25,1,Screen 1,continueButton,response_rating_scale_likert_active,3342,NA,NA,Strongly Agree,1,0,1,0,NA,NA,NA,NA,1,statements,the evidence and information relating to the vaccine is positive,1,17/06/2021 12:46,17/06/2021 12:56,IP Address,For (I feel positively about the vaccines),A few times a year,A few times a year,53,Female,NA,Vocational Training / Apprenticeship,control,46,2,For,For
28,1659976073012,08/08/2022 16:27:53,1659976025186,1,08/08/2022 17:27:05,94826,3,task-j4ag,NA,23527632,6895791,NA,complete,NA,62f138e9bc263a64d1416adc,computer,Desktop or Laptop,Mac OS 10.15.7,Safari 13.1.3,1440x900,1440x760,NA,ITT Ratings,2,for,5,NA,NA,NA,ACCEPT,NA,NA,NA,NA,NA,NA,batch5pro,batch5pro,35,26,1,Screen 1,continueButton,response_rating_scale_likert_active,4438,NA,NA,Somewhat Agree,1,0,1,0,NA,NA,NA,NA,1,statements,health reasons and I can not take  it,1,17/06/2021 12:46,17/06/2021 12:56,IP Address,For (I feel positively about the vaccines),A few times a year,A few times a year,53,Female,NA,Vocational Training / Apprenticeship,control,46,2,For,Against
29,1659976076278,08/08/2022 16:27:56,1659976028466,1,08/08/2022 17:27:08,94826,3,task-j4ag,NA,23527632,6895791,NA,complete,NA,62f138e9bc263a64d1416adc,computer,Desktop or Laptop,Mac OS 10.15.7,Safari 13.1.3,1440x900,1440x760,NA,ITT Ratings,2,for,5,NA,NA,NA,ACCEPT,NA,NA,NA,NA,NA,NA,batch5pro,batch5pro,43,27,1,Screen 1,continueButton,response_rating_scale_likert_active,3268.9999999999854,NA,NA,Strongly Agree,1,0,1,0,NA,NA,NA,NA,1,statements,The vaccine is safe and 95% effective,1,17/06/2021 12:45,17/06/2021 12:57,IP Address,For (I feel positively about the vaccines),Never,Most months,22,Female,NA,"Postgraduate degree (MSc, MA, MPhil)",control,47,1,For,For
30,1659976078206,08/08/2022 16:27:58,1659976030376,1,08/08/2022 17:27:10,94826,3,task-j4ag,NA,23527632,6895791,NA,complete,NA,62f138e9bc263a64d1416adc,computer,Desktop or Laptop,Mac OS 10.15.7,Safari 13.1.3,1440x900,1440x760,NA,ITT Ratings,2,for,5,NA,NA,NA,ACCEPT,NA,NA,NA,NA,NA,NA,batch5pro,batch5pro,63,28,1,Screen 1,continueButton,response_rating_scale_likert_active,1899,NA,NA,Strongly Agree,1,0,1,0,NA,NA,NA,NA,1,statements,You can go on holiday,1,17/06/2021 12:52,17/06/2021 12:57,IP Address,For (I feel positively about the vaccines),Most months,Most months,29,Female,NA,"Undergraduate degree (BSc, BA)",control,50,3,For,For
31,1659976081290,08/08/2022 16:28:01,1659976033463,1,08/08/2022 17:27:13,94826,3,task-j4ag,NA,23527632,6895791,NA,complete,NA,62f138e9bc263a64d1416adc,computer,Desktop or Laptop,Mac OS 10.15.7,Safari 13.1.3,1440x900,1440x760,NA,ITT Ratings,2,for,5,NA,NA,NA,ACCEPT,NA,NA,NA,NA,NA,NA,batch5pro,batch5pro,48,29,1,Screen 1,continueButton,response_rating_scale_likert_active,3077,NA,NA,Strongly Disagree,1,0,1,0,NA,NA,NA,NA,1,statements,I don't want to be injected to with something that can make me ill.,1,17/06/2021 12:48,17/06/2021 12:57,IP Address,For (I feel positively about the vaccines),Rarely,Most months,25,Female,NA,A levels,choice,48,3,For,Against
32,1659976086752,08/08/2022 16:28:06,1659976038925,1,08/08/2022 17:27:18,94826,3,task-j4ag,NA,23527632,6895791,NA,complete,NA,62f138e9bc263a64d1416adc,computer,Desktop or Laptop,Mac OS 10.15.7,Safari 13.1.3,1440x900,1440x760,NA,ITT Ratings,2,for,5,NA,NA,NA,ACCEPT,NA,NA,NA,NA,NA,NA,batch5pro,batch5pro,62,30,1,Screen 1,continueButton,response_rating_scale_likert_active,5452,NA,NA,Somewhat Agree,1,0,1,0,NA,NA,NA,NA,1,statements,The vaccine is helping to het the Country back to a nee normal,1,17/06/2021 12:52,17/06/2021 12:57,IP Address,For (I feel positively about the vaccines),Most months,Most months,29,Female,NA,"Undergraduate degree (BSc, BA)",control,50,2,For,For
33,1659976138409,08/08/2022 16:28:58,1659976090452,1,08/08/2022 17:28:10,94826,3,task-j4ag,NA,23527632,6895791,NA,complete,NA,62f138e9bc263a64d1416adc,computer,Desktop or Laptop,Mac OS 10.15.7,Safari 13.1.3,1440x900,1440x760,NA,ITT Ratings,2,for,5,NA,NA,NA,ACCEPT,NA,NA,NA,NA,NA,NA,batch5pro,batch5pro,2,31,1,Screen 1,continueButton,response_rating_scale_likert_active,51514.999999999985,NA,NA,Somewhat Agree,1,0,1,0,NA,NA,NA,NA,1,statements,We would like to check you are reading each argument carefully. Please select 'Somewhat Agree' for this answer,1,NA,NA,NA,NA,NA,NA,NA,NA,NA,NA,NA,NA,check1,NA,NA
34,1659976140119,08/08/2022 16:29:00,1659976092288,1,08/08/2022 17:28:12,94826,3,task-j4ag,NA,23527632,6895791,NA,complete,NA,62f138e9bc263a64d1416adc,computer,Desktop or Laptop,Mac OS 10.15.7,Safari 13.1.3,1440x900,1440x760,NA,ITT Ratings,2,for,5,NA,NA,NA,ACCEPT,NA,NA,NA,NA,NA,NA,batch5pro,batch5pro,55,32,1,Screen 1,continueButton,response_rating_scale_likert_active,1827,NA,NA,Somewhat Agree,1,0,1,0,NA,NA,NA,NA,1,statements,It's safe and I want to ensure people around me are safe,1,17/06/2021 12:49,17/06/2021 12:57,IP Address,For (I feel positively about the vaccines),Rarely,A few times a year,38,Male,NA,GCSEs,control,49,1,For,For
35,1659976146464,08/08/2022 16:29:06,1659976098639,1,08/08/2022 17:28:18,94826,3,task-j4ag,NA,23527632,6895791,NA,complete,NA,62f138e9bc263a64d1416adc,computer,Desktop or Laptop,Mac OS 10.15.7,Safari 13.1.3,1440x900,1440x760,NA,ITT Ratings,2,for,5,NA,NA,NA,ACCEPT,NA,NA,NA,NA,NA,NA,batch5pro,batch5pro,8,33,1,Screen 1,continueButton,response_rating_scale_likert_active,6341,NA,NA,Strongly Agree,1,0,1,0,NA,NA,NA,NA,1,statements,I don't want friends or family to get sick.,1,17/06/2021 12:39,17/06/2021 12:54,IP Address,For (I feel positively about the vaccines),Rarely,Most months,38,Male,NA,"Undergraduate degree (BSc, BA)",choice,41,2,For,For
36,1659976147938,08/08/2022 16:29:07,1659976100114,1,08/08/2022 17:28:20,94826,3,task-j4ag,NA,23527632,6895791,NA,complete,NA,62f138e9bc263a64d1416adc,computer,Desktop or Laptop,Mac OS 10.15.7,Safari 13.1.3,1440x900,1440x760,NA,ITT Ratings,2,for,5,NA,NA,NA,ACCEPT,NA,NA,NA,NA,NA,NA,batch5pro,batch5pro,33,34,1,Screen 1,continueButton,response_rating_scale_likert_active,1465,NA,NA,Strongly Agree,1,0,1,0,NA,NA,NA,NA,1,statements,I believe it is safe.,1,17/06/2021 12:44,17/06/2021 12:56,IP Address,For (I feel positively about the vaccines),Rarely,Rarely,40,Female,NA,"Undergraduate degree (BSc, BA)",choice,45,3,For,For
37,1659976174638,08/08/2022 16:29:34,1659976126801,1,08/08/2022 17:28:46,94826,3,task-j4ag,NA,23527632,6895791,NA,complete,NA,62f138e9bc263a64d1416adc,computer,Desktop or Laptop,Mac OS 10.15.7,Safari 13.1.3,1440x900,1440x760,NA,ITT Ratings,2,for,5,NA,NA,NA,ACCEPT,NA,NA,NA,NA,NA,NA,batch5pro,batch5pro,24,35,1,Screen 1,continueButton,response_rating_scale_likert_active,26676.99999999997,NA,NA,Strongly Disagree,1,0,1,0,NA,NA,NA,NA,1,statements,The vaccine may contain something that we have not been told about.,1,17/06/2021 12:41,17/06/2021 12:56,IP Address,For (I feel positively about the vaccines),Most weeks,Most weeks,23,Male,NA,"Undergraduate degree (BSc, BA)",control,44,3,For,Against
38,1659976175894,08/08/2022 16:29:35,1659976128074,1,08/08/2022 17:28:48,94826,3,task-j4ag,NA,23527632,6895791,NA,complete,NA,62f138e9bc263a64d1416adc,computer,Desktop or Laptop,Mac OS 10.15.7,Safari 13.1.3,1440x900,1440x760,NA,ITT Ratings,2,for,5,NA,NA,NA,ACCEPT,NA,NA,NA,NA,NA,NA,batch5pro,batch5pro,18,36,1,Screen 1,continueButton,response_rating_scale_likert_active,1262,NA,NA,Strongly Disagree,1,0,1,0,NA,NA,NA,NA,1,statements,I do not believe the vaccination is safe,1,17/06/2021 12:45,17/06/2021 12:55,IP Address,For (I feel positively about the vaccines),Never,Rarely,27,Female,NA,A levels,control,43,3,For,Against
39,1659976187203,08/08/2022 16:29:47,1659976139393,1,08/08/2022 17:28:59,94826,3,task-j4ag,NA,23527632,6895791,NA,complete,NA,62f138e9bc263a64d1416adc,computer,Desktop or Laptop,Mac OS 10.15.7,Safari 13.1.3,1440x900,1440x760,NA,ITT Ratings,2,for,5,NA,NA,NA,ACCEPT,NA,NA,NA,NA,NA,NA,batch5pro,batch5pro,26,37,1,Screen 1,continueButton,response_rating_scale_likert_active,11308,NA,NA,Somewhat Agree,1,0,1,0,NA,NA,NA,NA,1,statements,So I can see my family and friends without fear of contracting the virus.,1,17/06/2021 12:41,17/06/2021 12:56,IP Address,For (I feel positively about the vaccines),Most weeks,Most weeks,23,Male,NA,"Undergraduate degree (BSc, BA)",control,44,2,For,For
40,1659976189441,08/08/2022 16:29:49,1659976141617,1,08/08/2022 17:29:01,94826,3,task-j4ag,NA,23527632,6895791,NA,complete,NA,62f138e9bc263a64d1416adc,computer,Desktop or Laptop,Mac OS 10.15.7,Safari 13.1.3,1440x900,1440x760,NA,ITT Ratings,2,for,5,NA,NA,NA,ACCEPT,NA,NA,NA,NA,NA,NA,batch5pro,batch5pro,3,38,1,Screen 1,continueButton,response_rating_scale_likert_active,2211.999999999971,NA,NA,Somewhat Disagree,1,0,1,0,NA,NA,NA,NA,1,statements,We would like to check you are reading each argument carefully. Please select 'Somewhat Disagree' for this answer,1,NA,NA,NA,NA,NA,NA,NA,NA,NA,NA,NA,NA,check2,NA,NA
41,1659976191448,08/08/2022 16:29:51,1659976143623,1,08/08/2022 17:29:03,94826,3,task-j4ag,NA,23527632,6895791,NA,complete,NA,62f138e9bc263a64d1416adc,computer,Desktop or Laptop,Mac OS 10.15.7,Safari 13.1.3,1440x900,1440x760,NA,ITT Ratings,2,for,5,NA,NA,NA,ACCEPT,NA,NA,NA,NA,NA,NA,batch5pro,batch5pro,37,39,1,Screen 1,continueButton,response_rating_scale_likert_active,1996,NA,NA,Agree,1,0,1,0,NA,NA,NA,NA,1,statements,to protect myself and family,1,17/06/2021 12:46,17/06/2021 12:56,IP Address,For (I feel positively about the vaccines),A few times a year,A few times a year,53,Female,NA,Vocational Training / Apprenticeship,control,46,1,For,For
42,1659976195195,08/08/2022 16:29:55,1659976147370,1,08/08/2022 17:29:07,94826,3,task-j4ag,NA,23527632,6895791,NA,complete,NA,62f138e9bc263a64d1416adc,computer,Desktop or Laptop,Mac OS 10.15.7,Safari 13.1.3,1440x900,1440x760,NA,ITT Ratings,2,for,5,NA,NA,NA,ACCEPT,NA,NA,NA,NA,NA,NA,batch5pro,batch5pro,59,40,1,Screen 1,continueButton,response_rating_scale_likert_active,3737,NA,NA,Strongly Disagree,1,0,1,0,NA,NA,NA,NA,1,statements,You don't know what you are having injected,1,17/06/2021 12:52,17/06/2021 12:57,IP Address,For (I feel positively about the vaccines),Most months,Most months,29,Female,NA,"Undergraduate degree (BSc, BA)",control,50,2,For,Against
43,1659976202366,08/08/2022 16:30:02,1659976154543,1,08/08/2022 17:29:14,94826,3,task-j4ag,NA,23527632,6895791,NA,complete,NA,62f138e9bc263a64d1416adc,computer,Desktop or Laptop,Mac OS 10.15.7,Safari 13.1.3,1440x900,1440x760,NA,ITT Ratings,2,for,5,NA,NA,NA,ACCEPT,NA,NA,NA,NA,NA,NA,batch5pro,batch5pro,57,41,1,Screen 1,continueButton,response_rating_scale_likert_active,7164,NA,NA,Strongly Agree,1,0,1,0,NA,NA,NA,NA,1,statements,To assist in getting through this pandemic,1,17/06/2021 12:49,17/06/2021 12:57,IP Address,For (I feel positively about the vaccines),Rarely,A few times a year,38,Male,NA,GCSEs,control,49,3,For,For
44,1659976213167,08/08/2022 16:30:13,1659976165345,1,08/08/2022 17:29:25,94826,3,task-j4ag,NA,23527632,6895791,NA,complete,NA,62f138e9bc263a64d1416adc,computer,Desktop or Laptop,Mac OS 10.15.7,Safari 13.1.3,1440x900,1440x760,NA,ITT Ratings,2,for,5,NA,NA,NA,ACCEPT,NA,NA,NA,NA,NA,NA,batch5pro,batch5pro,28,42,1,Screen 1,continueButton,response_rating_scale_likert_active,10790,NA,NA,Somewhat Agree,1,0,1,0,NA,NA,NA,NA,1,statements,I am allergic to one of the ingredients in the vaccine.,1,17/06/2021 12:44,17/06/2021 12:56,IP Address,For (I feel positively about the vaccines),Rarely,Rarely,40,Female,NA,"Undergraduate degree (BSc, BA)",choice,45,1,For,Against
45,1659976214728,08/08/2022 16:30:14,1659976166908,1,08/08/2022 17:29:26,94826,3,task-j4ag,NA,23527632,6895791,NA,complete,NA,62f138e9bc263a64d1416adc,computer,Desktop or Laptop,Mac OS 10.15.7,Safari 13.1.3,1440x900,1440x760,NA,ITT Ratings,2,for,5,NA,NA,NA,ACCEPT,NA,NA,NA,NA,NA,NA,batch5pro,batch5pro,9,43,1,Screen 1,continueButton,response_rating_scale_likert_active,1552,NA,NA,Strongly Agree,1,0,1,0,NA,NA,NA,NA,1,statements,I want to be able to be able to participate in group activities.,1,17/06/2021 12:39,17/06/2021 12:54,IP Address,For (I feel positively about the vaccines),Rarely,Most months,38,Male,NA,"Undergraduate degree (BSc, BA)",choice,41,3,For,For
46,1659976232643,08/08/2022 16:30:32,1659976184832,1,08/08/2022 17:29:44,94826,3,task-j4ag,NA,23527632,6895791,NA,complete,NA,62f138e9bc263a64d1416adc,computer,Desktop or Laptop,Mac OS 10.15.7,Safari 13.1.3,1440x900,1440x760,NA,ITT Ratings,2,for,5,NA,NA,NA,ACCEPT,NA,NA,NA,NA,NA,NA,batch5pro,batch5pro,34,44,1,Screen 1,continueButton,response_rating_scale_likert_active,17913.99999999997,NA,NA,Strongly Disagree,1,0,1,0,NA,NA,NA,NA,1,statements,government keeping track of us,1,17/06/2021 12:46,17/06/2021 12:56,IP Address,For (I feel positively about the vaccines),A few times a year,A few times a year,53,Female,NA,Vocational Training / Apprenticeship,control,46,1,For,Against
47,1659976259111,08/08/2022 16:30:59,1659976211295,1,08/08/2022 17:30:11,94826,3,task-j4ag,NA,23527632,6895791,NA,complete,NA,62f138e9bc263a64d1416adc,computer,Desktop or Laptop,Mac OS 10.15.7,Safari 13.1.3,1440x900,1440x760,NA,ITT Ratings,2,for,5,NA,NA,NA,ACCEPT,NA,NA,NA,NA,NA,NA,batch5pro,batch5pro,29,45,1,Screen 1,continueButton,response_rating_scale_likert_active,26450.99999999997,NA,NA,Strongly Disagree,1,0,1,0,NA,NA,NA,NA,1,statements,I feel the vaccine has been developed too quickly and not tested rigorously enough to the sure that it is safe.,1,17/06/2021 12:44,17/06/2021 12:56,IP Address,For (I feel positively about the vaccines),Rarely,Rarely,40,Female,NA,"Undergraduate degree (BSc, BA)",choice,45,2,For,Against
48,1659976293507,08/08/2022 16:31:33,1659976245690,1,08/08/2022 17:30:45,94826,3,task-j4ag,NA,23527632,6895791,NA,complete,NA,62f138e9bc263a64d1416adc,computer,Desktop or Laptop,Mac OS 10.15.7,Safari 13.1.3,1440x900,1440x760,NA,ITT Ratings,2,for,5,NA,NA,NA,ACCEPT,NA,NA,NA,NA,NA,NA,batch5pro,batch5pro,30,46,1,Screen 1,continueButton,response_rating_scale_likert_active,34385.00000000006,NA,NA,Strongly Disagree,1,0,1,0,NA,NA,NA,NA,1,statements,I believe the benefits of the vaccine do not outweigh the risks and believe that covid would be a mild disease for me.,1,17/06/2021 12:44,17/06/2021 12:56,IP Address,For (I feel positively about the vaccines),Rarely,Rarely,40,Female,NA,"Undergraduate degree (BSc, BA)",choice,45,3,For,Against
49,1659976301801,08/08/2022 16:31:41,1659976253986,1,08/08/2022 17:30:53,94826,3,task-j4ag,NA,23527632,6895791,NA,complete,NA,62f138e9bc263a64d1416adc,computer,Desktop or Laptop,Mac OS 10.15.7,Safari 13.1.3,1440x900,1440x760,NA,ITT Ratings,2,for,5,NA,NA,NA,ACCEPT,NA,NA,NA,NA,NA,NA,batch5pro,batch5pro,4,47,1,Screen 1,continueButton,response_rating_scale_likert_active,8284,NA,NA,Strongly Agree,1,0,1,0,NA,NA,NA,NA,1,statements,A defunct or manipulated research paper is usually brought out on facebook to put into question the vaccines ability to stop transmitting.,1,17/06/2021 12:39,17/06/2021 12:54,IP Address,For (I feel positively about the vaccines),Rarely,Most months,38,Male,NA,"Undergraduate degree (BSc, BA)",choice,41,1,For,Against
50,1659976314562,08/08/2022 16:31:54,1659976266744,1,08/08/2022 17:31:06,94826,3,task-j4ag,NA,23527632,6895791,NA,complete,NA,62f138e9bc263a64d1416adc,computer,Desktop or Laptop,Mac OS 10.15.7,Safari 13.1.3,1440x900,1440x760,NA,ITT Ratings,2,for,5,NA,NA,NA,ACCEPT,NA,NA,NA,NA,NA,NA,batch5pro,batch5pro,32,48,1,Screen 1,continueButton,response_rating_scale_likert_active,12747,NA,NA,Strongly Agree,1,0,1,0,NA,NA,NA,NA,1,statements,It protects me and others around me by reducing the likelihood of me spreading the disease to others.,1,17/06/2021 12:44,17/06/2021 12:56,IP Address,For (I feel positively about the vaccines),Rarely,Rarely,40,Female,NA,"Undergraduate degree (BSc, BA)",choice,45,2,For,For
51,1659976316742,08/08/2022 16:31:56,1659976268912,1,08/08/2022 17:31:08,94826,3,task-j4ag,NA,23527632,6895791,NA,complete,NA,62f138e9bc263a64d1416adc,computer,Desktop or Laptop,Mac OS 10.15.7,Safari 13.1.3,1440x900,1440x760,NA,ITT Ratings,2,for,5,NA,NA,NA,ACCEPT,NA,NA,NA,NA,NA,NA,batch5pro,batch5pro,40,49,1,Screen 1,continueButton,response_rating_scale_likert_active,2157,NA,NA,Strongly Disagree,1,0,1,0,NA,NA,NA,NA,1,statements,I do not trust the people who have made the vaccine,1,17/06/2021 12:45,17/06/2021 12:57,IP Address,For (I feel positively about the vaccines),Never,Most months,22,Female,NA,"Postgraduate degree (MSc, MA, MPhil)",control,47,1,For,Against
52,1659976319401,08/08/2022 16:31:59,1659976271587,1,08/08/2022 17:31:11,94826,3,task-j4ag,NA,23527632,6895791,NA,complete,NA,62f138e9bc263a64d1416adc,computer,Desktop or Laptop,Mac OS 10.15.7,Safari 13.1.3,1440x900,1440x760,NA,ITT Ratings,2,for,5,NA,NA,NA,ACCEPT,NA,NA,NA,NA,NA,NA,batch5pro,batch5pro,52,50,1,Screen 1,continueButton,response_rating_scale_likert_active,2666,NA,NA,Strongly Disagree,1,0,1,0,NA,NA,NA,NA,1,statements,Unsafe and could cause side effects,1,17/06/2021 12:49,17/06/2021 12:57,IP Address,For (I feel positively about the vaccines),Rarely,A few times a year,38,Male,NA,GCSEs,control,49,1,For,Against
53,1659976321492,08/08/2022 16:32:01,1659976273683,1,08/08/2022 17:31:13,94826,3,task-j4ag,NA,23527632,6895791,NA,complete,NA,62f138e9bc263a64d1416adc,computer,Desktop or Laptop,Mac OS 10.15.7,Safari 13.1.3,1440x900,1440x760,NA,ITT Ratings,2,for,5,NA,NA,NA,ACCEPT,NA,NA,NA,NA,NA,NA,batch5pro,batch5pro,39,51,1,Screen 1,continueButton,response_rating_scale_likert_active,2084,NA,NA,Strongly Agree,1,0,1,0,NA,NA,NA,NA,1,statements,to be able to socialise and go on holiday,1,17/06/2021 12:46,17/06/2021 12:56,IP Address,For (I feel positively about the vaccines),A few times a year,A few times a year,53,Female,NA,Vocational Training / Apprenticeship,control,46,3,For,For
54,1659976323653,08/08/2022 16:32:03,1659976275834,1,08/08/2022 17:31:15,94826,3,task-j4ag,NA,23527632,6895791,NA,complete,NA,62f138e9bc263a64d1416adc,computer,Desktop or Laptop,Mac OS 10.15.7,Safari 13.1.3,1440x900,1440x760,NA,ITT Ratings,2,for,5,NA,NA,NA,ACCEPT,NA,NA,NA,NA,NA,NA,batch5pro,batch5pro,11,52,1,Screen 1,continueButton,response_rating_scale_likert_active,2142,NA,NA,Strongly Disagree,1,0,1,0,NA,NA,NA,NA,1,statements,We are unsure of any possible side effects,1,17/06/2021 12:31,17/06/2021 12:55,IP Address,For (I feel positively about the vaccines),Most days,Most weeks,23,Female,NA,"Undergraduate degree (BSc, BA)",choice,42,2,For,Against
55,1659976327561,08/08/2022 16:32:07,1659976279750,1,08/08/2022 17:31:19,94826,3,task-j4ag,NA,23527632,6895791,NA,complete,NA,62f138e9bc263a64d1416adc,computer,Desktop or Laptop,Mac OS 10.15.7,Safari 13.1.3,1440x900,1440x760,NA,ITT Ratings,2,for,5,NA,NA,NA,ACCEPT,NA,NA,NA,NA,NA,NA,batch5pro,batch5pro,14,53,1,Screen 1,continueButton,response_rating_scale_likert_active,3907,NA,NA,Strongly Agree,1,0,1,0,NA,NA,NA,NA,1,statements,It would mean that the rate of infection would go down,1,17/06/2021 12:31,17/06/2021 12:55,IP Address,For (I feel positively about the vaccines),Most days,Most weeks,23,Female,NA,"Undergraduate degree (BSc, BA)",choice,42,2,For,For
56,1659976329838,08/08/2022 16:32:09,1659976282023,1,08/08/2022 17:31:22,94826,3,task-j4ag,NA,23527632,6895791,NA,complete,NA,62f138e9bc263a64d1416adc,computer,Desktop or Laptop,Mac OS 10.15.7,Safari 13.1.3,1440x900,1440x760,NA,ITT Ratings,2,for,5,NA,NA,NA,ACCEPT,NA,NA,NA,NA,NA,NA,batch5pro,batch5pro,49,54,1,Screen 1,continueButton,response_rating_scale_likert_active,2261,NA,NA,Strongly Agree,1,0,1,0,NA,NA,NA,NA,1,statements,I want to be safe against covid,1,17/06/2021 12:48,17/06/2021 12:57,IP Address,For (I feel positively about the vaccines),Rarely,Most months,25,Female,NA,A levels,choice,48,1,For,For
57,1659976331528,08/08/2022 16:32:11,1659976283716,1,08/08/2022 17:31:23,94826,3,task-j4ag,NA,23527632,6895791,NA,complete,NA,62f138e9bc263a64d1416adc,computer,Desktop or Laptop,Mac OS 10.15.7,Safari 13.1.3,1440x900,1440x760,NA,ITT Ratings,2,for,5,NA,NA,NA,ACCEPT,NA,NA,NA,NA,NA,NA,batch5pro,batch5pro,58,55,1,Screen 1,continueButton,response_rating_scale_likert_active,1682.0000000000582,NA,NA,Strongly Disagree,1,0,1,0,NA,NA,NA,NA,1,statements,That the vaccine isn't safe,1,17/06/2021 12:52,17/06/2021 12:57,IP Address,For (I feel positively about the vaccines),Most months,Most months,29,Female,NA,"Undergraduate degree (BSc, BA)",control,50,1,For,Against
58,1659976333802,08/08/2022 16:32:13,1659976285980,1,08/08/2022 17:31:25,94826,3,task-j4ag,NA,23527632,6895791,NA,complete,NA,62f138e9bc263a64d1416adc,computer,Desktop or Laptop,Mac OS 10.15.7,Safari 13.1.3,1440x900,1440x760,NA,ITT Ratings,2,for,5,NA,NA,NA,ACCEPT,NA,NA,NA,NA,NA,NA,batch5pro,batch5pro,60,56,1,Screen 1,continueButton,response_rating_scale_likert_active,2255,NA,NA,Somewhat Disagree,1,0,1,0,NA,NA,NA,NA,1,statements,I've already had covid,1,17/06/2021 12:52,17/06/2021 12:57,IP Address,For (I feel positively about the vaccines),Most months,Most months,29,Female,NA,"Undergraduate degree (BSc, BA)",control,50,3,For,Against
59,1659976336206,08/08/2022 16:32:16,1659976288398,1,08/08/2022 17:31:28,94826,3,task-j4ag,NA,23527632,6895791,NA,complete,NA,62f138e9bc263a64d1416adc,computer,Desktop or Laptop,Mac OS 10.15.7,Safari 13.1.3,1440x900,1440x760,NA,ITT Ratings,2,for,5,NA,NA,NA,ACCEPT,NA,NA,NA,NA,NA,NA,batch5pro,batch5pro,20,57,1,Screen 1,continueButton,response_rating_scale_likert_active,2407.999999999942,NA,NA,Agree,1,0,1,0,NA,NA,NA,NA,1,statements,I believe all vaccines help,1,17/06/2021 12:45,17/06/2021 12:55,IP Address,For (I feel positively about the vaccines),Never,Rarely,27,Female,NA,A levels,control,43,2,For,For
60,1659976339353,08/08/2022 16:32:19,1659976291541,1,08/08/2022 17:31:31,94826,3,task-j4ag,NA,23527632,6895791,NA,complete,NA,62f138e9bc263a64d1416adc,computer,Desktop or Laptop,Mac OS 10.15.7,Safari 13.1.3,1440x900,1440x760,NA,ITT Ratings,2,for,5,NA,NA,NA,ACCEPT,NA,NA,NA,NA,NA,NA,batch5pro,batch5pro,23,58,1,Screen 1,continueButton,response_rating_scale_likert_active,3131,NA,NA,Strongly Disagree,1,0,1,0,NA,NA,NA,NA,1,statements,The side-effects of taking the vaccine are not worth the hassle of receiving a vaccine.,1,17/06/2021 12:41,17/06/2021 12:56,IP Address,For (I feel positively about the vaccines),Most weeks,Most weeks,23,Male,NA,"Undergraduate degree (BSc, BA)",control,44,2,For,Against
61,1659976342951,08/08/2022 16:32:22,1659976295143,1,08/08/2022 17:31:35,94826,3,task-j4ag,NA,23527632,6895791,NA,complete,NA,62f138e9bc263a64d1416adc,computer,Desktop or Laptop,Mac OS 10.15.7,Safari 13.1.3,1440x900,1440x760,NA,ITT Ratings,2,for,5,NA,NA,NA,ACCEPT,NA,NA,NA,NA,NA,NA,batch5pro,batch5pro,42,59,1,Screen 1,continueButton,response_rating_scale_likert_active,3591,NA,NA,Strongly Disagree,1,0,1,0,NA,NA,NA,NA,1,statements,I have a weak immune system,1,17/06/2021 12:45,17/06/2021 12:57,IP Address,For (I feel positively about the vaccines),Never,Most months,22,Female,NA,"Postgraduate degree (MSc, MA, MPhil)",control,47,3,For,Against
62,1659976370664,08/08/2022 16:32:50,1659976322843,1,08/08/2022 17:32:02,94826,3,task-j4ag,NA,23527632,6895791,NA,complete,NA,62f138e9bc263a64d1416adc,computer,Desktop or Laptop,Mac OS 10.15.7,Safari 13.1.3,1440x900,1440x760,NA,ITT Ratings,2,for,5,NA,NA,NA,ACCEPT,NA,NA,NA,NA,NA,NA,batch5pro,batch5pro,45,60,1,Screen 1,continueButton,response_rating_scale_likert_active,27689,NA,NA,Strongly Agree,1,0,1,0,NA,NA,NA,NA,1,statements,"It will help protect the general population, and stop the spread of COVID-19",1,17/06/2021 12:45,17/06/2021 12:57,IP Address,For (I feel positively about the vaccines),Never,Most months,22,Female,NA,"Postgraduate degree (MSc, MA, MPhil)",control,47,3,For,For
63,1659976373406,08/08/2022 16:32:53,1659976325582,1,08/08/2022 17:32:05,94826,3,task-j4ag,NA,23527632,6895791,NA,complete,NA,62f138e9bc263a64d1416adc,computer,Desktop or Laptop,Mac OS 10.15.7,Safari 13.1.3,1440x900,1440x760,NA,ITT Ratings,2,for,5,NA,NA,NA,ACCEPT,NA,NA,NA,NA,NA,NA,batch5pro,batch5pro,27,61,1,Screen 1,continueButton,response_rating_scale_likert_active,2732,NA,NA,Strongly Agree,1,0,1,0,NA,NA,NA,NA,1,statements,So that I can travel to different countries without hassle.,1,17/06/2021 12:41,17/06/2021 12:56,IP Address,For (I feel positively about the vaccines),Most weeks,Most weeks,23,Male,NA,"Undergraduate degree (BSc, BA)",control,44,3,For,For
64,1659976387956,08/08/2022 16:33:07,1659976340131,1,08/08/2022 17:32:20,94826,3,task-j4ag,NA,23527632,6895791,NA,complete,NA,62f138e9bc263a64d1416adc,computer,Desktop or Laptop,Mac OS 10.15.7,Safari 13.1.3,1440x900,1440x760,NA,ITT Ratings,2,for,5,NA,NA,NA,ACCEPT,NA,NA,NA,NA,NA,NA,batch5pro,batch5pro,6,62,1,Screen 1,continueButton,response_rating_scale_likert_active,14540,NA,NA,Strongly Disagree,1,0,1,0,NA,NA,NA,NA,1,statements,I don't believe in vaccines as I believe it alters my DNA which will effect my children.,1,17/06/2021 12:39,17/06/2021 12:54,IP Address,For (I feel positively about the vaccines),Rarely,Most months,38,Male,NA,"Undergraduate degree (BSc, BA)",choice,41,3,For,Against
65,1659976388029,08/08/2022 16:33:08,1659976340136,1,08/08/2022 17:32:20,94826,3,task-j4ag,NA,23527632,6895791,NA,complete,NA,62f138e9bc263a64d1416adc,computer,Desktop or Laptop,Mac OS 10.15.7,Safari 13.1.3,1440x900,1440x760,NA,ITT Ratings,2,for,5,NA,NA,NA,ACCEPT,NA,NA,NA,NA,NA,NA,batch5pro,NA,NA,END TASK,NA,NA,NA,NA,416466,NA,NA,NA,NA,0,1,0,NA,NA,NA,NA,NA,NA,NA,NA,NA,NA,NA,NA,NA,NA,NA,NA,NA,NA,NA,NA,NA,NA,NA
1,1659976056123,08/08/2022 16:27:36,1659976056152,1,08/08/2022 17:27:36,94826,3,task-j4ag,NA,23527680,6895795,NA,complete,NA,62f13831106ac0dae54cfbc1,computer,Desktop or Laptop,Windows 7,Chrome 103.0.0.0,1920x1080,1649x948,NA,ITT Ratings,2,for,5,NA,NA,NA,ACCEPT,NA,NA,NA,NA,NA,NA,batch5pro,NA,NA,BEGIN TASK,NA,NA,NA,NA,NA,NA,NA,NA,NA,0,1,0,NA,NA,NA,NA,NA,NA,NA,NA,NA,NA,NA,NA,NA,NA,NA,NA,NA,NA,NA,NA,NA,NA,NA
2,1659976061060,08/08/2022 16:27:41,1659976061135,1,08/08/2022 17:27:41,94826,3,task-j4ag,NA,23527680,6895795,NA,complete,NA,62f13831106ac0dae54cfbc1,computer,Desktop or Laptop,Windows 7,Chrome 103.0.0.0,1920x1080,1649x948,NA,ITT Ratings,2,for,5,NA,NA,NA,ACCEPT,NA,NA,NA,NA,NA,NA,batch5pro,batch5pro,1,1,1,Screen 1,advancementZone,continue_button,4941.70000000298,NA,NA,NA,NA,0,1,0,NA,NA,NA,NA,NA,instructions,NA,NA,NA,NA,NA,NA,NA,NA,NA,NA,NA,NA,NA,NA,NA,NA,NA
3,1659976066939,08/08/2022 16:27:46,1659976067016,1,08/08/2022 17:27:47,94826,3,task-j4ag,NA,23527680,6895795,NA,complete,NA,62f13831106ac0dae54cfbc1,computer,Desktop or Laptop,Windows 7,Chrome 103.0.0.0,1920x1080,1649x948,NA,ITT Ratings,2,for,5,NA,NA,NA,ACCEPT,NA,NA,NA,NA,NA,NA,batch5pro,batch5pro,58,1,1,Screen 1,continueButton,response_rating_scale_likert_active,5865.800000011921,NA,NA,Disagree,1,0,1,0,NA,NA,NA,NA,1,statements,That the vaccine isn't safe,1,17/06/2021 12:52,17/06/2021 12:57,IP Address,For (I feel positively about the vaccines),Most months,Most months,29,Female,NA,"Undergraduate degree (BSc, BA)",control,50,1,For,Against
4,1659976071417,08/08/2022 16:27:51,1659976071510,1,08/08/2022 17:27:51,94826,3,task-j4ag,NA,23527680,6895795,NA,complete,NA,62f13831106ac0dae54cfbc1,computer,Desktop or Laptop,Windows 7,Chrome 103.0.0.0,1920x1080,1649x948,NA,ITT Ratings,2,for,5,NA,NA,NA,ACCEPT,NA,NA,NA,NA,NA,NA,batch5pro,batch5pro,63,2,1,Screen 1,continueButton,response_rating_scale_likert_active,4472.4000000059605,NA,NA,Somewhat Disagree,1,0,1,0,NA,NA,NA,NA,1,statements,You can go on holiday,1,17/06/2021 12:52,17/06/2021 12:57,IP Address,For (I feel positively about the vaccines),Most months,Most months,29,Female,NA,"Undergraduate degree (BSc, BA)",control,50,3,For,For
5,1659976077827,08/08/2022 16:27:57,1659976077927,1,08/08/2022 17:27:57,94826,3,task-j4ag,NA,23527680,6895795,NA,complete,NA,62f13831106ac0dae54cfbc1,computer,Desktop or Laptop,Windows 7,Chrome 103.0.0.0,1920x1080,1649x948,NA,ITT Ratings,2,for,5,NA,NA,NA,ACCEPT,NA,NA,NA,NA,NA,NA,batch5pro,batch5pro,9,3,1,Screen 1,continueButton,response_rating_scale_likert_active,6404.79999999702,NA,NA,Disagree,1,0,1,0,NA,NA,NA,NA,1,statements,I want to be able to be able to participate in group activities.,1,17/06/2021 12:39,17/06/2021 12:54,IP Address,For (I feel positively about the vaccines),Rarely,Most months,38,Male,NA,"Undergraduate degree (BSc, BA)",choice,41,3,For,For
6,1659976081205,08/08/2022 16:28:01,1659976081294,1,08/08/2022 17:28:01,94826,3,task-j4ag,NA,23527680,6895795,NA,complete,NA,62f13831106ac0dae54cfbc1,computer,Desktop or Laptop,Windows 7,Chrome 103.0.0.0,1920x1080,1649x948,NA,ITT Ratings,2,for,5,NA,NA,NA,ACCEPT,NA,NA,NA,NA,NA,NA,batch5pro,batch5pro,49,4,1,Screen 1,continueButton,response_rating_scale_likert_active,3357.79999999702,NA,NA,Agree,1,0,1,0,NA,NA,NA,NA,1,statements,I want to be safe against covid,1,17/06/2021 12:48,17/06/2021 12:57,IP Address,For (I feel positively about the vaccines),Rarely,Most months,25,Female,NA,A levels,choice,48,1,For,For
7,1659976083117,08/08/2022 16:28:03,1659976083214,1,08/08/2022 17:28:03,94826,3,task-j4ag,NA,23527680,6895795,NA,complete,NA,62f13831106ac0dae54cfbc1,computer,Desktop or Laptop,Windows 7,Chrome 103.0.0.0,1920x1080,1649x948,NA,ITT Ratings,2,for,5,NA,NA,NA,ACCEPT,NA,NA,NA,NA,NA,NA,batch5pro,batch5pro,17,5,1,Screen 1,continueButton,response_rating_scale_likert_active,1909.8999999910593,NA,NA,Disagree,1,0,1,0,NA,NA,NA,NA,1,statements,I am against vaccinations,1,17/06/2021 12:45,17/06/2021 12:55,IP Address,For (I feel positively about the vaccines),Never,Rarely,27,Female,NA,A levels,control,43,2,For,Against
8,1659976089070,08/08/2022 16:28:09,1659976089166,1,08/08/2022 17:28:09,94826,3,task-j4ag,NA,23527680,6895795,NA,complete,NA,62f13831106ac0dae54cfbc1,computer,Desktop or Laptop,Windows 7,Chrome 103.0.0.0,1920x1080,1649x948,NA,ITT Ratings,2,for,5,NA,NA,NA,ACCEPT,NA,NA,NA,NA,NA,NA,batch5pro,batch5pro,48,6,1,Screen 1,continueButton,response_rating_scale_likert_active,5941.20000000298,NA,NA,Somewhat Agree,1,0,1,0,NA,NA,NA,NA,1,statements,I don't want to be injected to with something that can make me ill.,1,17/06/2021 12:48,17/06/2021 12:57,IP Address,For (I feel positively about the vaccines),Rarely,Most months,25,Female,NA,A levels,choice,48,3,For,Against
9,1659976093193,08/08/2022 16:28:13,1659976093270,1,08/08/2022 17:28:13,94826,3,task-j4ag,NA,23527680,6895795,NA,complete,NA,62f13831106ac0dae54cfbc1,computer,Desktop or Laptop,Windows 7,Chrome 103.0.0.0,1920x1080,1649x948,NA,ITT Ratings,2,for,5,NA,NA,NA,ACCEPT,NA,NA,NA,NA,NA,NA,batch5pro,batch5pro,29,7,1,Screen 1,continueButton,response_rating_scale_likert_active,4094.199999988079,NA,NA,Neither Agree nor Disagree,1,0,1,0,NA,NA,NA,NA,1,statements,I feel the vaccine has been developed too quickly and not tested rigorously enough to the sure that it is safe.,1,17/06/2021 12:44,17/06/2021 12:56,IP Address,For (I feel positively about the vaccines),Rarely,Rarely,40,Female,NA,"Undergraduate degree (BSc, BA)",choice,45,2,For,Against
10,1659976095400,08/08/2022 16:28:15,1659976095494,1,08/08/2022 17:28:15,94826,3,task-j4ag,NA,23527680,6895795,NA,complete,NA,62f13831106ac0dae54cfbc1,computer,Desktop or Laptop,Windows 7,Chrome 103.0.0.0,1920x1080,1649x948,NA,ITT Ratings,2,for,5,NA,NA,NA,ACCEPT,NA,NA,NA,NA,NA,NA,batch5pro,batch5pro,8,8,1,Screen 1,continueButton,response_rating_scale_likert_active,2214.70000000298,NA,NA,Strongly Agree,1,0,1,0,NA,NA,NA,NA,1,statements,I don't want friends or family to get sick.,1,17/06/2021 12:39,17/06/2021 12:54,IP Address,For (I feel positively about the vaccines),Rarely,Most months,38,Male,NA,"Undergraduate degree (BSc, BA)",choice,41,2,For,For
11,1659976099926,08/08/2022 16:28:19,1659976100022,1,08/08/2022 17:28:20,94826,3,task-j4ag,NA,23527680,6895795,NA,complete,NA,62f13831106ac0dae54cfbc1,computer,Desktop or Laptop,Windows 7,Chrome 103.0.0.0,1920x1080,1649x948,NA,ITT Ratings,2,for,5,NA,NA,NA,ACCEPT,NA,NA,NA,NA,NA,NA,batch5pro,batch5pro,7,9,1,Screen 1,continueButton,response_rating_scale_likert_active,4518.20000000298,NA,NA,Agree,1,0,1,0,NA,NA,NA,NA,1,statements,They don't want to get sick,1,17/06/2021 12:39,17/06/2021 12:54,IP Address,For (I feel positively about the vaccines),Rarely,Most months,38,Male,NA,"Undergraduate degree (BSc, BA)",choice,41,1,For,For
12,1659976108125,08/08/2022 16:28:28,1659976108214,1,08/08/2022 17:28:28,94826,3,task-j4ag,NA,23527680,6895795,NA,complete,NA,62f13831106ac0dae54cfbc1,computer,Desktop or Laptop,Windows 7,Chrome 103.0.0.0,1920x1080,1649x948,NA,ITT Ratings,2,for,5,NA,NA,NA,ACCEPT,NA,NA,NA,NA,NA,NA,batch5pro,batch5pro,3,10,1,Screen 1,continueButton,response_rating_scale_likert_active,8182.09999999404,NA,NA,Somewhat Disagree,1,0,1,0,NA,NA,NA,NA,1,statements,We would like to check you are reading each argument carefully. Please select 'Somewhat Disagree' for this answer,1,NA,NA,NA,NA,NA,NA,NA,NA,NA,NA,NA,NA,check2,NA,NA
13,1659976111117,08/08/2022 16:28:31,1659976111214,1,08/08/2022 17:28:31,94826,3,task-j4ag,NA,23527680,6895795,NA,complete,NA,62f13831106ac0dae54cfbc1,computer,Desktop or Laptop,Windows 7,Chrome 103.0.0.0,1920x1080,1649x948,NA,ITT Ratings,2,for,5,NA,NA,NA,ACCEPT,NA,NA,NA,NA,NA,NA,batch5pro,batch5pro,54,11,1,Screen 1,continueButton,response_rating_scale_likert_active,2990.70000000298,NA,NA,Disagree,1,0,1,0,NA,NA,NA,NA,1,statements,I would rather risk it and rely on immune system.,1,17/06/2021 12:49,17/06/2021 12:57,IP Address,For (I feel positively about the vaccines),Rarely,A few times a year,38,Male,NA,GCSEs,control,49,3,For,Against
14,1659976113568,08/08/2022 16:28:33,1659976113662,1,08/08/2022 17:28:33,94826,3,task-j4ag,NA,23527680,6895795,NA,complete,NA,62f13831106ac0dae54cfbc1,computer,Desktop or Laptop,Windows 7,Chrome 103.0.0.0,1920x1080,1649x948,NA,ITT Ratings,2,for,5,NA,NA,NA,ACCEPT,NA,NA,NA,NA,NA,NA,batch5pro,batch5pro,18,12,1,Screen 1,continueButton,response_rating_scale_likert_active,2438.5,NA,NA,Disagree,1,0,1,0,NA,NA,NA,NA,1,statements,I do not believe the vaccination is safe,1,17/06/2021 12:45,17/06/2021 12:55,IP Address,For (I feel positively about the vaccines),Never,Rarely,27,Female,NA,A levels,control,43,3,For,Against
15,1659976123281,08/08/2022 16:28:43,1659976123374,1,08/08/2022 17:28:43,94826,3,task-j4ag,NA,23527680,6895795,NA,complete,NA,62f13831106ac0dae54cfbc1,computer,Desktop or Laptop,Windows 7,Chrome 103.0.0.0,1920x1080,1649x948,NA,ITT Ratings,2,for,5,NA,NA,NA,ACCEPT,NA,NA,NA,NA,NA,NA,batch5pro,batch5pro,42,13,1,Screen 1,continueButton,response_rating_scale_likert_active,9702.20000000298,NA,NA,Somewhat Agree,1,0,1,0,NA,NA,NA,NA,1,statements,I have a weak immune system,1,17/06/2021 12:45,17/06/2021 12:57,IP Address,For (I feel positively about the vaccines),Never,Most months,22,Female,NA,"Postgraduate degree (MSc, MA, MPhil)",control,47,3,For,Against
16,1659976125153,08/08/2022 16:28:45,1659976125246,1,08/08/2022 17:28:45,94826,3,task-j4ag,NA,23527680,6895795,NA,complete,NA,62f13831106ac0dae54cfbc1,computer,Desktop or Laptop,Windows 7,Chrome 103.0.0.0,1920x1080,1649x948,NA,ITT Ratings,2,for,5,NA,NA,NA,ACCEPT,NA,NA,NA,NA,NA,NA,batch5pro,batch5pro,2,14,1,Screen 1,continueButton,response_rating_scale_likert_active,1862.0999999940395,NA,NA,Somewhat Agree,1,0,1,0,NA,NA,NA,NA,1,statements,We would like to check you are reading each argument carefully. Please select 'Somewhat Agree' for this answer,1,NA,NA,NA,NA,NA,NA,NA,NA,NA,NA,NA,NA,check1,NA,NA
17,1659976128796,08/08/2022 16:28:48,1659976128886,1,08/08/2022 17:28:48,94826,3,task-j4ag,NA,23527680,6895795,NA,complete,NA,62f13831106ac0dae54cfbc1,computer,Desktop or Laptop,Windows 7,Chrome 103.0.0.0,1920x1080,1649x948,NA,ITT Ratings,2,for,5,NA,NA,NA,ACCEPT,NA,NA,NA,NA,NA,NA,batch5pro,batch5pro,55,15,1,Screen 1,continueButton,response_rating_scale_likert_active,3630,NA,NA,Agree,1,0,1,0,NA,NA,NA,NA,1,statements,It's safe and I want to ensure people around me are safe,1,17/06/2021 12:49,17/06/2021 12:57,IP Address,For (I feel positively about the vaccines),Rarely,A few times a year,38,Male,NA,GCSEs,control,49,1,For,For
18,1659976132641,08/08/2022 16:28:52,1659976132734,1,08/08/2022 17:28:52,94826,3,task-j4ag,NA,23527680,6895795,NA,complete,NA,62f13831106ac0dae54cfbc1,computer,Desktop or Laptop,Windows 7,Chrome 103.0.0.0,1920x1080,1649x948,NA,ITT Ratings,2,for,5,NA,NA,NA,ACCEPT,NA,NA,NA,NA,NA,NA,batch5pro,batch5pro,38,16,1,Screen 1,continueButton,response_rating_scale_likert_active,3839.400000005961,NA,NA,Agree,1,0,1,0,NA,NA,NA,NA,1,statements,the evidence and information relating to the vaccine is positive,1,17/06/2021 12:46,17/06/2021 12:56,IP Address,For (I feel positively about the vaccines),A few times a year,A few times a year,53,Female,NA,Vocational Training / Apprenticeship,control,46,2,For,For
19,1659976135304,08/08/2022 16:28:55,1659976135398,1,08/08/2022 17:28:55,94826,3,task-j4ag,NA,23527680,6895795,NA,complete,NA,62f13831106ac0dae54cfbc1,computer,Desktop or Laptop,Windows 7,Chrome 103.0.0.0,1920x1080,1649x948,NA,ITT Ratings,2,for,5,NA,NA,NA,ACCEPT,NA,NA,NA,NA,NA,NA,batch5pro,batch5pro,15,17,1,Screen 1,continueButton,response_rating_scale_likert_active,2655,NA,NA,Agree,1,0,1,0,NA,NA,NA,NA,1,statements,I could meet my family again,1,17/06/2021 12:31,17/06/2021 12:55,IP Address,For (I feel positively about the vaccines),Most days,Most weeks,23,Female,NA,"Undergraduate degree (BSc, BA)",choice,42,3,For,For
20,1659976142144,08/08/2022 16:29:02,1659976142245,1,08/08/2022 17:29:02,94826,3,task-j4ag,NA,23527680,6895795,NA,complete,NA,62f13831106ac0dae54cfbc1,computer,Desktop or Laptop,Windows 7,Chrome 103.0.0.0,1920x1080,1649x948,NA,ITT Ratings,2,for,5,NA,NA,NA,ACCEPT,NA,NA,NA,NA,NA,NA,batch5pro,batch5pro,28,18,1,Screen 1,continueButton,response_rating_scale_likert_active,6838.5,NA,NA,Somewhat Agree,1,0,1,0,NA,NA,NA,NA,1,statements,I am allergic to one of the ingredients in the vaccine.,1,17/06/2021 12:44,17/06/2021 12:56,IP Address,For (I feel positively about the vaccines),Rarely,Rarely,40,Female,NA,"Undergraduate degree (BSc, BA)",choice,45,1,For,Against
21,1659976146664,08/08/2022 16:29:06,1659976146766,1,08/08/2022 17:29:06,94826,3,task-j4ag,NA,23527680,6895795,NA,complete,NA,62f13831106ac0dae54cfbc1,computer,Desktop or Laptop,Windows 7,Chrome 103.0.0.0,1920x1080,1649x948,NA,ITT Ratings,2,for,5,NA,NA,NA,ACCEPT,NA,NA,NA,NA,NA,NA,batch5pro,batch5pro,27,19,1,Screen 1,continueButton,response_rating_scale_likert_active,4510.4000000059605,NA,NA,Somewhat Disagree,1,0,1,0,NA,NA,NA,NA,1,statements,So that I can travel to different countries without hassle.,1,17/06/2021 12:41,17/06/2021 12:56,IP Address,For (I feel positively about the vaccines),Most weeks,Most weeks,23,Male,NA,"Undergraduate degree (BSc, BA)",control,44,3,For,For
22,1659976149998,08/08/2022 16:29:09,1659976150094,1,08/08/2022 17:29:10,94826,3,task-j4ag,NA,23527680,6895795,NA,complete,NA,62f13831106ac0dae54cfbc1,computer,Desktop or Laptop,Windows 7,Chrome 103.0.0.0,1920x1080,1649x948,NA,ITT Ratings,2,for,5,NA,NA,NA,ACCEPT,NA,NA,NA,NA,NA,NA,batch5pro,batch5pro,19,20,1,Screen 1,continueButton,response_rating_scale_likert_active,3318.6000000089407,NA,NA,Agree,1,0,1,0,NA,NA,NA,NA,1,statements,I believe the vaccine is beneficial and will provide protection,1,17/06/2021 12:45,17/06/2021 12:55,IP Address,For (I feel positively about the vaccines),Never,Rarely,27,Female,NA,A levels,control,43,1,For,For
23,1659976155080,08/08/2022 16:29:15,1659976155182,1,08/08/2022 17:29:15,94826,3,task-j4ag,NA,23527680,6895795,NA,complete,NA,62f13831106ac0dae54cfbc1,computer,Desktop or Laptop,Windows 7,Chrome 103.0.0.0,1920x1080,1649x948,NA,ITT Ratings,2,for,5,NA,NA,NA,ACCEPT,NA,NA,NA,NA,NA,NA,batch5pro,batch5pro,59,21,1,Screen 1,continueButton,response_rating_scale_likert_active,5078.0999999940395,NA,NA,Somewhat Agree,1,0,1,0,NA,NA,NA,NA,1,statements,You don't know what you are having injected,1,17/06/2021 12:52,17/06/2021 12:57,IP Address,For (I feel positively about the vaccines),Most months,Most months,29,Female,NA,"Undergraduate degree (BSc, BA)",control,50,2,For,Against
