Event.Index,UTC.Timestamp,UTC.Date,Local.Timestamp,Local.Timezone,Local.Date,Experiment.ID,Experiment.Version,Tree.Node.Key,Repeat.Key,Schedule.ID,Participant.Private.ID,Participant.Starting.Group,Participant.Status,Participant.Completion.Code,Participant.External.Session.ID,Participant.Device.Type,Participant.Device,Participant.OS,Participant.Browser,Participant.Monitor.Size,Participant.Viewport.Size,Checkpoint,Task.Name,Task.Version,branch.69an,randomiser.8vg2,quota.bqtt,quota.rycs,quota.wtfi,quota.usve,quota.zgic,quota.f3yz,quota.r9vy,quota.tfqq,quota.3dga,quota.dtj6,Spreadsheet,Spreadsheet.Name,Spreadsheet.Row,Trial.Number,Screen.Number,Screen.Name,Zone.Name,Zone.Type,Reaction.Time,Reaction.Onset,Response.Type,Response,Attempt,Correct,Incorrect,Dishonest,X.Coordinate,Y.Coordinate,Timed.Out,randomise_blocks,randomise_trials,display,Arguments,ShowProgressBar,StartDate,EndDate,Status,prolif_check,discuss_1,read_1,age,gender,gender_4_TEXT,edu,condition,ID,arg_ID,Position,Arg_Position
1,1659975297403,08/08/2022 16:14:57,1659975297343,1,08/08/2022 17:14:57,94826,3,task-s8ki,NA,23527384,6895708,NA,complete,NA,62f1357ba2156f7df98c1d21,computer,Desktop or Laptop,Windows 10,Firefox 98.0,1920x1080,1920x927,NA,ITT Ratings,2,for,6,NA,NA,NA,NA,ACCEPT,NA,NA,NA,NA,NA,batch6pro,NA,NA,BEGIN TASK,NA,NA,NA,NA,NA,NA,NA,NA,NA,0,1,0,NA,NA,NA,NA,NA,NA,NA,NA,NA,NA,NA,NA,NA,NA,NA,NA,NA,NA,NA,NA,NA,NA,NA
2,1659975304927,08/08/2022 16:15:04,1659975304915,1,08/08/2022 17:15:04,94826,3,task-s8ki,NA,23527384,6895708,NA,complete,NA,62f1357ba2156f7df98c1d21,computer,Desktop or Laptop,Windows 10,Firefox 98.0,1920x1080,1920x927,NA,ITT Ratings,2,for,6,NA,NA,NA,NA,ACCEPT,NA,NA,NA,NA,NA,batch6pro,batch6pro,1,1,1,Screen 1,advancementZone,continue_button,7549,NA,NA,NA,NA,0,1,0,NA,NA,NA,NA,NA,instructions,NA,NA,NA,NA,NA,NA,NA,NA,NA,NA,NA,NA,NA,NA,NA,NA,NA
3,1659975312251,08/08/2022 16:15:12,1659975312209,1,08/08/2022 17:15:12,94826,3,task-s8ki,NA,23527384,6895708,NA,complete,NA,62f1357ba2156f7df98c1d21,computer,Desktop or Laptop,Windows 10,Firefox 98.0,1920x1080,1920x927,NA,ITT Ratings,2,for,6,NA,NA,NA,NA,ACCEPT,NA,NA,NA,NA,NA,batch6pro,batch6pro,7,1,1,Screen 1,continueButton,response_rating_scale_likert_active,7279,NA,NA,Strongly Agree,1,0,1,0,NA,NA,NA,NA,1,statements,if everyone gets vaccinated we can slow/stop the mutations which takes away a lot of its power,1,17/06/2021 12:51,17/06/2021 12:57,IP Address,For (I feel positively about the vaccines),A few times a year,Most months,30,Female,NA,"Undergraduate degree (BSc, BA)",choice,51,1,For,For
4,1659975315868,08/08/2022 16:15:15,1659975315858,1,08/08/2022 17:15:15,94826,3,task-s8ki,NA,23527384,6895708,NA,complete,NA,62f1357ba2156f7df98c1d21,computer,Desktop or Laptop,Windows 10,Firefox 98.0,1920x1080,1920x927,NA,ITT Ratings,2,for,6,NA,NA,NA,NA,ACCEPT,NA,NA,NA,NA,NA,batch6pro,batch6pro,40,2,1,Screen 1,continueButton,response_rating_scale_likert_active,3638,NA,NA,Somewhat Disagree,1,0,1,0,NA,NA,NA,NA,1,statements,it was produced too quickly to be effective,1,17/06/2021 12:44,17/06/2021 12:58,IP Address,For (I feel positively about the vaccines),A few times a year,Most months,49,Female,NA,"Undergraduate degree (BSc, BA)",control,57,1,For,Against
5,1659975318975,08/08/2022 16:15:18,1659975318959,1,08/08/2022 17:15:18,94826,3,task-s8ki,NA,23527384,6895708,NA,complete,NA,62f1357ba2156f7df98c1d21,computer,Desktop or Laptop,Windows 10,Firefox 98.0,1920x1080,1920x927,NA,ITT Ratings,2,for,6,NA,NA,NA,NA,ACCEPT,NA,NA,NA,NA,NA,batch6pro,batch6pro,54,3,1,Screen 1,continueButton,response_rating_scale_likert_active,3090,NA,NA,Neither Agree nor Disagree,1,0,1,0,NA,NA,NA,NA,1,statements,my own medical conditions,1,17/06/2021 12:55,17/06/2021 12:59,IP Address,For (I feel positively about the vaccines),Most weeks,Most months,41,Female,NA,"Postgraduate degree (MSc, MA, MPhil)",control,59,3,For,Against
6,1659975321186,08/08/2022 16:15:21,1659975321016,1,08/08/2022 17:15:21,94826,3,task-s8ki,NA,23527384,6895708,NA,complete,NA,62f1357ba2156f7df98c1d21,computer,Desktop or Laptop,Windows 10,Firefox 98.0,1920x1080,1920x927,NA,ITT Ratings,2,for,6,NA,NA,NA,NA,ACCEPT,NA,NA,NA,NA,NA,batch6pro,batch6pro,60,4,1,Screen 1,continueButton,response_rating_scale_likert_active,2048,NA,NA,Strongly Disagree,1,0,1,0,NA,NA,NA,NA,1,statements,Don't believe in covid,1,17/06/2021 12:54,17/06/2021 12:59,IP Address,For (I feel positively about the vaccines),Most months,Most months,31,Female,NA,"Undergraduate degree (BSc, BA)",choice,60,3,For,Against
7,1659975324688,08/08/2022 16:15:24,1659975324660,1,08/08/2022 17:15:24,94826,3,task-s8ki,NA,23527384,6895708,NA,complete,NA,62f1357ba2156f7df98c1d21,computer,Desktop or Laptop,Windows 10,Firefox 98.0,1920x1080,1920x927,NA,ITT Ratings,2,for,6,NA,NA,NA,NA,ACCEPT,NA,NA,NA,NA,NA,batch6pro,batch6pro,33,5,1,Screen 1,continueButton,response_rating_scale_likert_active,3634,NA,NA,Strongly Agree,1,0,1,0,NA,NA,NA,NA,1,statements,We need to return to pre Covid status and normality and the vaccine will help to acheive that.,1,17/06/2021 12:48,17/06/2021 12:58,IP Address,For (I feel positively about the vaccines),Rarely,Rarely,54,Female,NA,GCSEs,control,55,3,For,For
8,1659975326054,08/08/2022 16:15:26,1659975326036,1,08/08/2022 17:15:26,94826,3,task-s8ki,NA,23527384,6895708,NA,complete,NA,62f1357ba2156f7df98c1d21,computer,Desktop or Laptop,Windows 10,Firefox 98.0,1920x1080,1920x927,NA,ITT Ratings,2,for,6,NA,NA,NA,NA,ACCEPT,NA,NA,NA,NA,NA,batch6pro,batch6pro,51,6,1,Screen 1,continueButton,response_rating_scale_likert_active,1367,NA,NA,Agree,1,0,1,0,NA,NA,NA,NA,1,statements,Good for the community.,1,17/06/2021 12:49,17/06/2021 12:59,IP Address,For (I feel positively about the vaccines),Most months,A few times a year,45,Male,NA,Vocational Training / Apprenticeship,control,58,3,For,For
9,1659975328316,08/08/2022 16:15:28,1659975328309,1,08/08/2022 17:15:28,94826,3,task-s8ki,NA,23527384,6895708,NA,complete,NA,62f1357ba2156f7df98c1d21,computer,Desktop or Laptop,Windows 10,Firefox 98.0,1920x1080,1920x927,NA,ITT Ratings,2,for,6,NA,NA,NA,NA,ACCEPT,NA,NA,NA,NA,NA,batch6pro,batch6pro,10,7,1,Screen 1,continueButton,response_rating_scale_likert_active,2258,NA,NA,Somewhat Disagree,1,0,1,0,NA,NA,NA,NA,1,statements,"It affects my DNA, i don't want anything that will change my DNA",1,17/06/2021 12:51,17/06/2021 12:58,IP Address,For (I feel positively about the vaccines),Most weeks,Most days,33,Male,NA,"Undergraduate degree (BSc, BA)",choice,52,1,For,Against
10,1659975329722,08/08/2022 16:15:29,1659975329712,1,08/08/2022 17:15:29,94826,3,task-s8ki,NA,23527384,6895708,NA,complete,NA,62f1357ba2156f7df98c1d21,computer,Desktop or Laptop,Windows 10,Firefox 98.0,1920x1080,1920x927,NA,ITT Ratings,2,for,6,NA,NA,NA,NA,ACCEPT,NA,NA,NA,NA,NA,batch6pro,batch6pro,4,8,1,Screen 1,continueButton,response_rating_scale_likert_active,1392,NA,NA,Somewhat Disagree,1,0,1,0,NA,NA,NA,NA,1,statements,it has not been tested enough so i don't know its safe,1,17/06/2021 12:51,17/06/2021 12:57,IP Address,For (I feel positively about the vaccines),A few times a year,Most months,30,Female,NA,"Undergraduate degree (BSc, BA)",choice,51,1,For,Against
11,1659975332003,08/08/2022 16:15:32,1659975331994,1,08/08/2022 17:15:31,94826,3,task-s8ki,NA,23527384,6895708,NA,complete,NA,62f1357ba2156f7df98c1d21,computer,Desktop or Laptop,Windows 10,Firefox 98.0,1920x1080,1920x927,NA,ITT Ratings,2,for,6,NA,NA,NA,NA,ACCEPT,NA,NA,NA,NA,NA,batch6pro,batch6pro,38,9,1,Screen 1,continueButton,response_rating_scale_likert_active,2275,NA,NA,Agree,1,0,1,0,NA,NA,NA,NA,1,statements,So society can get back to normal more quickly,1,17/06/2021 12:47,17/06/2021 12:58,IP Address,For (I feel positively about the vaccines),Never,A few times a year,35,Female,NA,"Postgraduate degree (MSc, MA, MPhil)",choice,56,2,For,For
12,1659975334070,08/08/2022 16:15:34,1659975334064,1,08/08/2022 17:15:34,94826,3,task-s8ki,NA,23527384,6895708,NA,complete,NA,62f1357ba2156f7df98c1d21,computer,Desktop or Laptop,Windows 10,Firefox 98.0,1920x1080,1920x927,NA,ITT Ratings,2,for,6,NA,NA,NA,NA,ACCEPT,NA,NA,NA,NA,NA,batch6pro,batch6pro,16,10,1,Screen 1,continueButton,response_rating_scale_likert_active,2062,NA,NA,Somewhat Disagree,1,0,1,0,NA,NA,NA,NA,1,statements,"Infertility, blood clots, not safe",1,17/06/2021 12:42,17/06/2021 12:58,IP Address,For (I feel positively about the vaccines),Most weeks,Most months,25,Female,NA,Vocational Training / Apprenticeship,choice,53,1,For,Against
13,1659975337471,08/08/2022 16:15:37,1659975337460,1,08/08/2022 17:15:37,94826,3,task-s8ki,NA,23527384,6895708,NA,complete,NA,62f1357ba2156f7df98c1d21,computer,Desktop or Laptop,Windows 10,Firefox 98.0,1920x1080,1920x927,NA,ITT Ratings,2,for,6,NA,NA,NA,NA,ACCEPT,NA,NA,NA,NA,NA,batch6pro,batch6pro,14,11,1,Screen 1,continueButton,response_rating_scale_likert_active,3391,NA,NA,Agree,1,0,1,0,NA,NA,NA,NA,1,statements,"It helps protect me and others around me, having a reducing effect on transmission rates",1,17/06/2021 12:51,17/06/2021 12:58,IP Address,For (I feel positively about the vaccines),Most weeks,Most days,33,Male,NA,"Undergraduate degree (BSc, BA)",choice,52,2,For,For
14,1659975373138,08/08/2022 16:16:13,1659975373134,1,08/08/2022 17:16:13,94826,3,task-s8ki,NA,23527384,6895708,NA,complete,NA,62f1357ba2156f7df98c1d21,computer,Desktop or Laptop,Windows 10,Firefox 98.0,1920x1080,1920x927,NA,ITT Ratings,2,for,6,NA,NA,NA,NA,ACCEPT,NA,NA,NA,NA,NA,batch6pro,batch6pro,59,12,1,Screen 1,continueButton,response_rating_scale_likert_active,35666,NA,NA,Somewhat Disagree,1,0,1,0,NA,NA,NA,NA,1,statements,Scared of risks related to vaccines,1,17/06/2021 12:54,17/06/2021 12:59,IP Address,For (I feel positively about the vaccines),Most months,Most months,31,Female,NA,"Undergraduate degree (BSc, BA)",choice,60,2,For,Against
15,1659975376138,08/08/2022 16:16:16,1659975376114,1,08/08/2022 17:16:16,94826,3,task-s8ki,NA,23527384,6895708,NA,complete,NA,62f1357ba2156f7df98c1d21,computer,Desktop or Laptop,Windows 10,Firefox 98.0,1920x1080,1920x927,NA,ITT Ratings,2,for,6,NA,NA,NA,NA,ACCEPT,NA,NA,NA,NA,NA,batch6pro,batch6pro,28,13,1,Screen 1,continueButton,response_rating_scale_likert_active,2964,NA,NA,Disagree,1,0,1,0,NA,NA,NA,NA,1,statements,Im young and want to start a family. I'm not sure about the long term effects on fertility.,1,17/06/2021 12:48,17/06/2021 12:58,IP Address,For (I feel positively about the vaccines),Rarely,Rarely,54,Female,NA,GCSEs,control,55,1,For,Against
16,1659975378176,08/08/2022 16:16:18,1659975378168,1,08/08/2022 17:16:18,94826,3,task-s8ki,NA,23527384,6895708,NA,complete,NA,62f1357ba2156f7df98c1d21,computer,Desktop or Laptop,Windows 10,Firefox 98.0,1920x1080,1920x927,NA,ITT Ratings,2,for,6,NA,NA,NA,NA,ACCEPT,NA,NA,NA,NA,NA,batch6pro,batch6pro,20,14,1,Screen 1,continueButton,response_rating_scale_likert_active,2038,NA,NA,Neither Agree nor Disagree,1,0,1,0,NA,NA,NA,NA,1,statements,There's no evidence of infertility.,1,17/06/2021 12:42,17/06/2021 12:58,IP Address,For (I feel positively about the vaccines),Most weeks,Most months,25,Female,NA,Vocational Training / Apprenticeship,choice,53,2,For,For
17,1659975381217,08/08/2022 16:16:21,1659975381199,1,08/08/2022 17:16:21,94826,3,task-s8ki,NA,23527384,6895708,NA,complete,NA,62f1357ba2156f7df98c1d21,computer,Desktop or Laptop,Windows 10,Firefox 98.0,1920x1080,1920x927,NA,ITT Ratings,2,for,6,NA,NA,NA,NA,ACCEPT,NA,NA,NA,NA,NA,batch6pro,batch6pro,35,15,1,Screen 1,continueButton,response_rating_scale_likert_active,3022,NA,NA,Agree,1,0,1,0,NA,NA,NA,NA,1,statements,Everyone at risk has now had a vaccine,1,17/06/2021 12:47,17/06/2021 12:58,IP Address,For (I feel positively about the vaccines),Never,A few times a year,35,Female,NA,"Postgraduate degree (MSc, MA, MPhil)",choice,56,2,For,Against
18,1659975383685,08/08/2022 16:16:23,1659975383670,1,08/08/2022 17:16:23,94826,3,task-s8ki,NA,23527384,6895708,NA,complete,NA,62f1357ba2156f7df98c1d21,computer,Desktop or Laptop,Windows 10,Firefox 98.0,1920x1080,1920x927,NA,ITT Ratings,2,for,6,NA,NA,NA,NA,ACCEPT,NA,NA,NA,NA,NA,batch6pro,batch6pro,46,16,1,Screen 1,continueButton,response_rating_scale_likert_active,2464,NA,NA,Disagree,1,0,1,0,NA,NA,NA,NA,1,statements,I don't believe in the vaccines.,1,17/06/2021 12:49,17/06/2021 12:59,IP Address,For (I feel positively about the vaccines),Most months,A few times a year,45,Male,NA,Vocational Training / Apprenticeship,control,58,1,For,Against
19,1659975386187,08/08/2022 16:16:26,1659975386169,1,08/08/2022 17:16:26,94826,3,task-s8ki,NA,23527384,6895708,NA,complete,NA,62f1357ba2156f7df98c1d21,computer,Desktop or Laptop,Windows 10,Firefox 98.0,1920x1080,1920x927,NA,ITT Ratings,2,for,6,NA,NA,NA,NA,ACCEPT,NA,NA,NA,NA,NA,batch6pro,batch6pro,21,17,1,Screen 1,continueButton,response_rating_scale_likert_active,2489,NA,NA,Agree,1,0,1,0,NA,NA,NA,NA,1,statements,It has been our escape route from the lockdown.,1,17/06/2021 12:42,17/06/2021 12:58,IP Address,For (I feel positively about the vaccines),Most weeks,Most months,25,Female,NA,Vocational Training / Apprenticeship,choice,53,3,For,For
20,1659975388959,08/08/2022 16:16:28,1659975388951,1,08/08/2022 17:16:28,94826,3,task-s8ki,NA,23527384,6895708,NA,complete,NA,62f1357ba2156f7df98c1d21,computer,Desktop or Laptop,Windows 10,Firefox 98.0,1920x1080,1920x927,NA,ITT Ratings,2,for,6,NA,NA,NA,NA,ACCEPT,NA,NA,NA,NA,NA,batch6pro,batch6pro,45,18,1,Screen 1,continueButton,response_rating_scale_likert_active,2771,NA,NA,Strongly Agree,1,0,1,0,NA,NA,NA,NA,1,statements,The more people that are vaccinated the more successful we will be of bringing covid under control and get our lives back to normal,1,17/06/2021 12:44,17/06/2021 12:58,IP Address,For (I feel positively about the vaccines),A few times a year,Most months,49,Female,NA,"Undergraduate degree (BSc, BA)",control,57,3,For,For
21,1659975391466,08/08/2022 16:16:31,1659975391455,1,08/08/2022 17:16:31,94826,3,task-s8ki,NA,23527384,6895708,NA,complete,NA,62f1357ba2156f7df98c1d21,computer,Desktop or Laptop,Windows 10,Firefox 98.0,1920x1080,1920x927,NA,ITT Ratings,2,for,6,NA,NA,NA,NA,ACCEPT,NA,NA,NA,NA,NA,batch6pro,batch6pro,27,19,1,Screen 1,continueButton,response_rating_scale_likert_active,2496,NA,NA,Strongly Agree,1,0,1,0,NA,NA,NA,NA,1,statements,More people vaccinated less chance of mutations in the virus,1,17/06/2021 12:49,17/06/2021 12:58,IP Address,For (I feel positively about the vaccines),Rarely,Most weeks,56,Male,NA,"GCSEs,Vocational Training / Apprenticeship",choice,54,3,For,For
22,1659975393630,08/08/2022 16:16:33,1659975393612,1,08/08/2022 17:16:33,94826,3,task-s8ki,NA,23527384,6895708,NA,complete,NA,62f1357ba2156f7df98c1d21,computer,Desktop or Laptop,Windows 10,Firefox 98.0,1920x1080,1920x927,NA,ITT Ratings,2,for,6,NA,NA,NA,NA,ACCEPT,NA,NA,NA,NA,NA,batch6pro,batch6pro,26,20,1,Screen 1,continueButton,response_rating_scale_likert_active,2148,NA,NA,Strongly Agree,1,0,1,0,NA,NA,NA,NA,1,statements,More people vaccinated builds herd immunity,1,17/06/2021 12:49,17/06/2021 12:58,IP Address,For (I feel positively about the vaccines),Rarely,Most weeks,56,Male,NA,"GCSEs,Vocational Training / Apprenticeship",choice,54,2,For,For
23,1659975396673,08/08/2022 16:16:36,1659975396658,1,08/08/2022 17:16:36,94826,3,task-s8ki,NA,23527384,6895708,NA,complete,NA,62f1357ba2156f7df98c1d21,computer,Desktop or Laptop,Windows 10,Firefox 98.0,1920x1080,1920x927,NA,ITT Ratings,2,for,6,NA,NA,NA,NA,ACCEPT,NA,NA,NA,NA,NA,batch6pro,batch6pro,30,21,1,Screen 1,continueButton,response_rating_scale_likert_active,3037,NA,NA,Somewhat Disagree,1,0,1,0,NA,NA,NA,NA,1,statements,It should be a personal choice for everyone to decide yes or no for themselves,1,17/06/2021 12:48,17/06/2021 12:58,IP Address,For (I feel positively about the vaccines),Rarely,Rarely,54,Female,NA,GCSEs,control,55,3,For,Against
24,1659975398209,08/08/2022 16:16:38,1659975398169,1,08/08/2022 17:16:38,94826,3,task-s8ki,NA,23527384,6895708,NA,complete,NA,62f1357ba2156f7df98c1d21,computer,Desktop or Laptop,Windows 10,Firefox 98.0,1920x1080,1920x927,NA,ITT Ratings,2,for,6,NA,NA,NA,NA,ACCEPT,NA,NA,NA,NA,NA,batch6pro,batch6pro,62,22,1,Screen 1,continueButton,response_rating_scale_likert_active,1504,NA,NA,Somewhat Agree,1,0,1,0,NA,NA,NA,NA,1,statements,Want to protect others,1,17/06/2021 12:54,17/06/2021 12:59,IP Address,For (I feel positively about the vaccines),Most months,Most months,31,Female,NA,"Undergraduate degree (BSc, BA)",choice,60,2,For,For
25,1659975399450,08/08/2022 16:16:39,1659975399442,1,08/08/2022 17:16:39,94826,3,task-s8ki,NA,23527384,6895708,NA,complete,NA,62f1357ba2156f7df98c1d21,computer,Desktop or Laptop,Windows 10,Firefox 98.0,1920x1080,1920x927,NA,ITT Ratings,2,for,6,NA,NA,NA,NA,ACCEPT,NA,NA,NA,NA,NA,batch6pro,batch6pro,24,23,1,Screen 1,continueButton,response_rating_scale_likert_active,1264,NA,NA,Somewhat Agree,1,0,1,0,NA,NA,NA,NA,1,statements,Long term side effects not known,1,17/06/2021 12:49,17/06/2021 12:58,IP Address,For (I feel positively about the vaccines),Rarely,Most weeks,56,Male,NA,"GCSEs,Vocational Training / Apprenticeship",choice,54,3,For,Against
26,1659975401555,08/08/2022 16:16:41,1659975401554,1,08/08/2022 17:16:41,94826,3,task-s8ki,NA,23527384,6895708,NA,complete,NA,62f1357ba2156f7df98c1d21,computer,Desktop or Laptop,Windows 10,Firefox 98.0,1920x1080,1920x927,NA,ITT Ratings,2,for,6,NA,NA,NA,NA,ACCEPT,NA,NA,NA,NA,NA,batch6pro,batch6pro,18,24,1,Screen 1,continueButton,response_rating_scale_likert_active,2105,NA,NA,Somewhat Disagree,1,0,1,0,NA,NA,NA,NA,1,statements,"Not trialed enough, vaccine was too rushed.",1,17/06/2021 12:42,17/06/2021 12:58,IP Address,For (I feel positively about the vaccines),Most weeks,Most months,25,Female,NA,Vocational Training / Apprenticeship,choice,53,3,For,Against
27,1659975404161,08/08/2022 16:16:44,1659975404146,1,08/08/2022 17:16:44,94826,3,task-s8ki,NA,23527384,6895708,NA,complete,NA,62f1357ba2156f7df98c1d21,computer,Desktop or Laptop,Windows 10,Firefox 98.0,1920x1080,1920x927,NA,ITT Ratings,2,for,6,NA,NA,NA,NA,ACCEPT,NA,NA,NA,NA,NA,batch6pro,batch6pro,36,25,1,Screen 1,continueButton,response_rating_scale_likert_active,2585,NA,NA,Somewhat Disagree,1,0,1,0,NA,NA,NA,NA,1,statements,There's not been enough time to develop a safe vaccine,1,17/06/2021 12:47,17/06/2021 12:58,IP Address,For (I feel positively about the vaccines),Never,A few times a year,35,Female,NA,"Postgraduate degree (MSc, MA, MPhil)",choice,56,3,For,Against
28,1659975405472,08/08/2022 16:16:45,1659975405456,1,08/08/2022 17:16:45,94826,3,task-s8ki,NA,23527384,6895708,NA,complete,NA,62f1357ba2156f7df98c1d21,computer,Desktop or Laptop,Windows 10,Firefox 98.0,1920x1080,1920x927,NA,ITT Ratings,2,for,6,NA,NA,NA,NA,ACCEPT,NA,NA,NA,NA,NA,batch6pro,batch6pro,58,26,1,Screen 1,continueButton,response_rating_scale_likert_active,1302,NA,NA,Somewhat Disagree,1,0,1,0,NA,NA,NA,NA,1,statements,Don't need it I am not at risk,1,17/06/2021 12:54,17/06/2021 12:59,IP Address,For (I feel positively about the vaccines),Most months,Most months,31,Female,NA,"Undergraduate degree (BSc, BA)",choice,60,1,For,Against
29,1659975408014,08/08/2022 16:16:48,1659975407997,1,08/08/2022 17:16:47,94826,3,task-s8ki,NA,23527384,6895708,NA,complete,NA,62f1357ba2156f7df98c1d21,computer,Desktop or Laptop,Windows 10,Firefox 98.0,1920x1080,1920x927,NA,ITT Ratings,2,for,6,NA,NA,NA,NA,ACCEPT,NA,NA,NA,NA,NA,batch6pro,batch6pro,47,27,1,Screen 1,continueButton,response_rating_scale_likert_active,2535,NA,NA,Somewhat Disagree,1,0,1,0,NA,NA,NA,NA,1,statements,Not enough research has gone into the vaccines.,1,17/06/2021 12:49,17/06/2021 12:59,IP Address,For (I feel positively about the vaccines),Most months,A few times a year,45,Male,NA,Vocational Training / Apprenticeship,control,58,2,For,Against
30,1659975411184,08/08/2022 16:16:51,1659975411160,1,08/08/2022 17:16:51,94826,3,task-s8ki,NA,23527384,6895708,NA,complete,NA,62f1357ba2156f7df98c1d21,computer,Desktop or Laptop,Windows 10,Firefox 98.0,1920x1080,1920x927,NA,ITT Ratings,2,for,6,NA,NA,NA,NA,ACCEPT,NA,NA,NA,NA,NA,batch6pro,batch6pro,41,28,1,Screen 1,continueButton,response_rating_scale_likert_active,3156,NA,NA,Neither Agree nor Disagree,1,0,1,0,NA,NA,NA,NA,1,statements,there are risks of blood clots and other serious side effects that are too risky,1,17/06/2021 12:44,17/06/2021 12:58,IP Address,For (I feel positively about the vaccines),A few times a year,Most months,49,Female,NA,"Undergraduate degree (BSc, BA)",control,57,2,For,Against
31,1659975412561,08/08/2022 16:16:52,1659975412545,1,08/08/2022 17:16:52,94826,3,task-s8ki,NA,23527384,6895708,NA,complete,NA,62f1357ba2156f7df98c1d21,computer,Desktop or Laptop,Windows 10,Firefox 98.0,1920x1080,1920x927,NA,ITT Ratings,2,for,6,NA,NA,NA,NA,ACCEPT,NA,NA,NA,NA,NA,batch6pro,batch6pro,17,29,1,Screen 1,continueButton,response_rating_scale_likert_active,1362,NA,NA,Somewhat Agree,1,0,1,0,NA,NA,NA,NA,1,statements,I feel like I're being forced.,1,17/06/2021 12:42,17/06/2021 12:58,IP Address,For (I feel positively about the vaccines),Most weeks,Most months,25,Female,NA,Vocational Training / Apprenticeship,choice,53,2,For,Against
32,1659975414393,08/08/2022 16:16:54,1659975414372,1,08/08/2022 17:16:54,94826,3,task-s8ki,NA,23527384,6895708,NA,complete,NA,62f1357ba2156f7df98c1d21,computer,Desktop or Laptop,Windows 10,Firefox 98.0,1920x1080,1920x927,NA,ITT Ratings,2,for,6,NA,NA,NA,NA,ACCEPT,NA,NA,NA,NA,NA,batch6pro,batch6pro,13,30,1,Screen 1,continueButton,response_rating_scale_likert_active,1816,NA,NA,Somewhat Agree,1,0,1,0,NA,NA,NA,NA,1,statements,It reduces the severity of symptoms if i catch covid.,1,17/06/2021 12:51,17/06/2021 12:58,IP Address,For (I feel positively about the vaccines),Most weeks,Most days,33,Male,NA,"Undergraduate degree (BSc, BA)",choice,52,1,For,For
33,1659975415453,08/08/2022 16:16:55,1659975415445,1,08/08/2022 17:16:55,94826,3,task-s8ki,NA,23527384,6895708,NA,complete,NA,62f1357ba2156f7df98c1d21,computer,Desktop or Laptop,Windows 10,Firefox 98.0,1920x1080,1920x927,NA,ITT Ratings,2,for,6,NA,NA,NA,NA,ACCEPT,NA,NA,NA,NA,NA,batch6pro,batch6pro,55,31,1,Screen 1,continueButton,response_rating_scale_likert_active,1064,NA,NA,Somewhat Agree,1,0,1,0,NA,NA,NA,NA,1,statements,to prevent myself catching Covid,1,17/06/2021 12:55,17/06/2021 12:59,IP Address,For (I feel positively about the vaccines),Most weeks,Most months,41,Female,NA,"Postgraduate degree (MSc, MA, MPhil)",control,59,1,For,For
34,1659975417750,08/08/2022 16:16:57,1659975417731,1,08/08/2022 17:16:57,94826,3,task-s8ki,NA,23527384,6895708,NA,complete,NA,62f1357ba2156f7df98c1d21,computer,Desktop or Laptop,Windows 10,Firefox 98.0,1920x1080,1920x927,NA,ITT Ratings,2,for,6,NA,NA,NA,NA,ACCEPT,NA,NA,NA,NA,NA,batch6pro,batch6pro,15,32,1,Screen 1,continueButton,response_rating_scale_likert_active,2276,NA,NA,Neither Agree nor Disagree,1,0,1,0,NA,NA,NA,NA,1,statements,It will help things return to less restrictive guidelines in a shorter time period,1,17/06/2021 12:51,17/06/2021 12:58,IP Address,For (I feel positively about the vaccines),Most weeks,Most days,33,Male,NA,"Undergraduate degree (BSc, BA)",choice,52,3,For,For
35,1659975419654,08/08/2022 16:16:59,1659975419636,1,08/08/2022 17:16:59,94826,3,task-s8ki,NA,23527384,6895708,NA,complete,NA,62f1357ba2156f7df98c1d21,computer,Desktop or Laptop,Windows 10,Firefox 98.0,1920x1080,1920x927,NA,ITT Ratings,2,for,6,NA,NA,NA,NA,ACCEPT,NA,NA,NA,NA,NA,batch6pro,batch6pro,34,33,1,Screen 1,continueButton,response_rating_scale_likert_active,1897,NA,NA,Somewhat Agree,1,0,1,0,NA,NA,NA,NA,1,statements,I'm unlikely to get very ill if I get Covid,1,17/06/2021 12:47,17/06/2021 12:58,IP Address,For (I feel positively about the vaccines),Never,A few times a year,35,Female,NA,"Postgraduate degree (MSc, MA, MPhil)",choice,56,1,For,Against
36,1659975420877,08/08/2022 16:17:00,1659975420859,1,08/08/2022 17:17:00,94826,3,task-s8ki,NA,23527384,6895708,NA,complete,NA,62f1357ba2156f7df98c1d21,computer,Desktop or Laptop,Windows 10,Firefox 98.0,1920x1080,1920x927,NA,ITT Ratings,2,for,6,NA,NA,NA,NA,ACCEPT,NA,NA,NA,NA,NA,batch6pro,batch6pro,61,34,1,Screen 1,continueButton,response_rating_scale_likert_active,1217,NA,NA,Somewhat Agree,1,0,1,0,NA,NA,NA,NA,1,statements,Want to be safe and protect myself,1,17/06/2021 12:54,17/06/2021 12:59,IP Address,For (I feel positively about the vaccines),Most months,Most months,31,Female,NA,"Undergraduate degree (BSc, BA)",choice,60,1,For,For
37,1659975424477,08/08/2022 16:17:04,1659975424454,1,08/08/2022 17:17:04,94826,3,task-s8ki,NA,23527384,6895708,NA,complete,NA,62f1357ba2156f7df98c1d21,computer,Desktop or Laptop,Windows 10,Firefox 98.0,1920x1080,1920x927,NA,ITT Ratings,2,for,6,NA,NA,NA,NA,ACCEPT,NA,NA,NA,NA,NA,batch6pro,batch6pro,2,35,1,Screen 1,continueButton,response_rating_scale_likert_active,3585,NA,NA,Somewhat Agree,1,0,1,0,NA,NA,NA,NA,1,statements,We would like to check you are reading each argument carefully. Please select 'Somewhat Agree' for this answer,1,NA,NA,NA,NA,NA,NA,NA,NA,NA,NA,NA,NA,check1,NA,NA
38,1659975427163,08/08/2022 16:17:07,1659975427153,1,08/08/2022 17:17:07,94826,3,task-s8ki,NA,23527384,6895708,NA,complete,NA,62f1357ba2156f7df98c1d21,computer,Desktop or Laptop,Windows 10,Firefox 98.0,1920x1080,1920x927,NA,ITT Ratings,2,for,6,NA,NA,NA,NA,ACCEPT,NA,NA,NA,NA,NA,batch6pro,batch6pro,48,36,1,Screen 1,continueButton,response_rating_scale_likert_active,2689,NA,NA,Somewhat Disagree,1,0,1,0,NA,NA,NA,NA,1,statements,Don't like the idea that the government is injecting me.,1,17/06/2021 12:49,17/06/2021 12:59,IP Address,For (I feel positively about the vaccines),Most months,A few times a year,45,Male,NA,Vocational Training / Apprenticeship,control,58,3,For,Against
39,1659975434390,08/08/2022 16:17:14,1659975434364,1,08/08/2022 17:17:14,94826,3,task-s8ki,NA,23527384,6895708,NA,complete,NA,62f1357ba2156f7df98c1d21,computer,Desktop or Laptop,Windows 10,Firefox 98.0,1920x1080,1920x927,NA,ITT Ratings,2,for,6,NA,NA,NA,NA,ACCEPT,NA,NA,NA,NA,NA,batch6pro,batch6pro,3,37,1,Screen 1,continueButton,response_rating_scale_likert_active,7202,NA,NA,Somewhat Disagree,1,0,1,0,NA,NA,NA,NA,1,statements,We would like to check you are reading each argument carefully. Please select 'Somewhat Disagree' for this answer,1,NA,NA,NA,NA,NA,NA,NA,NA,NA,NA,NA,NA,check2,NA,NA
40,1659975436724,08/08/2022 16:17:16,1659975436708,1,08/08/2022 17:17:16,94826,3,task-s8ki,NA,23527384,6895708,NA,complete,NA,62f1357ba2156f7df98c1d21,computer,Desktop or Laptop,Windows 10,Firefox 98.0,1920x1080,1920x927,NA,ITT Ratings,2,for,6,NA,NA,NA,NA,ACCEPT,NA,NA,NA,NA,NA,batch6pro,batch6pro,11,38,1,Screen 1,continueButton,response_rating_scale_likert_active,2336,NA,NA,Neither Agree nor Disagree,1,0,1,0,NA,NA,NA,NA,1,statements,"It is the government controlling us, we deserve a choice.",1,17/06/2021 12:51,17/06/2021 12:58,IP Address,For (I feel positively about the vaccines),Most weeks,Most days,33,Male,NA,"Undergraduate degree (BSc, BA)",choice,52,2,For,Against
41,1659975438618,08/08/2022 16:17:18,1659975438601,1,08/08/2022 17:17:18,94826,3,task-s8ki,NA,23527384,6895708,NA,complete,NA,62f1357ba2156f7df98c1d21,computer,Desktop or Laptop,Windows 10,Firefox 98.0,1920x1080,1920x927,NA,ITT Ratings,2,for,6,NA,NA,NA,NA,ACCEPT,NA,NA,NA,NA,NA,batch6pro,batch6pro,25,39,1,Screen 1,continueButton,response_rating_scale_likert_active,1886,NA,NA,Agree,1,0,1,0,NA,NA,NA,NA,1,statements,Vaccination keeps hospitalisation down,1,17/06/2021 12:49,17/06/2021 12:58,IP Address,For (I feel positively about the vaccines),Rarely,Most weeks,56,Male,NA,"GCSEs,Vocational Training / Apprenticeship",choice,54,1,For,For
42,1659975439469,08/08/2022 16:17:19,1659975439457,1,08/08/2022 17:17:19,94826,3,task-s8ki,NA,23527384,6895708,NA,complete,NA,62f1357ba2156f7df98c1d21,computer,Desktop or Laptop,Windows 10,Firefox 98.0,1920x1080,1920x927,NA,ITT Ratings,2,for,6,NA,NA,NA,NA,ACCEPT,NA,NA,NA,NA,NA,batch6pro,batch6pro,56,40,1,Screen 1,continueButton,response_rating_scale_likert_active,849,NA,NA,Agree,1,0,1,0,NA,NA,NA,NA,1,statements,to protect others around me,1,17/06/2021 12:55,17/06/2021 12:59,IP Address,For (I feel positively about the vaccines),Most weeks,Most months,41,Female,NA,"Postgraduate degree (MSc, MA, MPhil)",control,59,2,For,For
43,1659975440451,08/08/2022 16:17:20,1659975440429,1,08/08/2022 17:17:20,94826,3,task-s8ki,NA,23527384,6895708,NA,complete,NA,62f1357ba2156f7df98c1d21,computer,Desktop or Laptop,Windows 10,Firefox 98.0,1920x1080,1920x927,NA,ITT Ratings,2,for,6,NA,NA,NA,NA,ACCEPT,NA,NA,NA,NA,NA,batch6pro,batch6pro,31,41,1,Screen 1,continueButton,response_rating_scale_likert_active,965,NA,NA,Agree,1,0,1,0,NA,NA,NA,NA,1,statements,Im protecting myself and my family.,1,17/06/2021 12:48,17/06/2021 12:58,IP Address,For (I feel positively about the vaccines),Rarely,Rarely,54,Female,NA,GCSEs,control,55,1,For,For
44,1659975442413,08/08/2022 16:17:22,1659975442407,1,08/08/2022 17:17:22,94826,3,task-s8ki,NA,23527384,6895708,NA,complete,NA,62f1357ba2156f7df98c1d21,computer,Desktop or Laptop,Windows 10,Firefox 98.0,1920x1080,1920x927,NA,ITT Ratings,2,for,6,NA,NA,NA,NA,ACCEPT,NA,NA,NA,NA,NA,batch6pro,batch6pro,29,42,1,Screen 1,continueButton,response_rating_scale_likert_active,1970,NA,NA,Somewhat Disagree,1,0,1,0,NA,NA,NA,NA,1,statements,I don't think it's been tested long enough compared to other vaccines,1,17/06/2021 12:48,17/06/2021 12:58,IP Address,For (I feel positively about the vaccines),Rarely,Rarely,54,Female,NA,GCSEs,control,55,2,For,Against
45,1659975444048,08/08/2022 16:17:24,1659975444029,1,08/08/2022 17:17:24,94826,3,task-s8ki,NA,23527384,6895708,NA,complete,NA,62f1357ba2156f7df98c1d21,computer,Desktop or Laptop,Windows 10,Firefox 98.0,1920x1080,1920x927,NA,ITT Ratings,2,for,6,NA,NA,NA,NA,ACCEPT,NA,NA,NA,NA,NA,batch6pro,batch6pro,12,43,1,Screen 1,continueButton,response_rating_scale_likert_active,1615,NA,NA,Somewhat Disagree,1,0,1,0,NA,NA,NA,NA,1,statements,Covid is no worse than flu.,1,17/06/2021 12:51,17/06/2021 12:58,IP Address,For (I feel positively about the vaccines),Most weeks,Most days,33,Male,NA,"Undergraduate degree (BSc, BA)",choice,52,3,For,Against
46,1659975446767,08/08/2022 16:17:26,1659975446751,1,08/08/2022 17:17:26,94826,3,task-s8ki,NA,23527384,6895708,NA,complete,NA,62f1357ba2156f7df98c1d21,computer,Desktop or Laptop,Windows 10,Firefox 98.0,1920x1080,1920x927,NA,ITT Ratings,2,for,6,NA,NA,NA,NA,ACCEPT,NA,NA,NA,NA,NA,batch6pro,batch6pro,49,44,1,Screen 1,continueButton,response_rating_scale_likert_active,2716,NA,NA,Agree,1,0,1,0,NA,NA,NA,NA,1,statements,Prevents me from getting the virus.,1,17/06/2021 12:49,17/06/2021 12:59,IP Address,For (I feel positively about the vaccines),Most months,A few times a year,45,Male,NA,Vocational Training / Apprenticeship,control,58,1,For,For
47,1659975449904,08/08/2022 16:17:29,1659975449834,1,08/08/2022 17:17:29,94826,3,task-s8ki,NA,23527384,6895708,NA,complete,NA,62f1357ba2156f7df98c1d21,computer,Desktop or Laptop,Windows 10,Firefox 98.0,1920x1080,1920x927,NA,ITT Ratings,2,for,6,NA,NA,NA,NA,ACCEPT,NA,NA,NA,NA,NA,batch6pro,batch6pro,52,45,1,Screen 1,continueButton,response_rating_scale_likert_active,3076,NA,NA,Strongly Disagree,1,0,1,0,NA,NA,NA,NA,1,statements,I am pregnant or planning a pregnancy,1,17/06/2021 12:55,17/06/2021 12:59,IP Address,For (I feel positively about the vaccines),Most weeks,Most months,41,Female,NA,"Postgraduate degree (MSc, MA, MPhil)",control,59,1,For,Against
48,1659975453127,08/08/2022 16:17:33,1659975453109,1,08/08/2022 17:17:33,94826,3,task-s8ki,NA,23527384,6895708,NA,complete,NA,62f1357ba2156f7df98c1d21,computer,Desktop or Laptop,Windows 10,Firefox 98.0,1920x1080,1920x927,NA,ITT Ratings,2,for,6,NA,NA,NA,NA,ACCEPT,NA,NA,NA,NA,NA,batch6pro,batch6pro,39,46,1,Screen 1,continueButton,response_rating_scale_likert_active,3266,NA,NA,Agree,1,0,1,0,NA,NA,NA,NA,1,statements,So I can maybe go on holiday in the future without having to isolate or pay for additional tests!,1,17/06/2021 12:47,17/06/2021 12:58,IP Address,For (I feel positively about the vaccines),Never,A few times a year,35,Female,NA,"Postgraduate degree (MSc, MA, MPhil)",choice,56,3,For,For
49,1659975454302,08/08/2022 16:17:34,1659975454299,1,08/08/2022 17:17:34,94826,3,task-s8ki,NA,23527384,6895708,NA,complete,NA,62f1357ba2156f7df98c1d21,computer,Desktop or Laptop,Windows 10,Firefox 98.0,1920x1080,1920x927,NA,ITT Ratings,2,for,6,NA,NA,NA,NA,ACCEPT,NA,NA,NA,NA,NA,batch6pro,batch6pro,63,47,1,Screen 1,continueButton,response_rating_scale_likert_active,1185,NA,NA,Agree,1,0,1,0,NA,NA,NA,NA,1,statements,Want to get back to normal life,1,17/06/2021 12:54,17/06/2021 12:59,IP Address,For (I feel positively about the vaccines),Most months,Most months,31,Female,NA,"Undergraduate degree (BSc, BA)",choice,60,3,For,For
50,1659975456018,08/08/2022 16:17:36,1659975456015,1,08/08/2022 17:17:36,94826,3,task-s8ki,NA,23527384,6895708,NA,complete,NA,62f1357ba2156f7df98c1d21,computer,Desktop or Laptop,Windows 10,Firefox 98.0,1920x1080,1920x927,NA,ITT Ratings,2,for,6,NA,NA,NA,NA,ACCEPT,NA,NA,NA,NA,NA,batch6pro,batch6pro,37,48,1,Screen 1,continueButton,response_rating_scale_likert_active,1708,NA,NA,Agree,1,0,1,0,NA,NA,NA,NA,1,statements,"To protect myself, family and friends from getting Covid",1,17/06/2021 12:47,17/06/2021 12:58,IP Address,For (I feel positively about the vaccines),Never,A few times a year,35,Female,NA,"Postgraduate degree (MSc, MA, MPhil)",choice,56,1,For,For
51,1659975460063,08/08/2022 16:17:40,1659975460046,1,08/08/2022 17:17:40,94826,3,task-s8ki,NA,23527384,6895708,NA,complete,NA,62f1357ba2156f7df98c1d21,computer,Desktop or Laptop,Windows 10,Firefox 98.0,1920x1080,1920x927,NA,ITT Ratings,2,for,6,NA,NA,NA,NA,ACCEPT,NA,NA,NA,NA,NA,batch6pro,batch6pro,9,49,1,Screen 1,continueButton,response_rating_scale_likert_active,4024,NA,NA,Strongly Agree,1,0,1,0,NA,NA,NA,NA,1,statements,having the vaccine with a day or two max side effects is better than getting covid and dying,1,17/06/2021 12:51,17/06/2021 12:57,IP Address,For (I feel positively about the vaccines),A few times a year,Most months,30,Female,NA,"Undergraduate degree (BSc, BA)",choice,51,3,For,For
52,1659975463409,08/08/2022 16:17:43,1659975463383,1,08/08/2022 17:17:43,94826,3,task-s8ki,NA,23527384,6895708,NA,complete,NA,62f1357ba2156f7df98c1d21,computer,Desktop or Laptop,Windows 10,Firefox 98.0,1920x1080,1920x927,NA,ITT Ratings,2,for,6,NA,NA,NA,NA,ACCEPT,NA,NA,NA,NA,NA,batch6pro,batch6pro,19,50,1,Screen 1,continueButton,response_rating_scale_likert_active,3330,NA,NA,Agree,1,0,1,0,NA,NA,NA,NA,1,statements,They started developing it when covid first started.,1,17/06/2021 12:42,17/06/2021 12:58,IP Address,For (I feel positively about the vaccines),Most weeks,Most months,25,Female,NA,Vocational Training / Apprenticeship,choice,53,1,For,For
53,1659975466272,08/08/2022 16:17:46,1659975466260,1,08/08/2022 17:17:46,94826,3,task-s8ki,NA,23527384,6895708,NA,complete,NA,62f1357ba2156f7df98c1d21,computer,Desktop or Laptop,Windows 10,Firefox 98.0,1920x1080,1920x927,NA,ITT Ratings,2,for,6,NA,NA,NA,NA,ACCEPT,NA,NA,NA,NA,NA,batch6pro,batch6pro,8,51,1,Screen 1,continueButton,response_rating_scale_likert_active,2870,NA,NA,Agree,1,0,1,0,NA,NA,NA,NA,1,statements,it can make sure i don't transmit it to other people so keep them safe as well as me,1,17/06/2021 12:51,17/06/2021 12:57,IP Address,For (I feel positively about the vaccines),A few times a year,Most months,30,Female,NA,"Undergraduate degree (BSc, BA)",choice,51,2,For,For
54,1659975469699,08/08/2022 16:17:49,1659975469679,1,08/08/2022 17:17:49,94826,3,task-s8ki,NA,23527384,6895708,NA,complete,NA,62f1357ba2156f7df98c1d21,computer,Desktop or Laptop,Windows 10,Firefox 98.0,1920x1080,1920x927,NA,ITT Ratings,2,for,6,NA,NA,NA,NA,ACCEPT,NA,NA,NA,NA,NA,batch6pro,batch6pro,42,52,1,Screen 1,continueButton,response_rating_scale_likert_active,3412,NA,NA,Neither Agree nor Disagree,1,0,1,0,NA,NA,NA,NA,1,statements,They only tackle one variant which means they wont be effective for other variants,1,17/06/2021 12:44,17/06/2021 12:58,IP Address,For (I feel positively about the vaccines),A few times a year,Most months,49,Female,NA,"Undergraduate degree (BSc, BA)",control,57,3,For,Against
55,1659975471533,08/08/2022 16:17:51,1659975471518,1,08/08/2022 17:17:51,94826,3,task-s8ki,NA,23527384,6895708,NA,complete,NA,62f1357ba2156f7df98c1d21,computer,Desktop or Laptop,Windows 10,Firefox 98.0,1920x1080,1920x927,NA,ITT Ratings,2,for,6,NA,NA,NA,NA,ACCEPT,NA,NA,NA,NA,NA,batch6pro,batch6pro,44,53,1,Screen 1,continueButton,response_rating_scale_likert_active,1829,NA,NA,Somewhat Agree,1,0,1,0,NA,NA,NA,NA,1,statements,They are effective at protecting against other variants,1,17/06/2021 12:44,17/06/2021 12:58,IP Address,For (I feel positively about the vaccines),A few times a year,Most months,49,Female,NA,"Undergraduate degree (BSc, BA)",control,57,2,For,For
56,1659975475901,08/08/2022 16:17:55,1659975475891,1,08/08/2022 17:17:55,94826,3,task-s8ki,NA,23527384,6895708,NA,complete,NA,62f1357ba2156f7df98c1d21,computer,Desktop or Laptop,Windows 10,Firefox 98.0,1920x1080,1920x927,NA,ITT Ratings,2,for,6,NA,NA,NA,NA,ACCEPT,NA,NA,NA,NA,NA,batch6pro,batch6pro,53,54,1,Screen 1,continueButton,response_rating_scale_likert_active,4364,NA,NA,Somewhat Disagree,1,0,1,0,NA,NA,NA,NA,1,statements,I don't believe there was enough research done on vacines,1,17/06/2021 12:55,17/06/2021 12:59,IP Address,For (I feel positively about the vaccines),Most weeks,Most months,41,Female,NA,"Postgraduate degree (MSc, MA, MPhil)",control,59,2,For,Against
57,1659975478887,08/08/2022 16:17:58,1659975478716,1,08/08/2022 17:17:58,94826,3,task-s8ki,NA,23527384,6895708,NA,complete,NA,62f1357ba2156f7df98c1d21,computer,Desktop or Laptop,Windows 10,Firefox 98.0,1920x1080,1920x927,NA,ITT Ratings,2,for,6,NA,NA,NA,NA,ACCEPT,NA,NA,NA,NA,NA,batch6pro,batch6pro,6,55,1,Screen 1,continueButton,response_rating_scale_likert_active,2808,NA,NA,Somewhat Disagree,1,0,1,0,NA,NA,NA,NA,1,statements,everyone else is getting it so i don't need too,1,17/06/2021 12:51,17/06/2021 12:57,IP Address,For (I feel positively about the vaccines),A few times a year,Most months,30,Female,NA,"Undergraduate degree (BSc, BA)",choice,51,3,For,Against
58,1659975481121,08/08/2022 16:18:01,1659975481103,1,08/08/2022 17:18:01,94826,3,task-s8ki,NA,23527384,6895708,NA,complete,NA,62f1357ba2156f7df98c1d21,computer,Desktop or Laptop,Windows 10,Firefox 98.0,1920x1080,1920x927,NA,ITT Ratings,2,for,6,NA,NA,NA,NA,ACCEPT,NA,NA,NA,NA,NA,batch6pro,batch6pro,57,56,1,Screen 1,continueButton,response_rating_scale_likert_active,2376,NA,NA,Agree,1,0,1,0,NA,NA,NA,NA,1,statements,because I want to help get the world back to normal,1,17/06/2021 12:55,17/06/2021 12:59,IP Address,For (I feel positively about the vaccines),Most weeks,Most months,41,Female,NA,"Postgraduate degree (MSc, MA, MPhil)",control,59,3,For,For
59,1659975481968,08/08/2022 16:18:01,1659975481961,1,08/08/2022 17:18:01,94826,3,task-s8ki,NA,23527384,6895708,NA,complete,NA,62f1357ba2156f7df98c1d21,computer,Desktop or Laptop,Windows 10,Firefox 98.0,1920x1080,1920x927,NA,ITT Ratings,2,for,6,NA,NA,NA,NA,ACCEPT,NA,NA,NA,NA,NA,batch6pro,batch6pro,32,57,1,Screen 1,continueButton,response_rating_scale_likert_active,846,NA,NA,Agree,1,0,1,0,NA,NA,NA,NA,1,statements,It's for the good of the whole world.,1,17/06/2021 12:48,17/06/2021 12:58,IP Address,For (I feel positively about the vaccines),Rarely,Rarely,54,Female,NA,GCSEs,control,55,2,For,For
60,1659975484423,08/08/2022 16:18:04,1659975484413,1,08/08/2022 17:18:04,94826,3,task-s8ki,NA,23527384,6895708,NA,complete,NA,62f1357ba2156f7df98c1d21,computer,Desktop or Laptop,Windows 10,Firefox 98.0,1920x1080,1920x927,NA,ITT Ratings,2,for,6,NA,NA,NA,NA,ACCEPT,NA,NA,NA,NA,NA,batch6pro,batch6pro,5,58,1,Screen 1,continueButton,response_rating_scale_likert_active,2445,NA,NA,Strongly Disagree,1,0,1,0,NA,NA,NA,NA,1,statements,covid is all a hoax made up to cull the population as its too big,1,17/06/2021 12:51,17/06/2021 12:57,IP Address,For (I feel positively about the vaccines),A few times a year,Most months,30,Female,NA,"Undergraduate degree (BSc, BA)",choice,51,2,For,Against
61,1659975487308,08/08/2022 16:18:07,1659975487302,1,08/08/2022 17:18:07,94826,3,task-s8ki,NA,23527384,6895708,NA,complete,NA,62f1357ba2156f7df98c1d21,computer,Desktop or Laptop,Windows 10,Firefox 98.0,1920x1080,1920x927,NA,ITT Ratings,2,for,6,NA,NA,NA,NA,ACCEPT,NA,NA,NA,NA,NA,batch6pro,batch6pro,43,59,1,Screen 1,continueButton,response_rating_scale_likert_active,2880,NA,NA,Somewhat Agree,1,0,1,0,NA,NA,NA,NA,1,statements,The vaccines are produced following strict guidelines,1,17/06/2021 12:44,17/06/2021 12:58,IP Address,For (I feel positively about the vaccines),A few times a year,Most months,49,Female,NA,"Undergraduate degree (BSc, BA)",control,57,1,For,For
62,1659975488505,08/08/2022 16:18:08,1659975488504,1,08/08/2022 17:18:08,94826,3,task-s8ki,NA,23527384,6895708,NA,complete,NA,62f1357ba2156f7df98c1d21,computer,Desktop or Laptop,Windows 10,Firefox 98.0,1920x1080,1920x927,NA,ITT Ratings,2,for,6,NA,NA,NA,NA,ACCEPT,NA,NA,NA,NA,NA,batch6pro,batch6pro,23,60,1,Screen 1,continueButton,response_rating_scale_likert_active,1193,NA,NA,Somewhat Disagree,1,0,1,0,NA,NA,NA,NA,1,statements,Don't trust government,1,17/06/2021 12:49,17/06/2021 12:58,IP Address,For (I feel positively about the vaccines),Rarely,Most weeks,56,Male,NA,"GCSEs,Vocational Training / Apprenticeship",choice,54,2,For,Against
63,1659975490333,08/08/2022 16:18:10,1659975490331,1,08/08/2022 17:18:10,94826,3,task-s8ki,NA,23527384,6895708,NA,complete,NA,62f1357ba2156f7df98c1d21,computer,Desktop or Laptop,Windows 10,Firefox 98.0,1920x1080,1920x927,NA,ITT Ratings,2,for,6,NA,NA,NA,NA,ACCEPT,NA,NA,NA,NA,NA,batch6pro,batch6pro,22,61,1,Screen 1,continueButton,response_rating_scale_likert_active,1821,NA,NA,Neither Agree nor Disagree,1,0,1,0,NA,NA,NA,NA,1,statements,Scared of blood clotting,1,17/06/2021 12:49,17/06/2021 12:58,IP Address,For (I feel positively about the vaccines),Rarely,Most weeks,56,Male,NA,"GCSEs,Vocational Training / Apprenticeship",choice,54,1,For,Against
64,1659975491834,08/08/2022 16:18:11,1659975491820,1,08/08/2022 17:18:11,94826,3,task-s8ki,NA,23527384,6895708,NA,complete,NA,62f1357ba2156f7df98c1d21,computer,Desktop or Laptop,Windows 10,Firefox 98.0,1920x1080,1920x927,NA,ITT Ratings,2,for,6,NA,NA,NA,NA,ACCEPT,NA,NA,NA,NA,NA,batch6pro,batch6pro,50,62,1,Screen 1,continueButton,response_rating_scale_likert_active,1484,NA,NA,Agree,1,0,1,0,NA,NA,NA,NA,1,statements,Less like to catch and pass on the virus.,1,17/06/2021 12:49,17/06/2021 12:59,IP Address,For (I feel positively about the vaccines),Most months,A few times a year,45,Male,NA,Vocational Training / Apprenticeship,control,58,2,For,For
65,1659975491887,08/08/2022 16:18:11,1659975491837,1,08/08/2022 17:18:11,94826,3,task-s8ki,NA,23527384,6895708,NA,complete,NA,62f1357ba2156f7df98c1d21,computer,Desktop or Laptop,Windows 10,Firefox 98.0,1920x1080,1920x927,NA,ITT Ratings,2,for,6,NA,NA,NA,NA,ACCEPT,NA,NA,NA,NA,NA,batch6pro,NA,NA,END TASK,NA,NA,NA,NA,194494,NA,NA,NA,NA,0,1,0,NA,NA,NA,NA,NA,NA,NA,NA,NA,NA,NA,NA,NA,NA,NA,NA,NA,NA,NA,NA,NA,NA,NA
1,1659975872262,08/08/2022 16:24:32,1659975872141,1,08/08/2022 17:24:32,94826,3,task-s8ki,NA,23527582,6895778,NA,complete,NA,62f1389cd6b3258f3ead712a,computer,Desktop or Laptop,Mac OS 10.15.6,Safari 14.0.3,768x1024,1024x665,NA,ITT Ratings,2,for,6,NA,NA,NA,NA,ACCEPT,NA,NA,NA,NA,NA,batch6pro,NA,NA,BEGIN TASK,NA,NA,NA,NA,NA,NA,NA,NA,NA,0,1,0,NA,NA,NA,NA,NA,NA,NA,NA,NA,NA,NA,NA,NA,NA,NA,NA,NA,NA,NA,NA,NA,NA,NA
2,1659975879376,08/08/2022 16:24:39,1659975879325,1,08/08/2022 17:24:39,94826,3,task-s8ki,NA,23527582,6895778,NA,complete,NA,62f1389cd6b3258f3ead712a,computer,Desktop or Laptop,Mac OS 10.15.6,Safari 14.0.3,768x1024,1024x665,NA,ITT Ratings,2,for,6,NA,NA,NA,NA,ACCEPT,NA,NA,NA,NA,NA,batch6pro,batch6pro,1,1,1,Screen 1,advancementZone,continue_button,7105,NA,NA,NA,NA,0,1,0,NA,NA,NA,NA,NA,instructions,NA,NA,NA,NA,NA,NA,NA,NA,NA,NA,NA,NA,NA,NA,NA,NA,NA
3,1659975886874,08/08/2022 16:24:46,1659975886801,1,08/08/2022 17:24:46,94826,3,task-s8ki,NA,23527582,6895778,NA,complete,NA,62f1389cd6b3258f3ead712a,computer,Desktop or Laptop,Mac OS 10.15.6,Safari 14.0.3,768x1024,1024x665,NA,ITT Ratings,2,for,6,NA,NA,NA,NA,ACCEPT,NA,NA,NA,NA,NA,batch6pro,batch6pro,12,1,1,Screen 1,continueButton,response_rating_scale_likert_active,7443,NA,NA,Somewhat Agree,1,0,1,0,NA,NA,NA,NA,1,statements,Covid is no worse than flu.,1,17/06/2021 12:51,17/06/2021 12:58,IP Address,For (I feel positively about the vaccines),Most weeks,Most days,33,Male,NA,"Undergraduate degree (BSc, BA)",choice,52,3,For,Against
4,1659975891549,08/08/2022 16:24:51,1659975891471,1,08/08/2022 17:24:51,94826,3,task-s8ki,NA,23527582,6895778,NA,complete,NA,62f1389cd6b3258f3ead712a,computer,Desktop or Laptop,Mac OS 10.15.6,Safari 14.0.3,768x1024,1024x665,NA,ITT Ratings,2,for,6,NA,NA,NA,NA,ACCEPT,NA,NA,NA,NA,NA,batch6pro,batch6pro,52,2,1,Screen 1,continueButton,response_rating_scale_likert_active,4635,NA,NA,Strongly Disagree,1,0,1,0,NA,NA,NA,NA,1,statements,I am pregnant or planning a pregnancy,1,17/06/2021 12:55,17/06/2021 12:59,IP Address,For (I feel positively about the vaccines),Most weeks,Most months,41,Female,NA,"Postgraduate degree (MSc, MA, MPhil)",control,59,1,For,Against
5,1659975896326,08/08/2022 16:24:56,1659975896272,1,08/08/2022 17:24:56,94826,3,task-s8ki,NA,23527582,6895778,NA,complete,NA,62f1389cd6b3258f3ead712a,computer,Desktop or Laptop,Mac OS 10.15.6,Safari 14.0.3,768x1024,1024x665,NA,ITT Ratings,2,for,6,NA,NA,NA,NA,ACCEPT,NA,NA,NA,NA,NA,batch6pro,batch6pro,59,3,1,Screen 1,continueButton,response_rating_scale_likert_active,4767.999999999996,NA,NA,Somewhat Disagree,1,0,1,0,NA,NA,NA,NA,1,statements,Scared of risks related to vaccines,1,17/06/2021 12:54,17/06/2021 12:59,IP Address,For (I feel positively about the vaccines),Most months,Most months,31,Female,NA,"Undergraduate degree (BSc, BA)",choice,60,2,For,Against
6,1659975899096,08/08/2022 16:24:59,1659975899030,1,08/08/2022 17:24:59,94826,3,task-s8ki,NA,23527582,6895778,NA,complete,NA,62f1389cd6b3258f3ead712a,computer,Desktop or Laptop,Mac OS 10.15.6,Safari 14.0.3,768x1024,1024x665,NA,ITT Ratings,2,for,6,NA,NA,NA,NA,ACCEPT,NA,NA,NA,NA,NA,batch6pro,batch6pro,11,4,1,Screen 1,continueButton,response_rating_scale_likert_active,2728,NA,NA,Strongly Disagree,1,0,1,0,NA,NA,NA,NA,1,statements,"It is the government controlling us, we deserve a choice.",1,17/06/2021 12:51,17/06/2021 12:58,IP Address,For (I feel positively about the vaccines),Most weeks,Most days,33,Male,NA,"Undergraduate degree (BSc, BA)",choice,52,2,For,Against
7,1659975903331,08/08/2022 16:25:03,1659975903269,1,08/08/2022 17:25:03,94826,3,task-s8ki,NA,23527582,6895778,NA,complete,NA,62f1389cd6b3258f3ead712a,computer,Desktop or Laptop,Mac OS 10.15.6,Safari 14.0.3,768x1024,1024x665,NA,ITT Ratings,2,for,6,NA,NA,NA,NA,ACCEPT,NA,NA,NA,NA,NA,batch6pro,batch6pro,41,5,1,Screen 1,continueButton,response_rating_scale_likert_active,4199.999999999996,NA,NA,Neither Agree nor Disagree,1,0,1,0,NA,NA,NA,NA,1,statements,there are risks of blood clots and other serious side effects that are too risky,1,17/06/2021 12:44,17/06/2021 12:58,IP Address,For (I feel positively about the vaccines),A few times a year,Most months,49,Female,NA,"Undergraduate degree (BSc, BA)",control,57,2,For,Against
8,1659975906857,08/08/2022 16:25:06,1659975906798,1,08/08/2022 17:25:06,94826,3,task-s8ki,NA,23527582,6895778,NA,complete,NA,62f1389cd6b3258f3ead712a,computer,Desktop or Laptop,Mac OS 10.15.6,Safari 14.0.3,768x1024,1024x665,NA,ITT Ratings,2,for,6,NA,NA,NA,NA,ACCEPT,NA,NA,NA,NA,NA,batch6pro,batch6pro,38,6,1,Screen 1,continueButton,response_rating_scale_likert_active,3498.9999999999927,NA,NA,Agree,1,0,1,0,NA,NA,NA,NA,1,statements,So society can get back to normal more quickly,1,17/06/2021 12:47,17/06/2021 12:58,IP Address,For (I feel positively about the vaccines),Never,A few times a year,35,Female,NA,"Postgraduate degree (MSc, MA, MPhil)",choice,56,2,For,For
9,1659975910119,08/08/2022 16:25:10,1659975910060,1,08/08/2022 17:25:10,94826,3,task-s8ki,NA,23527582,6895778,NA,complete,NA,62f1389cd6b3258f3ead712a,computer,Desktop or Laptop,Mac OS 10.15.6,Safari 14.0.3,768x1024,1024x665,NA,ITT Ratings,2,for,6,NA,NA,NA,NA,ACCEPT,NA,NA,NA,NA,NA,batch6pro,batch6pro,40,7,1,Screen 1,continueButton,response_rating_scale_likert_active,3231,NA,NA,Disagree,1,0,1,0,NA,NA,NA,NA,1,statements,it was produced too quickly to be effective,1,17/06/2021 12:44,17/06/2021 12:58,IP Address,For (I feel positively about the vaccines),A few times a year,Most months,49,Female,NA,"Undergraduate degree (BSc, BA)",control,57,1,For,Against
10,1659975912804,08/08/2022 16:25:12,1659975912747,1,08/08/2022 17:25:12,94826,3,task-s8ki,NA,23527582,6895778,NA,complete,NA,62f1389cd6b3258f3ead712a,computer,Desktop or Laptop,Mac OS 10.15.6,Safari 14.0.3,768x1024,1024x665,NA,ITT Ratings,2,for,6,NA,NA,NA,NA,ACCEPT,NA,NA,NA,NA,NA,batch6pro,batch6pro,44,8,1,Screen 1,continueButton,response_rating_scale_likert_active,2655.0000000000073,NA,NA,Agree,1,0,1,0,NA,NA,NA,NA,1,statements,They are effective at protecting against other variants,1,17/06/2021 12:44,17/06/2021 12:58,IP Address,For (I feel positively about the vaccines),A few times a year,Most months,49,Female,NA,"Undergraduate degree (BSc, BA)",control,57,2,For,For
11,1659975914919,08/08/2022 16:25:14,1659975914857,1,08/08/2022 17:25:14,94826,3,task-s8ki,NA,23527582,6895778,NA,complete,NA,62f1389cd6b3258f3ead712a,computer,Desktop or Laptop,Mac OS 10.15.6,Safari 14.0.3,768x1024,1024x665,NA,ITT Ratings,2,for,6,NA,NA,NA,NA,ACCEPT,NA,NA,NA,NA,NA,batch6pro,batch6pro,62,9,1,Screen 1,continueButton,response_rating_scale_likert_active,2076,NA,NA,Strongly Agree,1,0,1,0,NA,NA,NA,NA,1,statements,Want to protect others,1,17/06/2021 12:54,17/06/2021 12:59,IP Address,For (I feel positively about the vaccines),Most months,Most months,31,Female,NA,"Undergraduate degree (BSc, BA)",choice,60,2,For,For
12,1659975918007,08/08/2022 16:25:18,1659975917950,1,08/08/2022 17:25:17,94826,3,task-s8ki,NA,23527582,6895778,NA,complete,NA,62f1389cd6b3258f3ead712a,computer,Desktop or Laptop,Mac OS 10.15.6,Safari 14.0.3,768x1024,1024x665,NA,ITT Ratings,2,for,6,NA,NA,NA,NA,ACCEPT,NA,NA,NA,NA,NA,batch6pro,batch6pro,29,10,1,Screen 1,continueButton,response_rating_scale_likert_active,3054,NA,NA,Somewhat Disagree,1,0,1,0,NA,NA,NA,NA,1,statements,I don't think it's been tested long enough compared to other vaccines,1,17/06/2021 12:48,17/06/2021 12:58,IP Address,For (I feel positively about the vaccines),Rarely,Rarely,54,Female,NA,GCSEs,control,55,2,For,Against
13,1659975920656,08/08/2022 16:25:20,1659975920581,1,08/08/2022 17:25:20,94826,3,task-s8ki,NA,23527582,6895778,NA,complete,NA,62f1389cd6b3258f3ead712a,computer,Desktop or Laptop,Mac OS 10.15.6,Safari 14.0.3,768x1024,1024x665,NA,ITT Ratings,2,for,6,NA,NA,NA,NA,ACCEPT,NA,NA,NA,NA,NA,batch6pro,batch6pro,53,11,1,Screen 1,continueButton,response_rating_scale_likert_active,2599,NA,NA,Disagree,1,0,1,0,NA,NA,NA,NA,1,statements,I don't believe there was enough research done on vacines,1,17/06/2021 12:55,17/06/2021 12:59,IP Address,For (I feel positively about the vaccines),Most weeks,Most months,41,Female,NA,"Postgraduate degree (MSc, MA, MPhil)",control,59,2,For,Against
14,1659975923877,08/08/2022 16:25:23,1659975923825,1,08/08/2022 17:25:23,94826,3,task-s8ki,NA,23527582,6895778,NA,complete,NA,62f1389cd6b3258f3ead712a,computer,Desktop or Laptop,Mac OS 10.15.6,Safari 14.0.3,768x1024,1024x665,NA,ITT Ratings,2,for,6,NA,NA,NA,NA,ACCEPT,NA,NA,NA,NA,NA,batch6pro,batch6pro,26,12,1,Screen 1,continueButton,response_rating_scale_likert_active,3211,NA,NA,Agree,1,0,1,0,NA,NA,NA,NA,1,statements,More people vaccinated builds herd immunity,1,17/06/2021 12:49,17/06/2021 12:58,IP Address,For (I feel positively about the vaccines),Rarely,Most weeks,56,Male,NA,"GCSEs,Vocational Training / Apprenticeship",choice,54,2,For,For
15,1659975929250,08/08/2022 16:25:29,1659975929175,1,08/08/2022 17:25:29,94826,3,task-s8ki,NA,23527582,6895778,NA,complete,NA,62f1389cd6b3258f3ead712a,computer,Desktop or Laptop,Mac OS 10.15.6,Safari 14.0.3,768x1024,1024x665,NA,ITT Ratings,2,for,6,NA,NA,NA,NA,ACCEPT,NA,NA,NA,NA,NA,batch6pro,batch6pro,7,13,1,Screen 1,continueButton,response_rating_scale_likert_active,5323,NA,NA,Strongly Agree,1,0,1,0,NA,NA,NA,NA,1,statements,if everyone gets vaccinated we can slow/stop the mutations which takes away a lot of its power,1,17/06/2021 12:51,17/06/2021 12:57,IP Address,For (I feel positively about the vaccines),A few times a year,Most months,30,Female,NA,"Undergraduate degree (BSc, BA)",choice,51,1,For,For
16,1659975932229,08/08/2022 16:25:32,1659975932164,1,08/08/2022 17:25:32,94826,3,task-s8ki,NA,23527582,6895778,NA,complete,NA,62f1389cd6b3258f3ead712a,computer,Desktop or Laptop,Mac OS 10.15.6,Safari 14.0.3,768x1024,1024x665,NA,ITT Ratings,2,for,6,NA,NA,NA,NA,ACCEPT,NA,NA,NA,NA,NA,batch6pro,batch6pro,58,14,1,Screen 1,continueButton,response_rating_scale_likert_active,2957,NA,NA,Strongly Disagree,1,0,1,0,NA,NA,NA,NA,1,statements,Don't need it I am not at risk,1,17/06/2021 12:54,17/06/2021 12:59,IP Address,For (I feel positively about the vaccines),Most months,Most months,31,Female,NA,"Undergraduate degree (BSc, BA)",choice,60,1,For,Against
17,1659975934127,08/08/2022 16:25:34,1659975934064,1,08/08/2022 17:25:34,94826,3,task-s8ki,NA,23527582,6895778,NA,complete,NA,62f1389cd6b3258f3ead712a,computer,Desktop or Laptop,Mac OS 10.15.6,Safari 14.0.3,768x1024,1024x665,NA,ITT Ratings,2,for,6,NA,NA,NA,NA,ACCEPT,NA,NA,NA,NA,NA,batch6pro,batch6pro,51,15,1,Screen 1,continueButton,response_rating_scale_likert_active,1868,NA,NA,Agree,1,0,1,0,NA,NA,NA,NA,1,statements,Good for the community.,1,17/06/2021 12:49,17/06/2021 12:59,IP Address,For (I feel positively about the vaccines),Most months,A few times a year,45,Male,NA,Vocational Training / Apprenticeship,control,58,3,For,For
18,1659975940870,08/08/2022 16:25:40,1659975940818,1,08/08/2022 17:25:40,94826,3,task-s8ki,NA,23527582,6895778,NA,complete,NA,62f1389cd6b3258f3ead712a,computer,Desktop or Laptop,Mac OS 10.15.6,Safari 14.0.3,768x1024,1024x665,NA,ITT Ratings,2,for,6,NA,NA,NA,NA,ACCEPT,NA,NA,NA,NA,NA,batch6pro,batch6pro,50,16,1,Screen 1,continueButton,response_rating_scale_likert_active,6724.999999999985,NA,NA,Disagree,1,0,1,0,NA,NA,NA,NA,1,statements,Less like to catch and pass on the virus.,1,17/06/2021 12:49,17/06/2021 12:59,IP Address,For (I feel positively about the vaccines),Most months,A few times a year,45,Male,NA,Vocational Training / Apprenticeship,control,58,2,For,For
19,1659975943238,08/08/2022 16:25:43,1659975943183,1,08/08/2022 17:25:43,94826,3,task-s8ki,NA,23527582,6895778,NA,complete,NA,62f1389cd6b3258f3ead712a,computer,Desktop or Laptop,Mac OS 10.15.6,Safari 14.0.3,768x1024,1024x665,NA,ITT Ratings,2,for,6,NA,NA,NA,NA,ACCEPT,NA,NA,NA,NA,NA,batch6pro,batch6pro,18,17,1,Screen 1,continueButton,response_rating_scale_likert_active,2330,NA,NA,Disagree,1,0,1,0,NA,NA,NA,NA,1,statements,"Not trialed enough, vaccine was too rushed.",1,17/06/2021 12:42,17/06/2021 12:58,IP Address,For (I feel positively about the vaccines),Most weeks,Most months,25,Female,NA,Vocational Training / Apprenticeship,choice,53,3,For,Against
20,1659975947842,08/08/2022 16:25:47,1659975947769,1,08/08/2022 17:25:47,94826,3,task-s8ki,NA,23527582,6895778,NA,complete,NA,62f1389cd6b3258f3ead712a,computer,Desktop or Laptop,Mac OS 10.15.6,Safari 14.0.3,768x1024,1024x665,NA,ITT Ratings,2,for,6,NA,NA,NA,NA,ACCEPT,NA,NA,NA,NA,NA,batch6pro,batch6pro,3,18,1,Screen 1,continueButton,response_rating_scale_likert_active,4556,NA,NA,Somewhat Disagree,1,0,1,0,NA,NA,NA,NA,1,statements,We would like to check you are reading each argument carefully. Please select 'Somewhat Disagree' for this answer,1,NA,NA,NA,NA,NA,NA,NA,NA,NA,NA,NA,NA,check2,NA,NA
21,1659975951320,08/08/2022 16:25:51,1659975951262,1,08/08/2022 17:25:51,94826,3,task-s8ki,NA,23527582,6895778,NA,complete,NA,62f1389cd6b3258f3ead712a,computer,Desktop or Laptop,Mac OS 10.15.6,Safari 14.0.3,768x1024,1024x665,NA,ITT Ratings,2,for,6,NA,NA,NA,NA,ACCEPT,NA,NA,NA,NA,NA,batch6pro,batch6pro,35,19,1,Screen 1,continueButton,response_rating_scale_likert_active,3462,NA,NA,Strongly Disagree,1,0,1,0,NA,NA,NA,NA,1,statements,Everyone at risk has now had a vaccine,1,17/06/2021 12:47,17/06/2021 12:58,IP Address,For (I feel positively about the vaccines),Never,A few times a year,35,Female,NA,"Postgraduate degree (MSc, MA, MPhil)",choice,56,2,For,Against
22,1659975953358,08/08/2022 16:25:53,1659975953261,1,08/08/2022 17:25:53,94826,3,task-s8ki,NA,23527582,6895778,NA,complete,NA,62f1389cd6b3258f3ead712a,computer,Desktop or Laptop,Mac OS 10.15.6,Safari 14.0.3,768x1024,1024x665,NA,ITT Ratings,2,for,6,NA,NA,NA,NA,ACCEPT,NA,NA,NA,NA,NA,batch6pro,batch6pro,63,20,1,Screen 1,continueButton,response_rating_scale_likert_active,1963,NA,NA,Agree,1,0,1,0,NA,NA,NA,NA,1,statements,Want to get back to normal life,1,17/06/2021 12:54,17/06/2021 12:59,IP Address,For (I feel positively about the vaccines),Most months,Most months,31,Female,NA,"Undergraduate degree (BSc, BA)",choice,60,3,For,For
23,1659975984275,08/08/2022 16:26:24,1659975984086,1,08/08/2022 17:26:24,94826,3,task-s8ki,NA,23527582,6895778,NA,complete,NA,62f1389cd6b3258f3ead712a,computer,Desktop or Laptop,Mac OS 10.15.6,Safari 14.0.3,768x1024,1024x665,NA,ITT Ratings,2,for,6,NA,NA,NA,NA,ACCEPT,NA,NA,NA,NA,NA,batch6pro,batch6pro,45,21,1,Screen 1,continueButton,response_rating_scale_likert_active,30796.000000000015,NA,NA,Agree,1,0,1,0,NA,NA,NA,NA,1,statements,The more people that are vaccinated the more successful we will be of bringing covid under control and get our lives back to normal,1,17/06/2021 12:44,17/06/2021 12:58,IP Address,For (I feel positively about the vaccines),A few times a year,Most months,49,Female,NA,"Undergraduate degree (BSc, BA)",control,57,3,For,For
24,1659975986624,08/08/2022 16:26:26,1659975986570,1,08/08/2022 17:26:26,94826,3,task-s8ki,NA,23527582,6895778,NA,complete,NA,62f1389cd6b3258f3ead712a,computer,Desktop or Laptop,Mac OS 10.15.6,Safari 14.0.3,768x1024,1024x665,NA,ITT Ratings,2,for,6,NA,NA,NA,NA,ACCEPT,NA,NA,NA,NA,NA,batch6pro,batch6pro,36,22,1,Screen 1,continueButton,response_rating_scale_likert_active,2452,NA,NA,Disagree,1,0,1,0,NA,NA,NA,NA,1,statements,There's not been enough time to develop a safe vaccine,1,17/06/2021 12:47,17/06/2021 12:58,IP Address,For (I feel positively about the vaccines),Never,A few times a year,35,Female,NA,"Postgraduate degree (MSc, MA, MPhil)",choice,56,3,For,Against
25,1659975988823,08/08/2022 16:26:28,1659975988772,1,08/08/2022 17:26:28,94826,3,task-s8ki,NA,23527582,6895778,NA,complete,NA,62f1389cd6b3258f3ead712a,computer,Desktop or Laptop,Mac OS 10.15.6,Safari 14.0.3,768x1024,1024x665,NA,ITT Ratings,2,for,6,NA,NA,NA,NA,ACCEPT,NA,NA,NA,NA,NA,batch6pro,batch6pro,24,23,1,Screen 1,continueButton,response_rating_scale_likert_active,2172,NA,NA,Somewhat Agree,1,0,1,0,NA,NA,NA,NA,1,statements,Long term side effects not known,1,17/06/2021 12:49,17/06/2021 12:58,IP Address,For (I feel positively about the vaccines),Rarely,Most weeks,56,Male,NA,"GCSEs,Vocational Training / Apprenticeship",choice,54,3,For,Against
26,1659975990487,08/08/2022 16:26:30,1659975990434,1,08/08/2022 17:26:30,94826,3,task-s8ki,NA,23527582,6895778,NA,complete,NA,62f1389cd6b3258f3ead712a,computer,Desktop or Laptop,Mac OS 10.15.6,Safari 14.0.3,768x1024,1024x665,NA,ITT Ratings,2,for,6,NA,NA,NA,NA,ACCEPT,NA,NA,NA,NA,NA,batch6pro,batch6pro,60,24,1,Screen 1,continueButton,response_rating_scale_likert_active,1630,NA,NA,Strongly Disagree,1,0,1,0,NA,NA,NA,NA,1,statements,Don't believe in covid,1,17/06/2021 12:54,17/06/2021 12:59,IP Address,For (I feel positively about the vaccines),Most months,Most months,31,Female,NA,"Undergraduate degree (BSc, BA)",choice,60,3,For,Against
27,1659975996660,08/08/2022 16:26:36,1659975996613,1,08/08/2022 17:26:36,94826,3,task-s8ki,NA,23527582,6895778,NA,complete,NA,62f1389cd6b3258f3ead712a,computer,Desktop or Laptop,Mac OS 10.15.6,Safari 14.0.3,768x1024,1024x665,NA,ITT Ratings,2,for,6,NA,NA,NA,NA,ACCEPT,NA,NA,NA,NA,NA,batch6pro,batch6pro,17,25,1,Screen 1,continueButton,response_rating_scale_likert_active,6149,NA,NA,Somewhat Disagree,1,0,1,0,NA,NA,NA,NA,1,statements,I feel like I're being forced.,1,17/06/2021 12:42,17/06/2021 12:58,IP Address,For (I feel positively about the vaccines),Most weeks,Most months,25,Female,NA,Vocational Training / Apprenticeship,choice,53,2,For,Against
28,1659975998871,08/08/2022 16:26:38,1659975998819,1,08/08/2022 17:26:38,94826,3,task-s8ki,NA,23527582,6895778,NA,complete,NA,62f1389cd6b3258f3ead712a,computer,Desktop or Laptop,Mac OS 10.15.6,Safari 14.0.3,768x1024,1024x665,NA,ITT Ratings,2,for,6,NA,NA,NA,NA,ACCEPT,NA,NA,NA,NA,NA,batch6pro,batch6pro,20,26,1,Screen 1,continueButton,response_rating_scale_likert_active,2179,NA,NA,Somewhat Agree,1,0,1,0,NA,NA,NA,NA,1,statements,There's no evidence of infertility.,1,17/06/2021 12:42,17/06/2021 12:58,IP Address,For (I feel positively about the vaccines),Most weeks,Most months,25,Female,NA,Vocational Training / Apprenticeship,choice,53,2,For,For
29,1659976001459,08/08/2022 16:26:41,1659976001412,1,08/08/2022 17:26:41,94826,3,task-s8ki,NA,23527582,6895778,NA,complete,NA,62f1389cd6b3258f3ead712a,computer,Desktop or Laptop,Mac OS 10.15.6,Safari 14.0.3,768x1024,1024x665,NA,ITT Ratings,2,for,6,NA,NA,NA,NA,ACCEPT,NA,NA,NA,NA,NA,batch6pro,batch6pro,27,27,1,Screen 1,continueButton,response_rating_scale_likert_active,2564,NA,NA,Agree,1,0,1,0,NA,NA,NA,NA,1,statements,More people vaccinated less chance of mutations in the virus,1,17/06/2021 12:49,17/06/2021 12:58,IP Address,For (I feel positively about the vaccines),Rarely,Most weeks,56,Male,NA,"GCSEs,Vocational Training / Apprenticeship",choice,54,3,For,For
30,1659976005452,08/08/2022 16:26:45,1659976005386,1,08/08/2022 17:26:45,94826,3,task-s8ki,NA,23527582,6895778,NA,complete,NA,62f1389cd6b3258f3ead712a,computer,Desktop or Laptop,Mac OS 10.15.6,Safari 14.0.3,768x1024,1024x665,NA,ITT Ratings,2,for,6,NA,NA,NA,NA,ACCEPT,NA,NA,NA,NA,NA,batch6pro,batch6pro,39,28,1,Screen 1,continueButton,response_rating_scale_likert_active,3943,NA,NA,Agree,1,0,1,0,NA,NA,NA,NA,1,statements,So I can maybe go on holiday in the future without having to isolate or pay for additional tests!,1,17/06/2021 12:47,17/06/2021 12:58,IP Address,For (I feel positively about the vaccines),Never,A few times a year,35,Female,NA,"Postgraduate degree (MSc, MA, MPhil)",choice,56,3,For,For
31,1659976008101,08/08/2022 16:26:48,1659976008031,1,08/08/2022 17:26:48,94826,3,task-s8ki,NA,23527582,6895778,NA,complete,NA,62f1389cd6b3258f3ead712a,computer,Desktop or Laptop,Mac OS 10.15.6,Safari 14.0.3,768x1024,1024x665,NA,ITT Ratings,2,for,6,NA,NA,NA,NA,ACCEPT,NA,NA,NA,NA,NA,batch6pro,batch6pro,13,29,1,Screen 1,continueButton,response_rating_scale_likert_active,2612.000000000029,NA,NA,Strongly Agree,1,0,1,0,NA,NA,NA,NA,1,statements,It reduces the severity of symptoms if i catch covid.,1,17/06/2021 12:51,17/06/2021 12:58,IP Address,For (I feel positively about the vaccines),Most weeks,Most days,33,Male,NA,"Undergraduate degree (BSc, BA)",choice,52,1,For,For
32,1659976013088,08/08/2022 16:26:53,1659976013030,1,08/08/2022 17:26:53,94826,3,task-s8ki,NA,23527582,6895778,NA,complete,NA,62f1389cd6b3258f3ead712a,computer,Desktop or Laptop,Mac OS 10.15.6,Safari 14.0.3,768x1024,1024x665,NA,ITT Ratings,2,for,6,NA,NA,NA,NA,ACCEPT,NA,NA,NA,NA,NA,batch6pro,batch6pro,19,30,1,Screen 1,continueButton,response_rating_scale_likert_active,4970,NA,NA,Neither Agree nor Disagree,1,0,1,0,NA,NA,NA,NA,1,statements,They started developing it when covid first started.,1,17/06/2021 12:42,17/06/2021 12:58,IP Address,For (I feel positively about the vaccines),Most weeks,Most months,25,Female,NA,Vocational Training / Apprenticeship,choice,53,1,For,For
33,1659976015825,08/08/2022 16:26:55,1659976015766,1,08/08/2022 17:26:55,94826,3,task-s8ki,NA,23527582,6895778,NA,complete,NA,62f1389cd6b3258f3ead712a,computer,Desktop or Laptop,Mac OS 10.15.6,Safari 14.0.3,768x1024,1024x665,NA,ITT Ratings,2,for,6,NA,NA,NA,NA,ACCEPT,NA,NA,NA,NA,NA,batch6pro,batch6pro,25,31,1,Screen 1,continueButton,response_rating_scale_likert_active,2704,NA,NA,Strongly Agree,1,0,1,0,NA,NA,NA,NA,1,statements,Vaccination keeps hospitalisation down,1,17/06/2021 12:49,17/06/2021 12:58,IP Address,For (I feel positively about the vaccines),Rarely,Most weeks,56,Male,NA,"GCSEs,Vocational Training / Apprenticeship",choice,54,1,For,For
34,1659976021676,08/08/2022 16:27:01,1659976021616,1,08/08/2022 17:27:01,94826,3,task-s8ki,NA,23527582,6895778,NA,complete,NA,62f1389cd6b3258f3ead712a,computer,Desktop or Laptop,Mac OS 10.15.6,Safari 14.0.3,768x1024,1024x665,NA,ITT Ratings,2,for,6,NA,NA,NA,NA,ACCEPT,NA,NA,NA,NA,NA,batch6pro,batch6pro,8,32,1,Screen 1,continueButton,response_rating_scale_likert_active,5820,NA,NA,Agree,1,0,1,0,NA,NA,NA,NA,1,statements,it can make sure i don't transmit it to other people so keep them safe as well as me,1,17/06/2021 12:51,17/06/2021 12:57,IP Address,For (I feel positively about the vaccines),A few times a year,Most months,30,Female,NA,"Undergraduate degree (BSc, BA)",choice,51,2,For,For
35,1659976022943,08/08/2022 16:27:02,1659976022828,1,08/08/2022 17:27:02,94826,3,task-s8ki,NA,23527582,6895778,NA,complete,NA,62f1389cd6b3258f3ead712a,computer,Desktop or Laptop,Mac OS 10.15.6,Safari 14.0.3,768x1024,1024x665,NA,ITT Ratings,2,for,6,NA,NA,NA,NA,ACCEPT,NA,NA,NA,NA,NA,batch6pro,batch6pro,61,33,1,Screen 1,continueButton,response_rating_scale_likert_active,1182,NA,NA,Agree,1,0,1,0,NA,NA,NA,NA,1,statements,Want to be safe and protect myself,1,17/06/2021 12:54,17/06/2021 12:59,IP Address,For (I feel positively about the vaccines),Most months,Most months,31,Female,NA,"Undergraduate degree (BSc, BA)",choice,60,1,For,For
36,1659976025584,08/08/2022 16:27:05,1659976025523,1,08/08/2022 17:27:05,94826,3,task-s8ki,NA,23527582,6895778,NA,complete,NA,62f1389cd6b3258f3ead712a,computer,Desktop or Laptop,Mac OS 10.15.6,Safari 14.0.3,768x1024,1024x665,NA,ITT Ratings,2,for,6,NA,NA,NA,NA,ACCEPT,NA,NA,NA,NA,NA,batch6pro,batch6pro,16,34,1,Screen 1,continueButton,response_rating_scale_likert_active,2664,NA,NA,Somewhat Disagree,1,0,1,0,NA,NA,NA,NA,1,statements,"Infertility, blood clots, not safe",1,17/06/2021 12:42,17/06/2021 12:58,IP Address,For (I feel positively about the vaccines),Most weeks,Most months,25,Female,NA,Vocational Training / Apprenticeship,choice,53,1,For,Against
37,1659976027039,08/08/2022 16:27:07,1659976026971,1,08/08/2022 17:27:06,94826,3,task-s8ki,NA,23527582,6895778,NA,complete,NA,62f1389cd6b3258f3ead712a,computer,Desktop or Laptop,Mac OS 10.15.6,Safari 14.0.3,768x1024,1024x665,NA,ITT Ratings,2,for,6,NA,NA,NA,NA,ACCEPT,NA,NA,NA,NA,NA,batch6pro,batch6pro,56,35,1,Screen 1,continueButton,response_rating_scale_likert_active,1421,NA,NA,Agree,1,0,1,0,NA,NA,NA,NA,1,statements,to protect others around me,1,17/06/2021 12:55,17/06/2021 12:59,IP Address,For (I feel positively about the vaccines),Most weeks,Most months,41,Female,NA,"Postgraduate degree (MSc, MA, MPhil)",control,59,2,For,For
38,1659976029262,08/08/2022 16:27:09,1659976029146,1,08/08/2022 17:27:09,94826,3,task-s8ki,NA,23527582,6895778,NA,complete,NA,62f1389cd6b3258f3ead712a,computer,Desktop or Laptop,Mac OS 10.15.6,Safari 14.0.3,768x1024,1024x665,NA,ITT Ratings,2,for,6,NA,NA,NA,NA,ACCEPT,NA,NA,NA,NA,NA,batch6pro,batch6pro,31,36,1,Screen 1,continueButton,response_rating_scale_likert_active,2145,NA,NA,Strongly Agree,1,0,1,0,NA,NA,NA,NA,1,statements,Im protecting myself and my family.,1,17/06/2021 12:48,17/06/2021 12:58,IP Address,For (I feel positively about the vaccines),Rarely,Rarely,54,Female,NA,GCSEs,control,55,1,For,For
39,1659976031997,08/08/2022 16:27:11,1659976031901,1,08/08/2022 17:27:11,94826,3,task-s8ki,NA,23527582,6895778,NA,complete,NA,62f1389cd6b3258f3ead712a,computer,Desktop or Laptop,Mac OS 10.15.6,Safari 14.0.3,768x1024,1024x665,NA,ITT Ratings,2,for,6,NA,NA,NA,NA,ACCEPT,NA,NA,NA,NA,NA,batch6pro,batch6pro,10,37,1,Screen 1,continueButton,response_rating_scale_likert_active,2726.999999999971,NA,NA,Disagree,1,0,1,0,NA,NA,NA,NA,1,statements,"It affects my DNA, i don't want anything that will change my DNA",1,17/06/2021 12:51,17/06/2021 12:58,IP Address,For (I feel positively about the vaccines),Most weeks,Most days,33,Male,NA,"Undergraduate degree (BSc, BA)",choice,52,1,For,Against
40,1659976033812,08/08/2022 16:27:13,1659976033763,1,08/08/2022 17:27:13,94826,3,task-s8ki,NA,23527582,6895778,NA,complete,NA,62f1389cd6b3258f3ead712a,computer,Desktop or Laptop,Mac OS 10.15.6,Safari 14.0.3,768x1024,1024x665,NA,ITT Ratings,2,for,6,NA,NA,NA,NA,ACCEPT,NA,NA,NA,NA,NA,batch6pro,batch6pro,54,38,1,Screen 1,continueButton,response_rating_scale_likert_active,1832.999999999971,NA,NA,Neither Agree nor Disagree,1,0,1,0,NA,NA,NA,NA,1,statements,my own medical conditions,1,17/06/2021 12:55,17/06/2021 12:59,IP Address,For (I feel positively about the vaccines),Most weeks,Most months,41,Female,NA,"Postgraduate degree (MSc, MA, MPhil)",control,59,3,For,Against
41,1659976036471,08/08/2022 16:27:16,1659976036406,1,08/08/2022 17:27:16,94826,3,task-s8ki,NA,23527582,6895778,NA,complete,NA,62f1389cd6b3258f3ead712a,computer,Desktop or Laptop,Mac OS 10.15.6,Safari 14.0.3,768x1024,1024x665,NA,ITT Ratings,2,for,6,NA,NA,NA,NA,ACCEPT,NA,NA,NA,NA,NA,batch6pro,batch6pro,28,39,1,Screen 1,continueButton,response_rating_scale_likert_active,2614.000000000029,NA,NA,Disagree,1,0,1,0,NA,NA,NA,NA,1,statements,Im young and want to start a family. I'm not sure about the long term effects on fertility.,1,17/06/2021 12:48,17/06/2021 12:58,IP Address,For (I feel positively about the vaccines),Rarely,Rarely,54,Female,NA,GCSEs,control,55,1,For,Against
42,1659976038935,08/08/2022 16:27:18,1659976038871,1,08/08/2022 17:27:18,94826,3,task-s8ki,NA,23527582,6895778,NA,complete,NA,62f1389cd6b3258f3ead712a,computer,Desktop or Laptop,Mac OS 10.15.6,Safari 14.0.3,768x1024,1024x665,NA,ITT Ratings,2,for,6,NA,NA,NA,NA,ACCEPT,NA,NA,NA,NA,NA,batch6pro,batch6pro,48,40,1,Screen 1,continueButton,response_rating_scale_likert_active,2434.999999999971,NA,NA,Disagree,1,0,1,0,NA,NA,NA,NA,1,statements,Don't like the idea that the government is injecting me.,1,17/06/2021 12:49,17/06/2021 12:59,IP Address,For (I feel positively about the vaccines),Most months,A few times a year,45,Male,NA,Vocational Training / Apprenticeship,control,58,3,For,Against
43,1659976042362,08/08/2022 16:27:22,1659976042302,1,08/08/2022 17:27:22,94826,3,task-s8ki,NA,23527582,6895778,NA,complete,NA,62f1389cd6b3258f3ead712a,computer,Desktop or Laptop,Mac OS 10.15.6,Safari 14.0.3,768x1024,1024x665,NA,ITT Ratings,2,for,6,NA,NA,NA,NA,ACCEPT,NA,NA,NA,NA,NA,batch6pro,batch6pro,2,41,1,Screen 1,continueButton,response_rating_scale_likert_active,3399,NA,NA,Somewhat Agree,1,0,1,0,NA,NA,NA,NA,1,statements,We would like to check you are reading each argument carefully. Please select 'Somewhat Agree' for this answer,1,NA,NA,NA,NA,NA,NA,NA,NA,NA,NA,NA,NA,check1,NA,NA
44,1659976046387,08/08/2022 16:27:26,1659976046322,1,08/08/2022 17:27:26,94826,3,task-s8ki,NA,23527582,6895778,NA,complete,NA,62f1389cd6b3258f3ead712a,computer,Desktop or Laptop,Mac OS 10.15.6,Safari 14.0.3,768x1024,1024x665,NA,ITT Ratings,2,for,6,NA,NA,NA,NA,ACCEPT,NA,NA,NA,NA,NA,batch6pro,batch6pro,30,42,1,Screen 1,continueButton,response_rating_scale_likert_active,3992.999999999971,NA,NA,Agree,1,0,1,0,NA,NA,NA,NA,1,statements,It should be a personal choice for everyone to decide yes or no for themselves,1,17/06/2021 12:48,17/06/2021 12:58,IP Address,For (I feel positively about the vaccines),Rarely,Rarely,54,Female,NA,GCSEs,control,55,3,For,Against
45,1659976048755,08/08/2022 16:27:28,1659976048689,1,08/08/2022 17:27:28,94826,3,task-s8ki,NA,23527582,6895778,NA,complete,NA,62f1389cd6b3258f3ead712a,computer,Desktop or Laptop,Mac OS 10.15.6,Safari 14.0.3,768x1024,1024x665,NA,ITT Ratings,2,for,6,NA,NA,NA,NA,ACCEPT,NA,NA,NA,NA,NA,batch6pro,batch6pro,37,43,1,Screen 1,continueButton,response_rating_scale_likert_active,2337,NA,NA,Strongly Agree,1,0,1,0,NA,NA,NA,NA,1,statements,"To protect myself, family and friends from getting Covid",1,17/06/2021 12:47,17/06/2021 12:58,IP Address,For (I feel positively about the vaccines),Never,A few times a year,35,Female,NA,"Postgraduate degree (MSc, MA, MPhil)",choice,56,1,For,For
46,1659976052376,08/08/2022 16:27:32,1659976052314,1,08/08/2022 17:27:32,94826,3,task-s8ki,NA,23527582,6895778,NA,complete,NA,62f1389cd6b3258f3ead712a,computer,Desktop or Laptop,Mac OS 10.15.6,Safari 14.0.3,768x1024,1024x665,NA,ITT Ratings,2,for,6,NA,NA,NA,NA,ACCEPT,NA,NA,NA,NA,NA,batch6pro,batch6pro,42,44,1,Screen 1,continueButton,response_rating_scale_likert_active,3594,NA,NA,Somewhat Disagree,1,0,1,0,NA,NA,NA,NA,1,statements,They only tackle one variant which means they wont be effective for other variants,1,17/06/2021 12:44,17/06/2021 12:58,IP Address,For (I feel positively about the vaccines),A few times a year,Most months,49,Female,NA,"Undergraduate degree (BSc, BA)",control,57,3,For,Against
47,1659976054885,08/08/2022 16:27:34,1659976054807,1,08/08/2022 17:27:34,94826,3,task-s8ki,NA,23527582,6895778,NA,complete,NA,62f1389cd6b3258f3ead712a,computer,Desktop or Laptop,Mac OS 10.15.6,Safari 14.0.3,768x1024,1024x665,NA,ITT Ratings,2,for,6,NA,NA,NA,NA,ACCEPT,NA,NA,NA,NA,NA,batch6pro,batch6pro,5,45,1,Screen 1,continueButton,response_rating_scale_likert_active,2463,NA,NA,Strongly Disagree,1,0,1,0,NA,NA,NA,NA,1,statements,covid is all a hoax made up to cull the population as its too big,1,17/06/2021 12:51,17/06/2021 12:57,IP Address,For (I feel positively about the vaccines),A few times a year,Most months,30,Female,NA,"Undergraduate degree (BSc, BA)",choice,51,2,For,Against
48,1659976056637,08/08/2022 16:27:36,1659976056539,1,08/08/2022 17:27:36,94826,3,task-s8ki,NA,23527582,6895778,NA,complete,NA,62f1389cd6b3258f3ead712a,computer,Desktop or Laptop,Mac OS 10.15.6,Safari 14.0.3,768x1024,1024x665,NA,ITT Ratings,2,for,6,NA,NA,NA,NA,ACCEPT,NA,NA,NA,NA,NA,batch6pro,batch6pro,22,46,1,Screen 1,continueButton,response_rating_scale_likert_active,1703.999999999971,NA,NA,Somewhat Agree,1,0,1,0,NA,NA,NA,NA,1,statements,Scared of blood clotting,1,17/06/2021 12:49,17/06/2021 12:58,IP Address,For (I feel positively about the vaccines),Rarely,Most weeks,56,Male,NA,"GCSEs,Vocational Training / Apprenticeship",choice,54,1,For,Against
49,1659976058504,08/08/2022 16:27:38,1659976058441,1,08/08/2022 17:27:38,94826,3,task-s8ki,NA,23527582,6895778,NA,complete,NA,62f1389cd6b3258f3ead712a,computer,Desktop or Laptop,Mac OS 10.15.6,Safari 14.0.3,768x1024,1024x665,NA,ITT Ratings,2,for,6,NA,NA,NA,NA,ACCEPT,NA,NA,NA,NA,NA,batch6pro,batch6pro,32,47,1,Screen 1,continueButton,response_rating_scale_likert_active,1872,NA,NA,Strongly Agree,1,0,1,0,NA,NA,NA,NA,1,statements,It's for the good of the whole world.,1,17/06/2021 12:48,17/06/2021 12:58,IP Address,For (I feel positively about the vaccines),Rarely,Rarely,54,Female,NA,GCSEs,control,55,2,For,For
50,1659976062125,08/08/2022 16:27:42,1659976062069,1,08/08/2022 17:27:42,94826,3,task-s8ki,NA,23527582,6895778,NA,complete,NA,62f1389cd6b3258f3ead712a,computer,Desktop or Laptop,Mac OS 10.15.6,Safari 14.0.3,768x1024,1024x665,NA,ITT Ratings,2,for,6,NA,NA,NA,NA,ACCEPT,NA,NA,NA,NA,NA,batch6pro,batch6pro,34,48,1,Screen 1,continueButton,response_rating_scale_likert_active,3601,NA,NA,Somewhat Disagree,1,0,1,0,NA,NA,NA,NA,1,statements,I'm unlikely to get very ill if I get Covid,1,17/06/2021 12:47,17/06/2021 12:58,IP Address,For (I feel positively about the vaccines),Never,A few times a year,35,Female,NA,"Postgraduate degree (MSc, MA, MPhil)",choice,56,1,For,Against
51,1659976064251,08/08/2022 16:27:44,1659976064177,1,08/08/2022 17:27:44,94826,3,task-s8ki,NA,23527582,6895778,NA,complete,NA,62f1389cd6b3258f3ead712a,computer,Desktop or Laptop,Mac OS 10.15.6,Safari 14.0.3,768x1024,1024x665,NA,ITT Ratings,2,for,6,NA,NA,NA,NA,ACCEPT,NA,NA,NA,NA,NA,batch6pro,batch6pro,4,49,1,Screen 1,continueButton,response_rating_scale_likert_active,2079,NA,NA,Somewhat Disagree,1,0,1,0,NA,NA,NA,NA,1,statements,it has not been tested enough so i don't know its safe,1,17/06/2021 12:51,17/06/2021 12:57,IP Address,For (I feel positively about the vaccines),A few times a year,Most months,30,Female,NA,"Undergraduate degree (BSc, BA)",choice,51,1,For,Against
52,1659976072707,08/08/2022 16:27:52,1659976072651,1,08/08/2022 17:27:52,94826,3,task-s8ki,NA,23527582,6895778,NA,complete,NA,62f1389cd6b3258f3ead712a,computer,Desktop or Laptop,Mac OS 10.15.6,Safari 14.0.3,768x1024,1024x665,NA,ITT Ratings,2,for,6,NA,NA,NA,NA,ACCEPT,NA,NA,NA,NA,NA,batch6pro,batch6pro,9,50,1,Screen 1,continueButton,response_rating_scale_likert_active,8444,NA,NA,Agree,1,0,1,0,NA,NA,NA,NA,1,statements,having the vaccine with a day or two max side effects is better than getting covid and dying,1,17/06/2021 12:51,17/06/2021 12:57,IP Address,For (I feel positively about the vaccines),A few times a year,Most months,30,Female,NA,"Undergraduate degree (BSc, BA)",choice,51,3,For,For
53,1659976075210,08/08/2022 16:27:55,1659976075140,1,08/08/2022 17:27:55,94826,3,task-s8ki,NA,23527582,6895778,NA,complete,NA,62f1389cd6b3258f3ead712a,computer,Desktop or Laptop,Mac OS 10.15.6,Safari 14.0.3,768x1024,1024x665,NA,ITT Ratings,2,for,6,NA,NA,NA,NA,ACCEPT,NA,NA,NA,NA,NA,batch6pro,batch6pro,55,51,1,Screen 1,continueButton,response_rating_scale_likert_active,2461,NA,NA,Agree,1,0,1,0,NA,NA,NA,NA,1,statements,to prevent myself catching Covid,1,17/06/2021 12:55,17/06/2021 12:59,IP Address,For (I feel positively about the vaccines),Most weeks,Most months,41,Female,NA,"Postgraduate degree (MSc, MA, MPhil)",control,59,1,For,For
54,1659976077796,08/08/2022 16:27:57,1659976077627,1,08/08/2022 17:27:57,94826,3,task-s8ki,NA,23527582,6895778,NA,complete,NA,62f1389cd6b3258f3ead712a,computer,Desktop or Laptop,Mac OS 10.15.6,Safari 14.0.3,768x1024,1024x665,NA,ITT Ratings,2,for,6,NA,NA,NA,NA,ACCEPT,NA,NA,NA,NA,NA,batch6pro,batch6pro,57,52,1,Screen 1,continueButton,response_rating_scale_likert_active,2458,NA,NA,Agree,1,0,1,0,NA,NA,NA,NA,1,statements,because I want to help get the world back to normal,1,17/06/2021 12:55,17/06/2021 12:59,IP Address,For (I feel positively about the vaccines),Most weeks,Most months,41,Female,NA,"Postgraduate degree (MSc, MA, MPhil)",control,59,3,For,For
55,1659976081444,08/08/2022 16:28:01,1659976081385,1,08/08/2022 17:28:01,94826,3,task-s8ki,NA,23527582,6895778,NA,complete,NA,62f1389cd6b3258f3ead712a,computer,Desktop or Laptop,Mac OS 10.15.6,Safari 14.0.3,768x1024,1024x665,NA,ITT Ratings,2,for,6,NA,NA,NA,NA,ACCEPT,NA,NA,NA,NA,NA,batch6pro,batch6pro,14,53,1,Screen 1,continueButton,response_rating_scale_likert_active,3728,NA,NA,Strongly Agree,1,0,1,0,NA,NA,NA,NA,1,statements,"It helps protect me and others around me, having a reducing effect on transmission rates",1,17/06/2021 12:51,17/06/2021 12:58,IP Address,For (I feel positively about the vaccines),Most weeks,Most days,33,Male,NA,"Undergraduate degree (BSc, BA)",choice,52,2,For,For
56,1659976082937,08/08/2022 16:28:02,1659976082842,1,08/08/2022 17:28:02,94826,3,task-s8ki,NA,23527582,6895778,NA,complete,NA,62f1389cd6b3258f3ead712a,computer,Desktop or Laptop,Mac OS 10.15.6,Safari 14.0.3,768x1024,1024x665,NA,ITT Ratings,2,for,6,NA,NA,NA,NA,ACCEPT,NA,NA,NA,NA,NA,batch6pro,batch6pro,23,54,1,Screen 1,continueButton,response_rating_scale_likert_active,1432,NA,NA,Disagree,1,0,1,0,NA,NA,NA,NA,1,statements,Don't trust government,1,17/06/2021 12:49,17/06/2021 12:58,IP Address,For (I feel positively about the vaccines),Rarely,Most weeks,56,Male,NA,"GCSEs,Vocational Training / Apprenticeship",choice,54,2,For,Against
57,1659976084625,08/08/2022 16:28:04,1659976084574,1,08/08/2022 17:28:04,94826,3,task-s8ki,NA,23527582,6895778,NA,complete,NA,62f1389cd6b3258f3ead712a,computer,Desktop or Laptop,Mac OS 10.15.6,Safari 14.0.3,768x1024,1024x665,NA,ITT Ratings,2,for,6,NA,NA,NA,NA,ACCEPT,NA,NA,NA,NA,NA,batch6pro,batch6pro,46,55,1,Screen 1,continueButton,response_rating_scale_likert_active,1704,NA,NA,Strongly Disagree,1,0,1,0,NA,NA,NA,NA,1,statements,I don't believe in the vaccines.,1,17/06/2021 12:49,17/06/2021 12:59,IP Address,For (I feel positively about the vaccines),Most months,A few times a year,45,Male,NA,Vocational Training / Apprenticeship,control,58,1,For,Against
58,1659976087311,08/08/2022 16:28:07,1659976087211,1,08/08/2022 17:28:07,94826,3,task-s8ki,NA,23527582,6895778,NA,complete,NA,62f1389cd6b3258f3ead712a,computer,Desktop or Laptop,Mac OS 10.15.6,Safari 14.0.3,768x1024,1024x665,NA,ITT Ratings,2,for,6,NA,NA,NA,NA,ACCEPT,NA,NA,NA,NA,NA,batch6pro,batch6pro,6,56,1,Screen 1,continueButton,response_rating_scale_likert_active,2607.999999999971,NA,NA,Somewhat Disagree,1,0,1,0,NA,NA,NA,NA,1,statements,everyone else is getting it so i don't need too,1,17/06/2021 12:51,17/06/2021 12:57,IP Address,For (I feel positively about the vaccines),A few times a year,Most months,30,Female,NA,"Undergraduate degree (BSc, BA)",choice,51,3,For,Against
59,1659976091142,08/08/2022 16:28:11,1659976091087,1,08/08/2022 17:28:11,94826,3,task-s8ki,NA,23527582,6895778,NA,complete,NA,62f1389cd6b3258f3ead712a,computer,Desktop or Laptop,Mac OS 10.15.6,Safari 14.0.3,768x1024,1024x665,NA,ITT Ratings,2,for,6,NA,NA,NA,NA,ACCEPT,NA,NA,NA,NA,NA,batch6pro,batch6pro,33,57,1,Screen 1,continueButton,response_rating_scale_likert_active,3846,NA,NA,Agree,1,0,1,0,NA,NA,NA,NA,1,statements,We need to return to pre Covid status and normality and the vaccine will help to acheive that.,1,17/06/2021 12:48,17/06/2021 12:58,IP Address,For (I feel positively about the vaccines),Rarely,Rarely,54,Female,NA,GCSEs,control,55,3,For,For
60,1659976094009,08/08/2022 16:28:14,1659976093951,1,08/08/2022 17:28:13,94826,3,task-s8ki,NA,23527582,6895778,NA,complete,NA,62f1389cd6b3258f3ead712a,computer,Desktop or Laptop,Mac OS 10.15.6,Safari 14.0.3,768x1024,1024x665,NA,ITT Ratings,2,for,6,NA,NA,NA,NA,ACCEPT,NA,NA,NA,NA,NA,batch6pro,batch6pro,21,58,1,Screen 1,continueButton,response_rating_scale_likert_active,2837,NA,NA,Strongly Agree,1,0,1,0,NA,NA,NA,NA,1,statements,It has been our escape route from the lockdown.,1,17/06/2021 12:42,17/06/2021 12:58,IP Address,For (I feel positively about the vaccines),Most weeks,Most months,25,Female,NA,Vocational Training / Apprenticeship,choice,53,3,For,For
61,1659976096205,08/08/2022 16:28:16,1659976096157,1,08/08/2022 17:28:16,94826,3,task-s8ki,NA,23527582,6895778,NA,complete,NA,62f1389cd6b3258f3ead712a,computer,Desktop or Laptop,Mac OS 10.15.6,Safari 14.0.3,768x1024,1024x665,NA,ITT Ratings,2,for,6,NA,NA,NA,NA,ACCEPT,NA,NA,NA,NA,NA,batch6pro,batch6pro,49,59,1,Screen 1,continueButton,response_rating_scale_likert_active,2178.999999999971,NA,NA,Agree,1,0,1,0,NA,NA,NA,NA,1,statements,Prevents me from getting the virus.,1,17/06/2021 12:49,17/06/2021 12:59,IP Address,For (I feel positively about the vaccines),Most months,A few times a year,45,Male,NA,Vocational Training / Apprenticeship,control,58,1,For,For
62,1659976099509,08/08/2022 16:28:19,1659976099427,1,08/08/2022 17:28:19,94826,3,task-s8ki,NA,23527582,6895778,NA,complete,NA,62f1389cd6b3258f3ead712a,computer,Desktop or Laptop,Mac OS 10.15.6,Safari 14.0.3,768x1024,1024x665,NA,ITT Ratings,2,for,6,NA,NA,NA,NA,ACCEPT,NA,NA,NA,NA,NA,batch6pro,batch6pro,15,60,1,Screen 1,continueButton,response_rating_scale_likert_active,3244,NA,NA,Agree,1,0,1,0,NA,NA,NA,NA,1,statements,It will help things return to less restrictive guidelines in a shorter time period,1,17/06/2021 12:51,17/06/2021 12:58,IP Address,For (I feel positively about the vaccines),Most weeks,Most days,33,Male,NA,"Undergraduate degree (BSc, BA)",choice,52,3,For,For
63,1659976101427,08/08/2022 16:28:21,1659976101369,1,08/08/2022 17:28:21,94826,3,task-s8ki,NA,23527582,6895778,NA,complete,NA,62f1389cd6b3258f3ead712a,computer,Desktop or Laptop,Mac OS 10.15.6,Safari 14.0.3,768x1024,1024x665,NA,ITT Ratings,2,for,6,NA,NA,NA,NA,ACCEPT,NA,NA,NA,NA,NA,batch6pro,batch6pro,47,61,1,Screen 1,continueButton,response_rating_scale_likert_active,1914.999999999971,NA,NA,Somewhat Disagree,1,0,1,0,NA,NA,NA,NA,1,statements,Not enough research has gone into the vaccines.,1,17/06/2021 12:49,17/06/2021 12:59,IP Address,For (I feel positively about the vaccines),Most months,A few times a year,45,Male,NA,Vocational Training / Apprenticeship,control,58,2,For,Against
64,1659976104788,08/08/2022 16:28:24,1659976104727,1,08/08/2022 17:28:24,94826,3,task-s8ki,NA,23527582,6895778,NA,complete,NA,62f1389cd6b3258f3ead712a,computer,Desktop or Laptop,Mac OS 10.15.6,Safari 14.0.3,768x1024,1024x665,NA,ITT Ratings,2,for,6,NA,NA,NA,NA,ACCEPT,NA,NA,NA,NA,NA,batch6pro,batch6pro,43,62,1,Screen 1,continueButton,response_rating_scale_likert_active,3334,NA,NA,Agree,1,0,1,0,NA,NA,NA,NA,1,statements,The vaccines are produced following strict guidelines,1,17/06/2021 12:44,17/06/2021 12:58,IP Address,For (I feel positively about the vaccines),A few times a year,Most months,49,Female,NA,"Undergraduate degree (BSc, BA)",control,57,1,For,For
65,1659976104846,08/08/2022 16:28:24,1659976104738,1,08/08/2022 17:28:24,94826,3,task-s8ki,NA,23527582,6895778,NA,complete,NA,62f1389cd6b3258f3ead712a,computer,Desktop or Laptop,Mac OS 10.15.6,Safari 14.0.3,768x1024,1024x665,NA,ITT Ratings,2,for,6,NA,NA,NA,NA,ACCEPT,NA,NA,NA,NA,NA,batch6pro,NA,NA,END TASK,NA,NA,NA,NA,232597,NA,NA,NA,NA,0,1,0,NA,NA,NA,NA,NA,NA,NA,NA,NA,NA,NA,NA,NA,NA,NA,NA,NA,NA,NA,NA,NA,NA,NA
1,1659975920865,08/08/2022 16:25:20,1659975920804,1,08/08/2022 17:25:20,94826,3,task-s8ki,NA,23527602,6895777,NA,complete,NA,62f1387fdfeab54cc9b8175d,computer,Desktop or Laptop,Mac OS 10.15.6,Safari 14.1.2,820x1180,1180x690,NA,ITT Ratings,2,for,6,NA,NA,NA,NA,ACCEPT,NA,NA,NA,NA,NA,batch6pro,NA,NA,BEGIN TASK,NA,NA,NA,NA,NA,NA,NA,NA,NA,0,1,0,NA,NA,NA,NA,NA,NA,NA,NA,NA,NA,NA,NA,NA,NA,NA,NA,NA,NA,NA,NA,NA,NA,NA
2,1659975926166,08/08/2022 16:25:26,1659975926130,1,08/08/2022 17:25:26,94826,3,task-s8ki,NA,23527602,6895777,NA,complete,NA,62f1387fdfeab54cc9b8175d,computer,Desktop or Laptop,Mac OS 10.15.6,Safari 14.1.2,820x1180,1180x690,NA,ITT Ratings,2,for,6,NA,NA,NA,NA,ACCEPT,NA,NA,NA,NA,NA,batch6pro,batch6pro,1,1,1,Screen 1,advancementZone,continue_button,5301.000000000001,NA,NA,NA,NA,0,1,0,NA,NA,NA,NA,NA,instructions,NA,NA,NA,NA,NA,NA,NA,NA,NA,NA,NA,NA,NA,NA,NA,NA,NA
3,1659975933707,08/08/2022 16:25:33,1659975933680,1,08/08/2022 17:25:33,94826,3,task-s8ki,NA,23527602,6895777,NA,complete,NA,62f1387fdfeab54cc9b8175d,computer,Desktop or Laptop,Mac OS 10.15.6,Safari 14.1.2,820x1180,1180x690,NA,ITT Ratings,2,for,6,NA,NA,NA,NA,ACCEPT,NA,NA,NA,NA,NA,batch6pro,batch6pro,52,1,1,Screen 1,continueButton,response_rating_scale_likert_active,7526.999999999999,NA,NA,Somewhat Agree,1,0,1,0,NA,NA,NA,NA,1,statements,I am pregnant or planning a pregnancy,1,17/06/2021 12:55,17/06/2021 12:59,IP Address,For (I feel positively about the vaccines),Most weeks,Most months,41,Female,NA,"Postgraduate degree (MSc, MA, MPhil)",control,59,1,For,Against
4,1659975937729,08/08/2022 16:25:37,1659975937687,1,08/08/2022 17:25:37,94826,3,task-s8ki,NA,23527602,6895777,NA,complete,NA,62f1387fdfeab54cc9b8175d,computer,Desktop or Laptop,Mac OS 10.15.6,Safari 14.1.2,820x1180,1180x690,NA,ITT Ratings,2,for,6,NA,NA,NA,NA,ACCEPT,NA,NA,NA,NA,NA,batch6pro,batch6pro,19,2,1,Screen 1,continueButton,response_rating_scale_likert_active,3980,NA,NA,Disagree,1,0,1,0,NA,NA,NA,NA,1,statements,They started developing it when covid first started.,1,17/06/2021 12:42,17/06/2021 12:58,IP Address,For (I feel positively about the vaccines),Most weeks,Most months,25,Female,NA,Vocational Training / Apprenticeship,choice,53,1,For,For
5,1659975947004,08/08/2022 16:25:47,1659975946979,1,08/08/2022 17:25:46,94826,3,task-s8ki,NA,23527602,6895777,NA,complete,NA,62f1387fdfeab54cc9b8175d,computer,Desktop or Laptop,Mac OS 10.15.6,Safari 14.1.2,820x1180,1180x690,NA,ITT Ratings,2,for,6,NA,NA,NA,NA,ACCEPT,NA,NA,NA,NA,NA,batch6pro,batch6pro,15,3,1,Screen 1,continueButton,response_rating_scale_likert_active,9268.000000000004,NA,NA,Somewhat Agree,1,0,1,0,NA,NA,NA,NA,1,statements,It will help things return to less restrictive guidelines in a shorter time period,1,17/06/2021 12:51,17/06/2021 12:58,IP Address,For (I feel positively about the vaccines),Most weeks,Most days,33,Male,NA,"Undergraduate degree (BSc, BA)",choice,52,3,For,For
6,1659975948895,08/08/2022 16:25:48,1659975948870,1,08/08/2022 17:25:48,94826,3,task-s8ki,NA,23527602,6895777,NA,complete,NA,62f1387fdfeab54cc9b8175d,computer,Desktop or Laptop,Mac OS 10.15.6,Safari 14.1.2,820x1180,1180x690,NA,ITT Ratings,2,for,6,NA,NA,NA,NA,ACCEPT,NA,NA,NA,NA,NA,batch6pro,batch6pro,43,4,1,Screen 1,continueButton,response_rating_scale_likert_active,1866,NA,NA,Agree,1,0,1,0,NA,NA,NA,NA,1,statements,The vaccines are produced following strict guidelines,1,17/06/2021 12:44,17/06/2021 12:58,IP Address,For (I feel positively about the vaccines),A few times a year,Most months,49,Female,NA,"Undergraduate degree (BSc, BA)",control,57,1,For,For
7,1659975954031,08/08/2022 16:25:54,1659975954010,1,08/08/2022 17:25:54,94826,3,task-s8ki,NA,23527602,6895777,NA,complete,NA,62f1387fdfeab54cc9b8175d,computer,Desktop or Laptop,Mac OS 10.15.6,Safari 14.1.2,820x1180,1180x690,NA,ITT Ratings,2,for,6,NA,NA,NA,NA,ACCEPT,NA,NA,NA,NA,NA,batch6pro,batch6pro,42,5,1,Screen 1,continueButton,response_rating_scale_likert_active,5117,NA,NA,Disagree,1,0,1,0,NA,NA,NA,NA,1,statements,They only tackle one variant which means they wont be effective for other variants,1,17/06/2021 12:44,17/06/2021 12:58,IP Address,For (I feel positively about the vaccines),A few times a year,Most months,49,Female,NA,"Undergraduate degree (BSc, BA)",control,57,3,For,Against
8,1659975955826,08/08/2022 16:25:55,1659975955793,1,08/08/2022 17:25:55,94826,3,task-s8ki,NA,23527602,6895777,NA,complete,NA,62f1387fdfeab54cc9b8175d,computer,Desktop or Laptop,Mac OS 10.15.6,Safari 14.1.2,820x1180,1180x690,NA,ITT Ratings,2,for,6,NA,NA,NA,NA,ACCEPT,NA,NA,NA,NA,NA,batch6pro,batch6pro,5,6,1,Screen 1,continueButton,response_rating_scale_likert_active,1760,NA,NA,Strongly Disagree,1,0,1,0,NA,NA,NA,NA,1,statements,covid is all a hoax made up to cull the population as its too big,1,17/06/2021 12:51,17/06/2021 12:57,IP Address,For (I feel positively about the vaccines),A few times a year,Most months,30,Female,NA,"Undergraduate degree (BSc, BA)",choice,51,2,For,Against
9,1659975965486,08/08/2022 16:26:05,1659975965462,1,08/08/2022 17:26:05,94826,3,task-s8ki,NA,23527602,6895777,NA,complete,NA,62f1387fdfeab54cc9b8175d,computer,Desktop or Laptop,Mac OS 10.15.6,Safari 14.1.2,820x1180,1180x690,NA,ITT Ratings,2,for,6,NA,NA,NA,NA,ACCEPT,NA,NA,NA,NA,NA,batch6pro,batch6pro,23,7,1,Screen 1,continueButton,response_rating_scale_likert_active,9645,NA,NA,Somewhat Agree,1,0,1,0,NA,NA,NA,NA,1,statements,Don't trust government,1,17/06/2021 12:49,17/06/2021 12:58,IP Address,For (I feel positively about the vaccines),Rarely,Most weeks,56,Male,NA,"GCSEs,Vocational Training / Apprenticeship",choice,54,2,For,Against
10,1659975967731,08/08/2022 16:26:07,1659975967693,1,08/08/2022 17:26:07,94826,3,task-s8ki,NA,23527602,6895777,NA,complete,NA,62f1387fdfeab54cc9b8175d,computer,Desktop or Laptop,Mac OS 10.15.6,Safari 14.1.2,820x1180,1180x690,NA,ITT Ratings,2,for,6,NA,NA,NA,NA,ACCEPT,NA,NA,NA,NA,NA,batch6pro,batch6pro,13,8,1,Screen 1,continueButton,response_rating_scale_likert_active,2208,NA,NA,Agree,1,0,1,0,NA,NA,NA,NA,1,statements,It reduces the severity of symptoms if i catch covid.,1,17/06/2021 12:51,17/06/2021 12:58,IP Address,For (I feel positively about the vaccines),Most weeks,Most days,33,Male,NA,"Undergraduate degree (BSc, BA)",choice,52,1,For,For
11,1659975979432,08/08/2022 16:26:19,1659975979401,1,08/08/2022 17:26:19,94826,3,task-s8ki,NA,23527602,6895777,NA,complete,NA,62f1387fdfeab54cc9b8175d,computer,Desktop or Laptop,Mac OS 10.15.6,Safari 14.1.2,820x1180,1180x690,NA,ITT Ratings,2,for,6,NA,NA,NA,NA,ACCEPT,NA,NA,NA,NA,NA,batch6pro,batch6pro,54,9,1,Screen 1,continueButton,response_rating_scale_likert_active,11685,NA,NA,Agree,1,0,1,0,NA,NA,NA,NA,1,statements,my own medical conditions,1,17/06/2021 12:55,17/06/2021 12:59,IP Address,For (I feel positively about the vaccines),Most weeks,Most months,41,Female,NA,"Postgraduate degree (MSc, MA, MPhil)",control,59,3,For,Against
12,1659975981779,08/08/2022 16:26:21,1659975981760,1,08/08/2022 17:26:21,94826,3,task-s8ki,NA,23527602,6895777,NA,complete,NA,62f1387fdfeab54cc9b8175d,computer,Desktop or Laptop,Mac OS 10.15.6,Safari 14.1.2,820x1180,1180x690,NA,ITT Ratings,2,for,6,NA,NA,NA,NA,ACCEPT,NA,NA,NA,NA,NA,batch6pro,batch6pro,57,10,1,Screen 1,continueButton,response_rating_scale_likert_active,2338,NA,NA,Agree,1,0,1,0,NA,NA,NA,NA,1,statements,because I want to help get the world back to normal,1,17/06/2021 12:55,17/06/2021 12:59,IP Address,For (I feel positively about the vaccines),Most weeks,Most months,41,Female,NA,"Postgraduate degree (MSc, MA, MPhil)",control,59,3,For,For
13,1659975984828,08/08/2022 16:26:24,1659975984807,1,08/08/2022 17:26:24,94826,3,task-s8ki,NA,23527602,6895777,NA,complete,NA,62f1387fdfeab54cc9b8175d,computer,Desktop or Laptop,Mac OS 10.15.6,Safari 14.1.2,820x1180,1180x690,NA,ITT Ratings,2,for,6,NA,NA,NA,NA,ACCEPT,NA,NA,NA,NA,NA,batch6pro,batch6pro,45,11,1,Screen 1,continueButton,response_rating_scale_likert_active,3026.0000000000073,NA,NA,Agree,1,0,1,0,NA,NA,NA,NA,1,statements,The more people that are vaccinated the more successful we will be of bringing covid under control and get our lives back to normal,1,17/06/2021 12:44,17/06/2021 12:58,IP Address,For (I feel positively about the vaccines),A few times a year,Most months,49,Female,NA,"Undergraduate degree (BSc, BA)",control,57,3,For,For
14,1659975987801,08/08/2022 16:26:27,1659975987775,1,08/08/2022 17:26:27,94826,3,task-s8ki,NA,23527602,6895777,NA,complete,NA,62f1387fdfeab54cc9b8175d,computer,Desktop or Laptop,Mac OS 10.15.6,Safari 14.1.2,820x1180,1180x690,NA,ITT Ratings,2,for,6,NA,NA,NA,NA,ACCEPT,NA,NA,NA,NA,NA,batch6pro,batch6pro,10,12,1,Screen 1,continueButton,response_rating_scale_likert_active,2950.9999999999927,NA,NA,Disagree,1,0,1,0,NA,NA,NA,NA,1,statements,"It affects my DNA, i don't want anything that will change my DNA",1,17/06/2021 12:51,17/06/2021 12:58,IP Address,For (I feel positively about the vaccines),Most weeks,Most days,33,Male,NA,"Undergraduate degree (BSc, BA)",choice,52,1,For,Against
15,1659975991205,08/08/2022 16:26:31,1659975991183,1,08/08/2022 17:26:31,94826,3,task-s8ki,NA,23527602,6895777,NA,complete,NA,62f1387fdfeab54cc9b8175d,computer,Desktop or Laptop,Mac OS 10.15.6,Safari 14.1.2,820x1180,1180x690,NA,ITT Ratings,2,for,6,NA,NA,NA,NA,ACCEPT,NA,NA,NA,NA,NA,batch6pro,batch6pro,44,13,1,Screen 1,continueButton,response_rating_scale_likert_active,3387,NA,NA,Somewhat Agree,1,0,1,0,NA,NA,NA,NA,1,statements,They are effective at protecting against other variants,1,17/06/2021 12:44,17/06/2021 12:58,IP Address,For (I feel positively about the vaccines),A few times a year,Most months,49,Female,NA,"Undergraduate degree (BSc, BA)",control,57,2,For,For
16,1659975994260,08/08/2022 16:26:34,1659975994234,1,08/08/2022 17:26:34,94826,3,task-s8ki,NA,23527602,6895777,NA,complete,NA,62f1387fdfeab54cc9b8175d,computer,Desktop or Laptop,Mac OS 10.15.6,Safari 14.1.2,820x1180,1180x690,NA,ITT Ratings,2,for,6,NA,NA,NA,NA,ACCEPT,NA,NA,NA,NA,NA,batch6pro,batch6pro,11,14,1,Screen 1,continueButton,response_rating_scale_likert_active,3028,NA,NA,Somewhat Disagree,1,0,1,0,NA,NA,NA,NA,1,statements,"It is the government controlling us, we deserve a choice.",1,17/06/2021 12:51,17/06/2021 12:58,IP Address,For (I feel positively about the vaccines),Most weeks,Most days,33,Male,NA,"Undergraduate degree (BSc, BA)",choice,52,2,For,Against
17,1659975996030,08/08/2022 16:26:36,1659975996007,1,08/08/2022 17:26:36,94826,3,task-s8ki,NA,23527602,6895777,NA,complete,NA,62f1387fdfeab54cc9b8175d,computer,Desktop or Laptop,Mac OS 10.15.6,Safari 14.1.2,820x1180,1180x690,NA,ITT Ratings,2,for,6,NA,NA,NA,NA,ACCEPT,NA,NA,NA,NA,NA,batch6pro,batch6pro,40,15,1,Screen 1,continueButton,response_rating_scale_likert_active,1751,NA,NA,Disagree,1,0,1,0,NA,NA,NA,NA,1,statements,it was produced too quickly to be effective,1,17/06/2021 12:44,17/06/2021 12:58,IP Address,For (I feel positively about the vaccines),A few times a year,Most months,49,Female,NA,"Undergraduate degree (BSc, BA)",control,57,1,For,Against
18,1659975999360,08/08/2022 16:26:39,1659975999334,1,08/08/2022 17:26:39,94826,3,task-s8ki,NA,23527602,6895777,NA,complete,NA,62f1387fdfeab54cc9b8175d,computer,Desktop or Laptop,Mac OS 10.15.6,Safari 14.1.2,820x1180,1180x690,NA,ITT Ratings,2,for,6,NA,NA,NA,NA,ACCEPT,NA,NA,NA,NA,NA,batch6pro,batch6pro,27,16,1,Screen 1,continueButton,response_rating_scale_likert_active,3308,NA,NA,Somewhat Agree,1,0,1,0,NA,NA,NA,NA,1,statements,More people vaccinated less chance of mutations in the virus,1,17/06/2021 12:49,17/06/2021 12:58,IP Address,For (I feel positively about the vaccines),Rarely,Most weeks,56,Male,NA,"GCSEs,Vocational Training / Apprenticeship",choice,54,3,For,For
19,1659976002026,08/08/2022 16:26:42,1659976001999,1,08/08/2022 17:26:41,94826,3,task-s8ki,NA,23527602,6895777,NA,complete,NA,62f1387fdfeab54cc9b8175d,computer,Desktop or Laptop,Mac OS 10.15.6,Safari 14.1.2,820x1180,1180x690,NA,ITT Ratings,2,for,6,NA,NA,NA,NA,ACCEPT,NA,NA,NA,NA,NA,batch6pro,batch6pro,41,17,1,Screen 1,continueButton,response_rating_scale_likert_active,2644,NA,NA,Somewhat Disagree,1,0,1,0,NA,NA,NA,NA,1,statements,there are risks of blood clots and other serious side effects that are too risky,1,17/06/2021 12:44,17/06/2021 12:58,IP Address,For (I feel positively about the vaccines),A few times a year,Most months,49,Female,NA,"Undergraduate degree (BSc, BA)",control,57,2,For,Against
20,1659976005037,08/08/2022 16:26:45,1659976004999,1,08/08/2022 17:26:44,94826,3,task-s8ki,NA,23527602,6895777,NA,complete,NA,62f1387fdfeab54cc9b8175d,computer,Desktop or Laptop,Mac OS 10.15.6,Safari 14.1.2,820x1180,1180x690,NA,ITT Ratings,2,for,6,NA,NA,NA,NA,ACCEPT,NA,NA,NA,NA,NA,batch6pro,batch6pro,6,18,1,Screen 1,continueButton,response_rating_scale_likert_active,2977,NA,NA,Strongly Disagree,1,0,1,0,NA,NA,NA,NA,1,statements,everyone else is getting it so i don't need too,1,17/06/2021 12:51,17/06/2021 12:57,IP Address,For (I feel positively about the vaccines),A few times a year,Most months,30,Female,NA,"Undergraduate degree (BSc, BA)",choice,51,3,For,Against
21,1659976025543,08/08/2022 16:27:05,1659976025506,1,08/08/2022 17:27:05,94826,3,task-s8ki,NA,23527602,6895777,NA,complete,NA,62f1387fdfeab54cc9b8175d,computer,Desktop or Laptop,Mac OS 10.15.6,Safari 14.1.2,820x1180,1180x690,NA,ITT Ratings,2,for,6,NA,NA,NA,NA,ACCEPT,NA,NA,NA,NA,NA,batch6pro,batch6pro,46,19,1,Screen 1,continueButton,response_rating_scale_likert_active,20486.000000000015,NA,NA,Disagree,1,0,1,0,NA,NA,NA,NA,1,statements,I don't believe in the vaccines.,1,17/06/2021 12:49,17/06/2021 12:59,IP Address,For (I feel positively about the vaccines),Most months,A few times a year,45,Male,NA,Vocational Training / Apprenticeship,control,58,1,For,Against
22,1659976029266,08/08/2022 16:27:09,1659976029230,1,08/08/2022 17:27:09,94826,3,task-s8ki,NA,23527602,6895777,NA,complete,NA,62f1387fdfeab54cc9b8175d,computer,Desktop or Laptop,Mac OS 10.15.6,Safari 14.1.2,820x1180,1180x690,NA,ITT Ratings,2,for,6,NA,NA,NA,NA,ACCEPT,NA,NA,NA,NA,NA,batch6pro,batch6pro,22,20,1,Screen 1,continueButton,response_rating_scale_likert_active,3704,NA,NA,Neither Agree nor Disagree,1,0,1,0,NA,NA,NA,NA,1,statements,Scared of blood clotting,1,17/06/2021 12:49,17/06/2021 12:58,IP Address,For (I feel positively about the vaccines),Rarely,Most weeks,56,Male,NA,"GCSEs,Vocational Training / Apprenticeship",choice,54,1,For,Against
