Event.Index,UTC.Timestamp,UTC.Date,Local.Timestamp,Local.Timezone,Local.Date,Experiment.ID,Experiment.Version,Tree.Node.Key,Repeat.Key,Schedule.ID,Participant.Private.ID,Participant.Starting.Group,Participant.Status,Participant.Completion.Code,Participant.External.Session.ID,Participant.Device.Type,Participant.Device,Participant.OS,Participant.Browser,Participant.Monitor.Size,Participant.Viewport.Size,Checkpoint,Task.Name,Task.Version,branch.69an,randomiser.8vg2,quota.bqtt,quota.rycs,quota.wtfi,quota.usve,quota.zgic,quota.f3yz,quota.r9vy,quota.tfqq,quota.3dga,quota.dtj6,Spreadsheet,Spreadsheet.Name,Spreadsheet.Row,Trial.Number,Screen.Number,Screen.Name,Zone.Name,Zone.Type,Reaction.Time,Reaction.Onset,Response.Type,Response,Attempt,Correct,Incorrect,Dishonest,X.Coordinate,Y.Coordinate,Timed.Out,randomise_blocks,randomise_trials,display,Arguments,ShowProgressBar,StartDate,EndDate,Status,prolif_check,discuss_1,read_1,age,gender,gender_4_TEXT,edu,condition,ID,arg_ID,Position,Arg_Position
1,1660063795442,09/08/2022 16:49:55,1660063795703,1,09/08/2022 17:49:55,94826,4,task-ig1e,NA,23543932,6899837,NA,complete,NA,62f28fb6ed34b8a3055e180f,computer,Desktop or Laptop,Windows 10,Chrome 104.0.0.0,1920x1080,1920x969,NA,ITT Ratings,2,for,3,NA,ACCEPT,NA,NA,NA,NA,NA,NA,NA,NA,batch3pro,NA,NA,BEGIN TASK,NA,NA,NA,NA,NA,NA,NA,NA,NA,0,1,0,NA,NA,NA,NA,NA,NA,NA,NA,NA,NA,NA,NA,NA,NA,NA,NA,NA,NA,NA,NA,NA,NA,NA
2,1660063806324,09/08/2022 16:50:06,1660063806657,1,09/08/2022 17:50:06,94826,4,task-ig1e,NA,23543932,6899837,NA,complete,NA,62f28fb6ed34b8a3055e180f,computer,Desktop or Laptop,Windows 10,Chrome 104.0.0.0,1920x1080,1920x969,NA,ITT Ratings,2,for,3,NA,ACCEPT,NA,NA,NA,NA,NA,NA,NA,NA,batch3pro,batch3pro,1,1,1,Screen 1,advancementZone,continue_button,10923.30000001192,NA,NA,NA,NA,0,1,0,NA,NA,NA,NA,NA,instructions,NA,NA,NA,NA,NA,NA,NA,NA,NA,NA,NA,NA,NA,NA,NA,NA,NA
3,1660063821821,09/08/2022 16:50:21,1660063822175,1,09/08/2022 17:50:22,94826,4,task-ig1e,NA,23543932,6899837,NA,complete,NA,62f28fb6ed34b8a3055e180f,computer,Desktop or Laptop,Windows 10,Chrome 104.0.0.0,1920x1080,1920x969,NA,ITT Ratings,2,for,3,NA,ACCEPT,NA,NA,NA,NA,NA,NA,NA,NA,batch3pro,batch3pro,46,1,1,Screen 1,continueButton,response_rating_scale_likert_active,15503.80000001192,NA,NA,Disagree,1,0,1,0,NA,NA,NA,NA,1,statements,The vaccine has been developed too quickly and has not been properly tested over a long period of time.,1,17/06/2021 12:28,17/06/2021 12:51,IP Address,For (I feel positively about the vaccines),Rarely,Most weeks,41,Male,NA,Doctorate (PhD),control,28,1,For,Against
4,1660063860946,09/08/2022 16:51:00,1660063861283,1,09/08/2022 17:51:01,94826,4,task-ig1e,NA,23543932,6899837,NA,complete,NA,62f28fb6ed34b8a3055e180f,computer,Desktop or Laptop,Windows 10,Chrome 104.0.0.0,1920x1080,1920x969,NA,ITT Ratings,2,for,3,NA,ACCEPT,NA,NA,NA,NA,NA,NA,NA,NA,batch3pro,batch3pro,32,2,1,Screen 1,continueButton,response_rating_scale_likert_active,39099.10000000894,NA,NA,Neither Agree nor Disagree,1,0,1,0,NA,NA,NA,NA,1,statements,To try to help go back to a normal way of life,1,17/06/2021 12:27,17/06/2021 12:49,IP Address,For (I feel positively about the vaccines),Rarely,Most weeks,22,Male,NA,"GCSEs,Vocational Training / Apprenticeship",choice,25,2,For,For
5,1660063869357,09/08/2022 16:51:09,1660063869713,1,09/08/2022 17:51:09,94826,4,task-ig1e,NA,23543932,6899837,NA,complete,NA,62f28fb6ed34b8a3055e180f,computer,Desktop or Laptop,Windows 10,Chrome 104.0.0.0,1920x1080,1920x969,NA,ITT Ratings,2,for,3,NA,ACCEPT,NA,NA,NA,NA,NA,NA,NA,NA,batch3pro,batch3pro,19,3,1,Screen 1,continueButton,response_rating_scale_likert_active,8421.5,NA,NA,Strongly Agree,1,0,1,0,NA,NA,NA,NA,1,statements,I believe the vaccine will provide the best protection against Covid-19 for myself and my families/friends.,1,17/06/2021 12:31,17/06/2021 12:47,IP Address,For (I feel positively about the vaccines),Rarely,Most weeks,36,Male,NA,"Undergraduate degree (BSc, BA)",control,23,1,For,For
6,1660063873007,09/08/2022 16:51:13,1660063873349,1,09/08/2022 17:51:13,94826,4,task-ig1e,NA,23543932,6899837,NA,complete,NA,62f28fb6ed34b8a3055e180f,computer,Desktop or Laptop,Windows 10,Chrome 104.0.0.0,1920x1080,1920x969,NA,ITT Ratings,2,for,3,NA,ACCEPT,NA,NA,NA,NA,NA,NA,NA,NA,batch3pro,batch3pro,31,4,1,Screen 1,continueButton,response_rating_scale_likert_active,3628.29999999702,NA,NA,Strongly Agree,1,0,1,0,NA,NA,NA,NA,1,statements,"To keep myself, friends and families safe",1,17/06/2021 12:27,17/06/2021 12:49,IP Address,For (I feel positively about the vaccines),Rarely,Most weeks,22,Male,NA,"GCSEs,Vocational Training / Apprenticeship",choice,25,1,For,For
7,1660063893089,09/08/2022 16:51:33,1660063893416,1,09/08/2022 17:51:33,94826,4,task-ig1e,NA,23543932,6899837,NA,complete,NA,62f28fb6ed34b8a3055e180f,computer,Desktop or Laptop,Windows 10,Chrome 104.0.0.0,1920x1080,1920x969,NA,ITT Ratings,2,for,3,NA,ACCEPT,NA,NA,NA,NA,NA,NA,NA,NA,batch3pro,batch3pro,47,5,1,Screen 1,continueButton,response_rating_scale_likert_active,20060.30000001192,NA,NA,Strongly Disagree,1,0,1,0,NA,NA,NA,NA,1,statements,There are other ways to mitigate the impact of the disease and vaccination isn't necessary,1,17/06/2021 12:28,17/06/2021 12:51,IP Address,For (I feel positively about the vaccines),Rarely,Most weeks,41,Male,NA,Doctorate (PhD),control,28,2,For,Against
8,1660063912343,09/08/2022 16:51:52,1660063912631,1,09/08/2022 17:51:52,94826,4,task-ig1e,NA,23543932,6899837,NA,complete,NA,62f28fb6ed34b8a3055e180f,computer,Desktop or Laptop,Windows 10,Chrome 104.0.0.0,1920x1080,1920x969,NA,ITT Ratings,2,for,3,NA,ACCEPT,NA,NA,NA,NA,NA,NA,NA,NA,batch3pro,batch3pro,28,6,1,Screen 1,continueButton,response_rating_scale_likert_active,19206.79999999702,NA,NA,Somewhat Disagree,1,0,1,0,NA,NA,NA,NA,1,statements,It can cause long term damage like blood clots,1,17/06/2021 12:27,17/06/2021 12:49,IP Address,For (I feel positively about the vaccines),Rarely,Most weeks,22,Male,NA,"GCSEs,Vocational Training / Apprenticeship",choice,25,1,For,Against
9,1660063919930,09/08/2022 16:51:59,1660063920251,1,09/08/2022 17:52:00,94826,4,task-ig1e,NA,23543932,6899837,NA,complete,NA,62f28fb6ed34b8a3055e180f,computer,Desktop or Laptop,Windows 10,Chrome 104.0.0.0,1920x1080,1920x969,NA,ITT Ratings,2,for,3,NA,ACCEPT,NA,NA,NA,NA,NA,NA,NA,NA,batch3pro,batch3pro,30,7,1,Screen 1,continueButton,response_rating_scale_likert_active,7612.90000000596,NA,NA,Disagree,1,0,1,0,NA,NA,NA,NA,1,statements,"They were rushed, it usually takes year for vaccines to be developed safely",1,17/06/2021 12:27,17/06/2021 12:49,IP Address,For (I feel positively about the vaccines),Rarely,Most weeks,22,Male,NA,"GCSEs,Vocational Training / Apprenticeship",choice,25,3,For,Against
10,1660063951962,09/08/2022 16:52:31,1660063952301,1,09/08/2022 17:52:32,94826,4,task-ig1e,NA,23543932,6899837,NA,complete,NA,62f28fb6ed34b8a3055e180f,computer,Desktop or Laptop,Windows 10,Chrome 104.0.0.0,1920x1080,1920x969,NA,ITT Ratings,2,for,3,NA,ACCEPT,NA,NA,NA,NA,NA,NA,NA,NA,batch3pro,batch3pro,5,8,1,Screen 1,continueButton,response_rating_scale_likert_active,32043.59999999404,NA,NA,Somewhat Agree,1,0,1,0,NA,NA,NA,NA,1,statements,I am concerned about side effects and other health risks that might develop from having the vaccine,1,17/06/2021 12:39,17/06/2021 12:46,IP Address,For (I feel positively about the vaccines),Most months,Rarely,34,Female,NA,"Undergraduate degree (BSc, BA)",control,21,2,For,Against
11,1660063958588,09/08/2022 16:52:38,1660063958937,1,09/08/2022 17:52:38,94826,4,task-ig1e,NA,23543932,6899837,NA,complete,NA,62f28fb6ed34b8a3055e180f,computer,Desktop or Laptop,Windows 10,Chrome 104.0.0.0,1920x1080,1920x969,NA,ITT Ratings,2,for,3,NA,ACCEPT,NA,NA,NA,NA,NA,NA,NA,NA,batch3pro,batch3pro,20,9,1,Screen 1,continueButton,response_rating_scale_likert_active,6628.100000008941,NA,NA,Strongly Agree,1,0,1,0,NA,NA,NA,NA,1,statements,I feel it is my duty to ensure I am vaccinated as part of halting ongoing transmission.,1,17/06/2021 12:31,17/06/2021 12:47,IP Address,For (I feel positively about the vaccines),Rarely,Most weeks,36,Male,NA,"Undergraduate degree (BSc, BA)",control,23,2,For,For
12,1660063962930,09/08/2022 16:52:42,1660063963196,1,09/08/2022 17:52:43,94826,4,task-ig1e,NA,23543932,6899837,NA,complete,NA,62f28fb6ed34b8a3055e180f,computer,Desktop or Laptop,Windows 10,Chrome 104.0.0.0,1920x1080,1920x969,NA,ITT Ratings,2,for,3,NA,ACCEPT,NA,NA,NA,NA,NA,NA,NA,NA,batch3pro,batch3pro,40,10,1,Screen 1,continueButton,response_rating_scale_likert_active,4251.9000000059605,NA,NA,Strongly Disagree,1,0,1,0,NA,NA,NA,NA,1,statements,I don't believe in the vaccine.,1,17/06/2021 12:43,17/06/2021 12:51,IP Address,For (I feel positively about the vaccines),Rarely,Rarely,32,Female,NA,"Postgraduate degree (MSc, MA, MPhil)",choice,27,1,For,Against
13,1660063987701,09/08/2022 16:53:07,1660063988047,1,09/08/2022 17:53:08,94826,4,task-ig1e,NA,23543932,6899837,NA,complete,NA,62f28fb6ed34b8a3055e180f,computer,Desktop or Laptop,Windows 10,Chrome 104.0.0.0,1920x1080,1920x969,NA,ITT Ratings,2,for,3,NA,ACCEPT,NA,NA,NA,NA,NA,NA,NA,NA,batch3pro,batch3pro,34,11,1,Screen 1,continueButton,response_rating_scale_likert_active,24844.30000001192,NA,NA,Neither Agree nor Disagree,1,0,1,0,NA,NA,NA,NA,1,statements,Chemicals are dangerous as not everyone understands the science,1,17/06/2021 12:44,17/06/2021 12:49,IP Address,For (I feel positively about the vaccines),A few times a year,Most weeks,29,Male,NA,"Undergraduate degree (BSc, BA)",control,26,1,For,Against
14,1660063994364,09/08/2022 16:53:14,1660063994714,1,09/08/2022 17:53:14,94826,4,task-ig1e,NA,23543932,6899837,NA,complete,NA,62f28fb6ed34b8a3055e180f,computer,Desktop or Laptop,Windows 10,Chrome 104.0.0.0,1920x1080,1920x969,NA,ITT Ratings,2,for,3,NA,ACCEPT,NA,NA,NA,NA,NA,NA,NA,NA,batch3pro,batch3pro,11,12,1,Screen 1,continueButton,response_rating_scale_likert_active,6658.5999999940395,NA,NA,Somewhat Disagree,1,0,1,0,NA,NA,NA,NA,1,statements,Developed in a short timeframe,1,17/06/2021 12:40,17/06/2021 12:47,IP Address,For (I feel positively about the vaccines),Rarely,A few times a year,20,Female,NA,A levels,control,22,2,For,Against
15,1660064002492,09/08/2022 16:53:22,1660064002844,1,09/08/2022 17:53:22,94826,4,task-ig1e,NA,23543932,6899837,NA,complete,NA,62f28fb6ed34b8a3055e180f,computer,Desktop or Laptop,Windows 10,Chrome 104.0.0.0,1920x1080,1920x969,NA,ITT Ratings,2,for,3,NA,ACCEPT,NA,NA,NA,NA,NA,NA,NA,NA,batch3pro,batch3pro,24,13,1,Screen 1,continueButton,response_rating_scale_likert_active,8123.70000000298,NA,NA,Strongly Disagree,1,0,1,0,NA,NA,NA,NA,1,statements,I do not trust the companies making the vaccines.,1,17/06/2021 12:39,17/06/2021 12:47,IP Address,For (I feel positively about the vaccines),Rarely,A few times a year,22,Male,NA,"Undergraduate degree (BSc, BA)",choice,24,3,For,Against
16,1660064012500,09/08/2022 16:53:32,1660064012838,1,09/08/2022 17:53:32,94826,4,task-ig1e,NA,23543932,6899837,NA,complete,NA,62f28fb6ed34b8a3055e180f,computer,Desktop or Laptop,Windows 10,Chrome 104.0.0.0,1920x1080,1920x969,NA,ITT Ratings,2,for,3,NA,ACCEPT,NA,NA,NA,NA,NA,NA,NA,NA,batch3pro,batch3pro,8,14,1,Screen 1,continueButton,response_rating_scale_likert_active,9987.5,NA,NA,Strongly Agree,1,0,1,0,NA,NA,NA,NA,1,statements,I trust the experts who have developed the vaccine,1,17/06/2021 12:39,17/06/2021 12:46,IP Address,For (I feel positively about the vaccines),Most months,Rarely,34,Female,NA,"Undergraduate degree (BSc, BA)",control,21,2,For,For
17,1660064015255,09/08/2022 16:53:35,1660064015610,1,09/08/2022 17:53:35,94826,4,task-ig1e,NA,23543932,6899837,NA,complete,NA,62f28fb6ed34b8a3055e180f,computer,Desktop or Laptop,Windows 10,Chrome 104.0.0.0,1920x1080,1920x969,NA,ITT Ratings,2,for,3,NA,ACCEPT,NA,NA,NA,NA,NA,NA,NA,NA,batch3pro,batch3pro,13,15,1,Screen 1,continueButton,response_rating_scale_likert_active,2764.300000011921,NA,NA,Strongly Agree,1,0,1,0,NA,NA,NA,NA,1,statements,Reduce the likelihood of me getting the virus,1,17/06/2021 12:40,17/06/2021 12:47,IP Address,For (I feel positively about the vaccines),Rarely,A few times a year,20,Female,NA,A levels,control,22,1,For,For
18,1660064021766,09/08/2022 16:53:41,1660064021885,1,09/08/2022 17:53:41,94826,4,task-ig1e,NA,23543932,6899837,NA,complete,NA,62f28fb6ed34b8a3055e180f,computer,Desktop or Laptop,Windows 10,Chrome 104.0.0.0,1920x1080,1920x969,NA,ITT Ratings,2,for,3,NA,ACCEPT,NA,NA,NA,NA,NA,NA,NA,NA,batch3pro,batch3pro,54,16,1,Screen 1,continueButton,response_rating_scale_likert_active,6268.20000000298,NA,NA,Strongly Disagree,1,0,1,0,NA,NA,NA,NA,1,statements,I'm a moron and think Bill Gates wants to put a microchip in me,1,17/06/2021 12:41,17/06/2021 12:51,IP Address,For (I feel positively about the vaccines),Rarely,Once or twice a year,32,Male,NA,"Undergraduate degree (BSc, BA)",control,29,3,For,Against
19,1660064028877,09/08/2022 16:53:48,1660064029228,1,09/08/2022 17:53:49,94826,4,task-ig1e,NA,23543932,6899837,NA,complete,NA,62f28fb6ed34b8a3055e180f,computer,Desktop or Laptop,Windows 10,Chrome 104.0.0.0,1920x1080,1920x969,NA,ITT Ratings,2,for,3,NA,ACCEPT,NA,NA,NA,NA,NA,NA,NA,NA,batch3pro,batch3pro,63,17,1,Screen 1,continueButton,response_rating_scale_likert_active,7337,NA,NA,Agree,1,0,1,0,NA,NA,NA,NA,1,statements,The vaccine will also help prevent any long term serious effects from contracting covid.,1,17/06/2021 12:32,17/06/2021 12:52,IP Address,For (I feel positively about the vaccines),Never,Most weeks,21,Female,NA,A levels,control,30,3,For,For
20,1660064040797,09/08/2022 16:54:00,1660064041155,1,09/08/2022 17:54:01,94826,4,task-ig1e,NA,23543932,6899837,NA,complete,NA,62f28fb6ed34b8a3055e180f,computer,Desktop or Laptop,Windows 10,Chrome 104.0.0.0,1920x1080,1920x969,NA,ITT Ratings,2,for,3,NA,ACCEPT,NA,NA,NA,NA,NA,NA,NA,NA,batch3pro,batch3pro,29,18,1,Screen 1,continueButton,response_rating_scale_likert_active,11920.5,NA,NA,Strongly Disagree,1,0,1,0,NA,NA,NA,NA,1,statements,They are unsafe because I watch the news,1,17/06/2021 12:27,17/06/2021 12:49,IP Address,For (I feel positively about the vaccines),Rarely,Most weeks,22,Male,NA,"GCSEs,Vocational Training / Apprenticeship",choice,25,2,For,Against
21,1660064047291,09/08/2022 16:54:07,1660064047599,1,09/08/2022 17:54:07,94826,4,task-ig1e,NA,23543932,6899837,NA,complete,NA,62f28fb6ed34b8a3055e180f,computer,Desktop or Laptop,Windows 10,Chrome 104.0.0.0,1920x1080,1920x969,NA,ITT Ratings,2,for,3,NA,ACCEPT,NA,NA,NA,NA,NA,NA,NA,NA,batch3pro,batch3pro,23,19,1,Screen 1,continueButton,response_rating_scale_likert_active,6437.100000008941,NA,NA,Strongly Disagree,1,0,1,0,NA,NA,NA,NA,1,statements,"I am young and so covid does not pose much risk to me, so I don't care about getting a vaccine.",1,17/06/2021 12:39,17/06/2021 12:47,IP Address,For (I feel positively about the vaccines),Rarely,A few times a year,22,Male,NA,"Undergraduate degree (BSc, BA)",choice,24,2,For,Against
22,1660064050246,09/08/2022 16:54:10,1660064050599,1,09/08/2022 17:54:10,94826,4,task-ig1e,NA,23543932,6899837,NA,complete,NA,62f28fb6ed34b8a3055e180f,computer,Desktop or Laptop,Windows 10,Chrome 104.0.0.0,1920x1080,1920x969,NA,ITT Ratings,2,for,3,NA,ACCEPT,NA,NA,NA,NA,NA,NA,NA,NA,batch3pro,batch3pro,42,20,1,Screen 1,continueButton,response_rating_scale_likert_active,2993.1000000089407,NA,NA,Disagree,1,0,1,0,NA,NA,NA,NA,1,statements,The vaccine has been rushed.,1,17/06/2021 12:43,17/06/2021 12:51,IP Address,For (I feel positively about the vaccines),Rarely,Rarely,32,Female,NA,"Postgraduate degree (MSc, MA, MPhil)",choice,27,3,For,Against
23,1660064054280,09/08/2022 16:54:14,1660064054640,1,09/08/2022 17:54:14,94826,4,task-ig1e,NA,23543932,6899837,NA,complete,NA,62f28fb6ed34b8a3055e180f,computer,Desktop or Laptop,Windows 10,Chrome 104.0.0.0,1920x1080,1920x969,NA,ITT Ratings,2,for,3,NA,ACCEPT,NA,NA,NA,NA,NA,NA,NA,NA,batch3pro,batch3pro,56,21,1,Screen 1,continueButton,response_rating_scale_likert_active,4033.79999999702,NA,NA,Strongly Agree,1,0,1,0,NA,NA,NA,NA,1,statements,"I want to protect others from COVID-19, especially those who can't receive a vaccine",1,17/06/2021 12:41,17/06/2021 12:51,IP Address,For (I feel positively about the vaccines),Rarely,Once or twice a year,32,Male,NA,"Undergraduate degree (BSc, BA)",control,29,2,For,For
24,1660064062597,09/08/2022 16:54:22,1660064062962,1,09/08/2022 17:54:22,94826,4,task-ig1e,NA,23543932,6899837,NA,complete,NA,62f28fb6ed34b8a3055e180f,computer,Desktop or Laptop,Windows 10,Chrome 104.0.0.0,1920x1080,1920x969,NA,ITT Ratings,2,for,3,NA,ACCEPT,NA,NA,NA,NA,NA,NA,NA,NA,batch3pro,batch3pro,15,22,1,Screen 1,continueButton,response_rating_scale_likert_active,8315.79999999702,NA,NA,Strongly Agree,1,0,1,0,NA,NA,NA,NA,1,statements,Effective enough to stop the pandemic,1,17/06/2021 12:40,17/06/2021 12:47,IP Address,For (I feel positively about the vaccines),Rarely,A few times a year,20,Female,NA,A levels,control,22,3,For,For
25,1660064071571,09/08/2022 16:54:31,1660064071845,1,09/08/2022 17:54:31,94826,4,task-ig1e,NA,23543932,6899837,NA,complete,NA,62f28fb6ed34b8a3055e180f,computer,Desktop or Laptop,Windows 10,Chrome 104.0.0.0,1920x1080,1920x969,NA,ITT Ratings,2,for,3,NA,ACCEPT,NA,NA,NA,NA,NA,NA,NA,NA,batch3pro,batch3pro,45,23,1,Screen 1,continueButton,response_rating_scale_likert_active,8876.29999999702,NA,NA,Agree,1,0,1,0,NA,NA,NA,NA,1,statements,It will stop Covid spreading and create herd immunity.,1,17/06/2021 12:43,17/06/2021 12:51,IP Address,For (I feel positively about the vaccines),Rarely,Rarely,32,Female,NA,"Postgraduate degree (MSc, MA, MPhil)",choice,27,3,For,For
26,1660064079381,09/08/2022 16:54:39,1660064079745,1,09/08/2022 17:54:39,94826,4,task-ig1e,NA,23543932,6899837,NA,complete,NA,62f28fb6ed34b8a3055e180f,computer,Desktop or Laptop,Windows 10,Chrome 104.0.0.0,1920x1080,1920x969,NA,ITT Ratings,2,for,3,NA,ACCEPT,NA,NA,NA,NA,NA,NA,NA,NA,batch3pro,batch3pro,17,24,1,Screen 1,continueButton,response_rating_scale_likert_active,7892.600000008941,NA,NA,Somewhat Agree,1,0,1,0,NA,NA,NA,NA,1,statements,The vaccines haven't been in general circulation long enough to fully understand any longer term health implications.,1,17/06/2021 12:31,17/06/2021 12:47,IP Address,For (I feel positively about the vaccines),Rarely,Most weeks,36,Male,NA,"Undergraduate degree (BSc, BA)",control,23,2,For,Against
27,1660064082766,09/08/2022 16:54:42,1660064083129,1,09/08/2022 17:54:43,94826,4,task-ig1e,NA,23543932,6899837,NA,complete,NA,62f28fb6ed34b8a3055e180f,computer,Desktop or Laptop,Windows 10,Chrome 104.0.0.0,1920x1080,1920x969,NA,ITT Ratings,2,for,3,NA,ACCEPT,NA,NA,NA,NA,NA,NA,NA,NA,batch3pro,batch3pro,44,25,1,Screen 1,continueButton,response_rating_scale_likert_active,3377.0999999940395,NA,NA,Strongly Agree,1,0,1,0,NA,NA,NA,NA,1,statements,We're lucky to be in a position to have a vaccine.,1,17/06/2021 12:43,17/06/2021 12:51,IP Address,For (I feel positively about the vaccines),Rarely,Rarely,32,Female,NA,"Postgraduate degree (MSc, MA, MPhil)",choice,27,2,For,For
28,1660064086963,09/08/2022 16:54:46,1660064087257,1,09/08/2022 17:54:47,94826,4,task-ig1e,NA,23543932,6899837,NA,complete,NA,62f28fb6ed34b8a3055e180f,computer,Desktop or Laptop,Windows 10,Chrome 104.0.0.0,1920x1080,1920x969,NA,ITT Ratings,2,for,3,NA,ACCEPT,NA,NA,NA,NA,NA,NA,NA,NA,batch3pro,batch3pro,53,26,1,Screen 1,continueButton,response_rating_scale_likert_active,4121.70000000298,NA,NA,Agree,1,0,1,0,NA,NA,NA,NA,1,statements,Scared of needles/injections,1,17/06/2021 12:41,17/06/2021 12:51,IP Address,For (I feel positively about the vaccines),Rarely,Once or twice a year,32,Male,NA,"Undergraduate degree (BSc, BA)",control,29,2,For,Against
29,1660064091232,09/08/2022 16:54:51,1660064091595,1,09/08/2022 17:54:51,94826,4,task-ig1e,NA,23543932,6899837,NA,complete,NA,62f28fb6ed34b8a3055e180f,computer,Desktop or Laptop,Windows 10,Chrome 104.0.0.0,1920x1080,1920x969,NA,ITT Ratings,2,for,3,NA,ACCEPT,NA,NA,NA,NA,NA,NA,NA,NA,batch3pro,batch3pro,6,27,1,Screen 1,continueButton,response_rating_scale_likert_active,4332,NA,NA,Strongly Disagree,1,0,1,0,NA,NA,NA,NA,1,statements,I don't believe the vaccine will work,1,17/06/2021 12:39,17/06/2021 12:46,IP Address,For (I feel positively about the vaccines),Most months,Rarely,34,Female,NA,"Undergraduate degree (BSc, BA)",control,21,3,For,Against
30,1660064097610,09/08/2022 16:54:57,1660064097969,1,09/08/2022 17:54:57,94826,4,task-ig1e,NA,23543932,6899837,NA,complete,NA,62f28fb6ed34b8a3055e180f,computer,Desktop or Laptop,Windows 10,Chrome 104.0.0.0,1920x1080,1920x969,NA,ITT Ratings,2,for,3,NA,ACCEPT,NA,NA,NA,NA,NA,NA,NA,NA,batch3pro,batch3pro,4,28,1,Screen 1,continueButton,response_rating_scale_likert_active,6367.800000011921,NA,NA,Disagree,1,0,1,0,NA,NA,NA,NA,1,statements,"The vaccine has been rushed, normally it would take years to develop a vaccine",1,17/06/2021 12:39,17/06/2021 12:46,IP Address,For (I feel positively about the vaccines),Most months,Rarely,34,Female,NA,"Undergraduate degree (BSc, BA)",control,21,1,For,Against
31,1660064108141,09/08/2022 16:55:08,1660064108502,1,09/08/2022 17:55:08,94826,4,task-ig1e,NA,23543932,6899837,NA,complete,NA,62f28fb6ed34b8a3055e180f,computer,Desktop or Laptop,Windows 10,Chrome 104.0.0.0,1920x1080,1920x969,NA,ITT Ratings,2,for,3,NA,ACCEPT,NA,NA,NA,NA,NA,NA,NA,NA,batch3pro,batch3pro,36,29,1,Screen 1,continueButton,response_rating_scale_likert_active,10526.09999999404,NA,NA,Disagree,1,0,1,0,NA,NA,NA,NA,1,statements,After effects the dangers for reaciton,1,17/06/2021 12:44,17/06/2021 12:49,IP Address,For (I feel positively about the vaccines),A few times a year,Most weeks,29,Male,NA,"Undergraduate degree (BSc, BA)",control,26,3,For,Against
32,1660064114577,09/08/2022 16:55:14,1660064114944,1,09/08/2022 17:55:14,94826,4,task-ig1e,NA,23543932,6899837,NA,complete,NA,62f28fb6ed34b8a3055e180f,computer,Desktop or Laptop,Windows 10,Chrome 104.0.0.0,1920x1080,1920x969,NA,ITT Ratings,2,for,3,NA,ACCEPT,NA,NA,NA,NA,NA,NA,NA,NA,batch3pro,batch3pro,49,30,1,Screen 1,continueButton,response_rating_scale_likert_active,6434.79999999702,NA,NA,Strongly Agree,1,0,1,0,NA,NA,NA,NA,1,statements,It protects me and other people as well so is our social duty to have one,1,17/06/2021 12:28,17/06/2021 12:51,IP Address,For (I feel positively about the vaccines),Rarely,Most weeks,41,Male,NA,Doctorate (PhD),control,28,1,For,For
33,1660064118359,09/08/2022 16:55:18,1660064118724,1,09/08/2022 17:55:18,94826,4,task-ig1e,NA,23543932,6899837,NA,complete,NA,62f28fb6ed34b8a3055e180f,computer,Desktop or Laptop,Windows 10,Chrome 104.0.0.0,1920x1080,1920x969,NA,ITT Ratings,2,for,3,NA,ACCEPT,NA,NA,NA,NA,NA,NA,NA,NA,batch3pro,batch3pro,22,31,1,Screen 1,continueButton,response_rating_scale_likert_active,3774.8999999910593,NA,NA,Strongly Disagree,1,0,1,0,NA,NA,NA,NA,1,statements,I do not think the vaccines are safe.,1,17/06/2021 12:39,17/06/2021 12:47,IP Address,For (I feel positively about the vaccines),Rarely,A few times a year,22,Male,NA,"Undergraduate degree (BSc, BA)",choice,24,1,For,Against
34,1660064122313,09/08/2022 16:55:22,1660064122663,1,09/08/2022 17:55:22,94826,4,task-ig1e,NA,23543932,6899837,NA,complete,NA,62f28fb6ed34b8a3055e180f,computer,Desktop or Laptop,Windows 10,Chrome 104.0.0.0,1920x1080,1920x969,NA,ITT Ratings,2,for,3,NA,ACCEPT,NA,NA,NA,NA,NA,NA,NA,NA,batch3pro,batch3pro,62,32,1,Screen 1,continueButton,response_rating_scale_likert_active,3931.6000000089407,NA,NA,Strongly Agree,1,0,1,0,NA,NA,NA,NA,1,statements,The scientific evidence proves the vaccine is successful.,1,17/06/2021 12:32,17/06/2021 12:52,IP Address,For (I feel positively about the vaccines),Never,Most weeks,21,Female,NA,A levels,control,30,2,For,For
35,1660064130435,09/08/2022 16:55:30,1660064130788,1,09/08/2022 17:55:30,94826,4,task-ig1e,NA,23543932,6899837,NA,complete,NA,62f28fb6ed34b8a3055e180f,computer,Desktop or Laptop,Windows 10,Chrome 104.0.0.0,1920x1080,1920x969,NA,ITT Ratings,2,for,3,NA,ACCEPT,NA,NA,NA,NA,NA,NA,NA,NA,batch3pro,batch3pro,52,33,1,Screen 1,continueButton,response_rating_scale_likert_active,8118.100000008941,NA,NA,Neither Agree nor Disagree,1,0,1,0,NA,NA,NA,NA,1,statements,Worry about side effects,1,17/06/2021 12:41,17/06/2021 12:51,IP Address,For (I feel positively about the vaccines),Rarely,Once or twice a year,32,Male,NA,"Undergraduate degree (BSc, BA)",control,29,1,For,Against
36,1660064132312,09/08/2022 16:55:32,1660064132682,1,09/08/2022 17:55:32,94826,4,task-ig1e,NA,23543932,6899837,NA,complete,NA,62f28fb6ed34b8a3055e180f,computer,Desktop or Laptop,Windows 10,Chrome 104.0.0.0,1920x1080,1920x969,NA,ITT Ratings,2,for,3,NA,ACCEPT,NA,NA,NA,NA,NA,NA,NA,NA,batch3pro,batch3pro,55,34,1,Screen 1,continueButton,response_rating_scale_likert_active,1888.20000000298,NA,NA,Strongly Agree,1,0,1,0,NA,NA,NA,NA,1,statements,I want to protect myself from COVID-19,1,17/06/2021 12:41,17/06/2021 12:51,IP Address,For (I feel positively about the vaccines),Rarely,Once or twice a year,32,Male,NA,"Undergraduate degree (BSc, BA)",control,29,1,For,For
37,1660064136271,09/08/2022 16:55:36,1660064136603,1,09/08/2022 17:55:36,94826,4,task-ig1e,NA,23543932,6899837,NA,complete,NA,62f28fb6ed34b8a3055e180f,computer,Desktop or Laptop,Windows 10,Chrome 104.0.0.0,1920x1080,1920x969,NA,ITT Ratings,2,for,3,NA,ACCEPT,NA,NA,NA,NA,NA,NA,NA,NA,batch3pro,batch3pro,35,35,1,Screen 1,continueButton,response_rating_scale_likert_active,3914.099999994039,NA,NA,Strongly Disagree,1,0,1,0,NA,NA,NA,NA,1,statements,"Not enough evidence, not enough time and research done",1,17/06/2021 12:44,17/06/2021 12:49,IP Address,For (I feel positively about the vaccines),A few times a year,Most weeks,29,Male,NA,"Undergraduate degree (BSc, BA)",control,26,2,For,Against
38,1660064139677,09/08/2022 16:55:39,1660064140032,1,09/08/2022 17:55:40,94826,4,task-ig1e,NA,23543932,6899837,NA,complete,NA,62f28fb6ed34b8a3055e180f,computer,Desktop or Laptop,Windows 10,Chrome 104.0.0.0,1920x1080,1920x969,NA,ITT Ratings,2,for,3,NA,ACCEPT,NA,NA,NA,NA,NA,NA,NA,NA,batch3pro,batch3pro,9,36,1,Screen 1,continueButton,response_rating_scale_likert_active,3422.70000000298,NA,NA,Strongly Agree,1,0,1,0,NA,NA,NA,NA,1,statements,I want to be able to see my friends and family,1,17/06/2021 12:39,17/06/2021 12:46,IP Address,For (I feel positively about the vaccines),Most months,Rarely,34,Female,NA,"Undergraduate degree (BSc, BA)",control,21,3,For,For
39,1660064146429,09/08/2022 16:55:46,1660064146780,1,09/08/2022 17:55:46,94826,4,task-ig1e,NA,23543932,6899837,NA,complete,NA,62f28fb6ed34b8a3055e180f,computer,Desktop or Laptop,Windows 10,Chrome 104.0.0.0,1920x1080,1920x969,NA,ITT Ratings,2,for,3,NA,ACCEPT,NA,NA,NA,NA,NA,NA,NA,NA,batch3pro,batch3pro,48,37,1,Screen 1,continueButton,response_rating_scale_likert_active,6740.4000000059605,NA,NA,Strongly Disagree,1,0,1,0,NA,NA,NA,NA,1,statements,I think that the vaccine might cause side effects that might be worse than the disease itself and that having a vaccine is not worth the risk,1,17/06/2021 12:28,17/06/2021 12:51,IP Address,For (I feel positively about the vaccines),Rarely,Most weeks,41,Male,NA,Doctorate (PhD),control,28,3,For,Against
40,1660064161307,09/08/2022 16:56:01,1660064161663,1,09/08/2022 17:56:01,94826,4,task-ig1e,NA,23543932,6899837,NA,complete,NA,62f28fb6ed34b8a3055e180f,computer,Desktop or Laptop,Windows 10,Chrome 104.0.0.0,1920x1080,1920x969,NA,ITT Ratings,2,for,3,NA,ACCEPT,NA,NA,NA,NA,NA,NA,NA,NA,batch3pro,batch3pro,3,38,1,Screen 1,continueButton,response_rating_scale_likert_active,14876.29999999702,NA,NA,Somewhat Disagree,1,0,1,0,NA,NA,NA,NA,1,statements,We would like to check you are reading each argument carefully. Please select 'Somewhat Disagree' for this answer,1,NA,NA,NA,NA,NA,NA,NA,NA,NA,NA,NA,NA,check2,NA,NA
41,1660064164846,09/08/2022 16:56:04,1660064165194,1,09/08/2022 17:56:05,94826,4,task-ig1e,NA,23543932,6899837,NA,complete,NA,62f28fb6ed34b8a3055e180f,computer,Desktop or Laptop,Windows 10,Chrome 104.0.0.0,1920x1080,1920x969,NA,ITT Ratings,2,for,3,NA,ACCEPT,NA,NA,NA,NA,NA,NA,NA,NA,batch3pro,batch3pro,18,39,1,Screen 1,continueButton,response_rating_scale_likert_active,3523.5999999940395,NA,NA,Strongly Disagree,1,0,1,0,NA,NA,NA,NA,1,statements,The vaccines are not completely effective so I see no point in having one,1,17/06/2021 12:31,17/06/2021 12:47,IP Address,For (I feel positively about the vaccines),Rarely,Most weeks,36,Male,NA,"Undergraduate degree (BSc, BA)",control,23,3,For,Against
42,1660064173756,09/08/2022 16:56:13,1660064174114,1,09/08/2022 17:56:14,94826,4,task-ig1e,NA,23543932,6899837,NA,complete,NA,62f28fb6ed34b8a3055e180f,computer,Desktop or Laptop,Windows 10,Chrome 104.0.0.0,1920x1080,1920x969,NA,ITT Ratings,2,for,3,NA,ACCEPT,NA,NA,NA,NA,NA,NA,NA,NA,batch3pro,batch3pro,60,40,1,Screen 1,continueButton,response_rating_scale_likert_active,8914,NA,NA,Somewhat Disagree,1,0,1,0,NA,NA,NA,NA,1,statements,I believe we haven't had enough time to develop the vaccine.,1,17/06/2021 12:32,17/06/2021 12:52,IP Address,For (I feel positively about the vaccines),Never,Most weeks,21,Female,NA,A levels,control,30,3,For,Against
43,1660064176197,09/08/2022 16:56:16,1660064176549,1,09/08/2022 17:56:16,94826,4,task-ig1e,NA,23543932,6899837,NA,complete,NA,62f28fb6ed34b8a3055e180f,computer,Desktop or Laptop,Windows 10,Chrome 104.0.0.0,1920x1080,1920x969,NA,ITT Ratings,2,for,3,NA,ACCEPT,NA,NA,NA,NA,NA,NA,NA,NA,batch3pro,batch3pro,25,41,1,Screen 1,continueButton,response_rating_scale_likert_active,2428.6000000089407,NA,NA,Strongly Agree,1,0,1,0,NA,NA,NA,NA,1,statements,I want to be able to go to events or travel abroad.,1,17/06/2021 12:39,17/06/2021 12:47,IP Address,For (I feel positively about the vaccines),Rarely,A few times a year,22,Male,NA,"Undergraduate degree (BSc, BA)",choice,24,1,For,For
44,1660064179911,09/08/2022 16:56:19,1660064180250,1,09/08/2022 17:56:20,94826,4,task-ig1e,NA,23543932,6899837,NA,complete,NA,62f28fb6ed34b8a3055e180f,computer,Desktop or Laptop,Windows 10,Chrome 104.0.0.0,1920x1080,1920x969,NA,ITT Ratings,2,for,3,NA,ACCEPT,NA,NA,NA,NA,NA,NA,NA,NA,batch3pro,batch3pro,50,42,1,Screen 1,continueButton,response_rating_scale_likert_active,3694.800000011921,NA,NA,Strongly Agree,1,0,1,0,NA,NA,NA,NA,1,statements,It is the best and quickest way to get our society functioning again and get the economy going,1,17/06/2021 12:28,17/06/2021 12:51,IP Address,For (I feel positively about the vaccines),Rarely,Most weeks,41,Male,NA,Doctorate (PhD),control,28,2,For,For
45,1660064184306,09/08/2022 16:56:24,1660064184653,1,09/08/2022 17:56:24,94826,4,task-ig1e,NA,23543932,6899837,NA,complete,NA,62f28fb6ed34b8a3055e180f,computer,Desktop or Laptop,Windows 10,Chrome 104.0.0.0,1920x1080,1920x969,NA,ITT Ratings,2,for,3,NA,ACCEPT,NA,NA,NA,NA,NA,NA,NA,NA,batch3pro,batch3pro,51,43,1,Screen 1,continueButton,response_rating_scale_likert_active,4396.79999999702,NA,NA,Strongly Agree,1,0,1,0,NA,NA,NA,NA,1,statements,The vaccine is safe and has been tested and the side effects are very rare and unlikely to occur,1,17/06/2021 12:28,17/06/2021 12:51,IP Address,For (I feel positively about the vaccines),Rarely,Most weeks,41,Male,NA,Doctorate (PhD),control,28,3,For,For
46,1660064188628,09/08/2022 16:56:28,1660064188988,1,09/08/2022 17:56:28,94826,4,task-ig1e,NA,23543932,6899837,NA,complete,NA,62f28fb6ed34b8a3055e180f,computer,Desktop or Laptop,Windows 10,Chrome 104.0.0.0,1920x1080,1920x969,NA,ITT Ratings,2,for,3,NA,ACCEPT,NA,NA,NA,NA,NA,NA,NA,NA,batch3pro,batch3pro,58,44,1,Screen 1,continueButton,response_rating_scale_likert_active,4329,NA,NA,Strongly Disagree,1,0,1,0,NA,NA,NA,NA,1,statements,I fear that the vaccine isn't safe.,1,17/06/2021 12:32,17/06/2021 12:52,IP Address,For (I feel positively about the vaccines),Never,Most weeks,21,Female,NA,A levels,control,30,1,For,Against
47,1660064190959,09/08/2022 16:56:30,1660064191314,1,09/08/2022 17:56:31,94826,4,task-ig1e,NA,23543932,6899837,NA,complete,NA,62f28fb6ed34b8a3055e180f,computer,Desktop or Laptop,Windows 10,Chrome 104.0.0.0,1920x1080,1920x969,NA,ITT Ratings,2,for,3,NA,ACCEPT,NA,NA,NA,NA,NA,NA,NA,NA,batch3pro,batch3pro,14,45,1,Screen 1,continueButton,response_rating_scale_likert_active,2319.9000000059605,NA,NA,Strongly Agree,1,0,1,0,NA,NA,NA,NA,1,statements,Reducing the spread of the virus,1,17/06/2021 12:40,17/06/2021 12:47,IP Address,For (I feel positively about the vaccines),Rarely,A few times a year,20,Female,NA,A levels,control,22,2,For,For
48,1660064196939,09/08/2022 16:56:36,1660064197292,1,09/08/2022 17:56:37,94826,4,task-ig1e,NA,23543932,6899837,NA,complete,NA,62f28fb6ed34b8a3055e180f,computer,Desktop or Laptop,Windows 10,Chrome 104.0.0.0,1920x1080,1920x969,NA,ITT Ratings,2,for,3,NA,ACCEPT,NA,NA,NA,NA,NA,NA,NA,NA,batch3pro,batch3pro,2,46,1,Screen 1,continueButton,response_rating_scale_likert_active,5970.4000000059605,NA,NA,Somewhat Agree,1,0,1,0,NA,NA,NA,NA,1,statements,We would like to check you are reading each argument carefully. Please select 'Somewhat Agree' for this answer,1,NA,NA,NA,NA,NA,NA,NA,NA,NA,NA,NA,NA,check1,NA,NA
49,1660064202287,09/08/2022 16:56:42,1660064202643,1,09/08/2022 17:56:42,94826,4,task-ig1e,NA,23543932,6899837,NA,complete,NA,62f28fb6ed34b8a3055e180f,computer,Desktop or Laptop,Windows 10,Chrome 104.0.0.0,1920x1080,1920x969,NA,ITT Ratings,2,for,3,NA,ACCEPT,NA,NA,NA,NA,NA,NA,NA,NA,batch3pro,batch3pro,10,47,1,Screen 1,continueButton,response_rating_scale_likert_active,5344.800000011921,NA,NA,Strongly Disagree,1,0,1,0,NA,NA,NA,NA,1,statements,Don't know what's in it,1,17/06/2021 12:40,17/06/2021 12:47,IP Address,For (I feel positively about the vaccines),Rarely,A few times a year,20,Female,NA,A levels,control,22,1,For,Against
50,1660064205497,09/08/2022 16:56:45,1660064205774,1,09/08/2022 17:56:45,94826,4,task-ig1e,NA,23543932,6899837,NA,complete,NA,62f28fb6ed34b8a3055e180f,computer,Desktop or Laptop,Windows 10,Chrome 104.0.0.0,1920x1080,1920x969,NA,ITT Ratings,2,for,3,NA,ACCEPT,NA,NA,NA,NA,NA,NA,NA,NA,batch3pro,batch3pro,33,48,1,Screen 1,continueButton,response_rating_scale_likert_active,3124.70000000298,NA,NA,Strongly Agree,1,0,1,0,NA,NA,NA,NA,1,statements,To help stop the NHS from  being overwhelmed,1,17/06/2021 12:27,17/06/2021 12:49,IP Address,For (I feel positively about the vaccines),Rarely,Most weeks,22,Male,NA,"GCSEs,Vocational Training / Apprenticeship",choice,25,3,For,For
51,1660064210033,09/08/2022 16:56:50,1660064210379,1,09/08/2022 17:56:50,94826,4,task-ig1e,NA,23543932,6899837,NA,complete,NA,62f28fb6ed34b8a3055e180f,computer,Desktop or Laptop,Windows 10,Chrome 104.0.0.0,1920x1080,1920x969,NA,ITT Ratings,2,for,3,NA,ACCEPT,NA,NA,NA,NA,NA,NA,NA,NA,batch3pro,batch3pro,26,49,1,Screen 1,continueButton,response_rating_scale_likert_active,4598.9000000059605,NA,NA,Strongly Agree,1,0,1,0,NA,NA,NA,NA,1,statements,I have family members which could be vulnerable and so do not want to catch the virus.,1,17/06/2021 12:39,17/06/2021 12:47,IP Address,For (I feel positively about the vaccines),Rarely,A few times a year,22,Male,NA,"Undergraduate degree (BSc, BA)",choice,24,2,For,For
52,1660064211693,09/08/2022 16:56:51,1660064212045,1,09/08/2022 17:56:52,94826,4,task-ig1e,NA,23543932,6899837,NA,complete,NA,62f28fb6ed34b8a3055e180f,computer,Desktop or Laptop,Windows 10,Chrome 104.0.0.0,1920x1080,1920x969,NA,ITT Ratings,2,for,3,NA,ACCEPT,NA,NA,NA,NA,NA,NA,NA,NA,batch3pro,batch3pro,43,50,1,Screen 1,continueButton,response_rating_scale_likert_active,1659.5999999940395,NA,NA,Strongly Agree,1,0,1,0,NA,NA,NA,NA,1,statements,It's important to protect yourself and family.,1,17/06/2021 12:43,17/06/2021 12:51,IP Address,For (I feel positively about the vaccines),Rarely,Rarely,32,Female,NA,"Postgraduate degree (MSc, MA, MPhil)",choice,27,1,For,For
53,1660064214773,09/08/2022 16:56:54,1660064215116,1,09/08/2022 17:56:55,94826,4,task-ig1e,NA,23543932,6899837,NA,complete,NA,62f28fb6ed34b8a3055e180f,computer,Desktop or Laptop,Windows 10,Chrome 104.0.0.0,1920x1080,1920x969,NA,ITT Ratings,2,for,3,NA,ACCEPT,NA,NA,NA,NA,NA,NA,NA,NA,batch3pro,batch3pro,12,51,1,Screen 1,continueButton,response_rating_scale_likert_active,3064.0999999940395,NA,NA,Strongly Disagree,1,0,1,0,NA,NA,NA,NA,1,statements,Government controls us through vaccines,1,17/06/2021 12:40,17/06/2021 12:47,IP Address,For (I feel positively about the vaccines),Rarely,A few times a year,20,Female,NA,A levels,control,22,3,For,Against
54,1660064220850,09/08/2022 16:57:00,1660064221204,1,09/08/2022 17:57:01,94826,4,task-ig1e,NA,23543932,6899837,NA,complete,NA,62f28fb6ed34b8a3055e180f,computer,Desktop or Laptop,Windows 10,Chrome 104.0.0.0,1920x1080,1920x969,NA,ITT Ratings,2,for,3,NA,ACCEPT,NA,NA,NA,NA,NA,NA,NA,NA,batch3pro,batch3pro,21,52,1,Screen 1,continueButton,response_rating_scale_likert_active,6081.70000000298,NA,NA,Strongly Agree,1,0,1,0,NA,NA,NA,NA,1,statements,I  feel it would be wrong not to accept a free vaccine when so many other people around the world do not have access to them.,1,17/06/2021 12:31,17/06/2021 12:47,IP Address,For (I feel positively about the vaccines),Rarely,Most weeks,36,Male,NA,"Undergraduate degree (BSc, BA)",control,23,3,For,For
55,1660064225240,09/08/2022 16:57:05,1660064225589,1,09/08/2022 17:57:05,94826,4,task-ig1e,NA,23543932,6899837,NA,complete,NA,62f28fb6ed34b8a3055e180f,computer,Desktop or Laptop,Windows 10,Chrome 104.0.0.0,1920x1080,1920x969,NA,ITT Ratings,2,for,3,NA,ACCEPT,NA,NA,NA,NA,NA,NA,NA,NA,batch3pro,batch3pro,61,53,1,Screen 1,continueButton,response_rating_scale_likert_active,4378.79999999702,NA,NA,Strongly Agree,1,0,1,0,NA,NA,NA,NA,1,statements,It will protect myself and the people around me and therefore I want to be vaccinated.,1,17/06/2021 12:32,17/06/2021 12:52,IP Address,For (I feel positively about the vaccines),Never,Most weeks,21,Female,NA,A levels,control,30,1,For,For
56,1660064227214,09/08/2022 16:57:07,1660064227558,1,09/08/2022 17:57:07,94826,4,task-ig1e,NA,23543932,6899837,NA,complete,NA,62f28fb6ed34b8a3055e180f,computer,Desktop or Laptop,Windows 10,Chrome 104.0.0.0,1920x1080,1920x969,NA,ITT Ratings,2,for,3,NA,ACCEPT,NA,NA,NA,NA,NA,NA,NA,NA,batch3pro,batch3pro,7,54,1,Screen 1,continueButton,response_rating_scale_likert_active,1962.5,NA,NA,Strongly Agree,1,0,1,0,NA,NA,NA,NA,1,statements,I want to get back to some form of normality,1,17/06/2021 12:39,17/06/2021 12:46,IP Address,For (I feel positively about the vaccines),Most months,Rarely,34,Female,NA,"Undergraduate degree (BSc, BA)",control,21,1,For,For
57,1660064235164,09/08/2022 16:57:15,1660064235505,1,09/08/2022 17:57:15,94826,4,task-ig1e,NA,23543932,6899837,NA,complete,NA,62f28fb6ed34b8a3055e180f,computer,Desktop or Laptop,Windows 10,Chrome 104.0.0.0,1920x1080,1920x969,NA,ITT Ratings,2,for,3,NA,ACCEPT,NA,NA,NA,NA,NA,NA,NA,NA,batch3pro,batch3pro,39,55,1,Screen 1,continueButton,response_rating_scale_likert_active,7940.600000008941,NA,NA,Neither Agree nor Disagree,1,0,1,0,NA,NA,NA,NA,1,statements,I am not completely f*cking insane,1,17/06/2021 12:44,17/06/2021 12:49,IP Address,For (I feel positively about the vaccines),A few times a year,Most weeks,29,Male,NA,"Undergraduate degree (BSc, BA)",control,26,3,For,For
58,1660064244745,09/08/2022 16:57:24,1660064245098,1,09/08/2022 17:57:25,94826,4,task-ig1e,NA,23543932,6899837,NA,complete,NA,62f28fb6ed34b8a3055e180f,computer,Desktop or Laptop,Windows 10,Chrome 104.0.0.0,1920x1080,1920x969,NA,ITT Ratings,2,for,3,NA,ACCEPT,NA,NA,NA,NA,NA,NA,NA,NA,batch3pro,batch3pro,16,56,1,Screen 1,continueButton,response_rating_scale_likert_active,9585.90000000596,NA,NA,Somewhat Disagree,1,0,1,0,NA,NA,NA,NA,1,statements,The vaccines haven't been tested enough for specific groups which I consider to be in.,1,17/06/2021 12:31,17/06/2021 12:47,IP Address,For (I feel positively about the vaccines),Rarely,Most weeks,36,Male,NA,"Undergraduate degree (BSc, BA)",control,23,1,For,Against
59,1660064255947,09/08/2022 16:57:35,1660064256308,1,09/08/2022 17:57:36,94826,4,task-ig1e,NA,23543932,6899837,NA,complete,NA,62f28fb6ed34b8a3055e180f,computer,Desktop or Laptop,Windows 10,Chrome 104.0.0.0,1920x1080,1920x969,NA,ITT Ratings,2,for,3,NA,ACCEPT,NA,NA,NA,NA,NA,NA,NA,NA,batch3pro,batch3pro,59,57,1,Screen 1,continueButton,response_rating_scale_likert_active,11203.59999999404,NA,NA,Somewhat Disagree,1,0,1,0,NA,NA,NA,NA,1,statements,I'm worried I will get long term effects from the vaccine or be effected negatively by it.,1,17/06/2021 12:32,17/06/2021 12:52,IP Address,For (I feel positively about the vaccines),Never,Most weeks,21,Female,NA,A levels,control,30,2,For,Against
60,1660064258578,09/08/2022 16:57:38,1660064258935,1,09/08/2022 17:57:38,94826,4,task-ig1e,NA,23543932,6899837,NA,complete,NA,62f28fb6ed34b8a3055e180f,computer,Desktop or Laptop,Windows 10,Chrome 104.0.0.0,1920x1080,1920x969,NA,ITT Ratings,2,for,3,NA,ACCEPT,NA,NA,NA,NA,NA,NA,NA,NA,batch3pro,batch3pro,37,58,1,Screen 1,continueButton,response_rating_scale_likert_active,2619.70000000298,NA,NA,Strongly Agree,1,0,1,0,NA,NA,NA,NA,1,statements,Better than dying of the virus,1,17/06/2021 12:44,17/06/2021 12:49,IP Address,For (I feel positively about the vaccines),A few times a year,Most weeks,29,Male,NA,"Undergraduate degree (BSc, BA)",control,26,1,For,For
61,1660064260900,09/08/2022 16:57:40,1660064261256,1,09/08/2022 17:57:41,94826,4,task-ig1e,NA,23543932,6899837,NA,complete,NA,62f28fb6ed34b8a3055e180f,computer,Desktop or Laptop,Windows 10,Chrome 104.0.0.0,1920x1080,1920x969,NA,ITT Ratings,2,for,3,NA,ACCEPT,NA,NA,NA,NA,NA,NA,NA,NA,batch3pro,batch3pro,27,59,1,Screen 1,continueButton,response_rating_scale_likert_active,2314.3999999910593,NA,NA,Strongly Agree,1,0,1,0,NA,NA,NA,NA,1,statements,I believe the vaccines are safe and effective.,1,17/06/2021 12:39,17/06/2021 12:47,IP Address,For (I feel positively about the vaccines),Rarely,A few times a year,22,Male,NA,"Undergraduate degree (BSc, BA)",choice,24,3,For,For
62,1660064262676,09/08/2022 16:57:42,1660064263030,1,09/08/2022 17:57:43,94826,4,task-ig1e,NA,23543932,6899837,NA,complete,NA,62f28fb6ed34b8a3055e180f,computer,Desktop or Laptop,Windows 10,Chrome 104.0.0.0,1920x1080,1920x969,NA,ITT Ratings,2,for,3,NA,ACCEPT,NA,NA,NA,NA,NA,NA,NA,NA,batch3pro,batch3pro,41,60,1,Screen 1,continueButton,response_rating_scale_likert_active,1767.7999999970198,NA,NA,Strongly Disagree,1,0,1,0,NA,NA,NA,NA,1,statements,The vaccine is not safe.,1,17/06/2021 12:43,17/06/2021 12:51,IP Address,For (I feel positively about the vaccines),Rarely,Rarely,32,Female,NA,"Postgraduate degree (MSc, MA, MPhil)",choice,27,2,For,Against
63,1660064266599,09/08/2022 16:57:46,1660064266960,1,09/08/2022 17:57:46,94826,4,task-ig1e,NA,23543932,6899837,NA,complete,NA,62f28fb6ed34b8a3055e180f,computer,Desktop or Laptop,Windows 10,Chrome 104.0.0.0,1920x1080,1920x969,NA,ITT Ratings,2,for,3,NA,ACCEPT,NA,NA,NA,NA,NA,NA,NA,NA,batch3pro,batch3pro,38,61,1,Screen 1,continueButton,response_rating_scale_likert_active,3925,NA,NA,Somewhat Agree,1,0,1,0,NA,NA,NA,NA,1,statements,It should be a requirement and safeguards public,1,17/06/2021 12:44,17/06/2021 12:49,IP Address,For (I feel positively about the vaccines),A few times a year,Most weeks,29,Male,NA,"Undergraduate degree (BSc, BA)",control,26,2,For,For
64,1660064271448,09/08/2022 16:57:51,1660064271796,1,09/08/2022 17:57:51,94826,4,task-ig1e,NA,23543932,6899837,NA,complete,NA,62f28fb6ed34b8a3055e180f,computer,Desktop or Laptop,Windows 10,Chrome 104.0.0.0,1920x1080,1920x969,NA,ITT Ratings,2,for,3,NA,ACCEPT,NA,NA,NA,NA,NA,NA,NA,NA,batch3pro,batch3pro,57,62,1,Screen 1,continueButton,response_rating_scale_likert_active,4830.9000000059605,NA,NA,Agree,1,0,1,0,NA,NA,NA,NA,1,statements,I want to follow the government advice,1,17/06/2021 12:41,17/06/2021 12:51,IP Address,For (I feel positively about the vaccines),Rarely,Once or twice a year,32,Male,NA,"Undergraduate degree (BSc, BA)",control,29,3,For,For
65,1660064271500,09/08/2022 16:57:51,1660064271799,1,09/08/2022 17:57:51,94826,4,task-ig1e,NA,23543932,6899837,NA,complete,NA,62f28fb6ed34b8a3055e180f,computer,Desktop or Laptop,Windows 10,Chrome 104.0.0.0,1920x1080,1920x969,NA,ITT Ratings,2,for,3,NA,ACCEPT,NA,NA,NA,NA,NA,NA,NA,NA,batch3pro,NA,NA,END TASK,NA,NA,NA,NA,476096,NA,NA,NA,NA,0,1,0,NA,NA,NA,NA,NA,NA,NA,NA,NA,NA,NA,NA,NA,NA,NA,NA,NA,NA,NA,NA,NA,NA,NA
END OF FILE,NA,NA,NA,NA,NA,NA,NA,NA,NA,NA,NA,NA,NA,NA,NA,NA,NA,NA,NA,NA,NA,NA,NA,NA,NA,NA,NA,NA,NA,NA,NA,NA,NA,NA,NA,NA,NA,NA,NA,NA,NA,NA,NA,NA,NA,NA,NA,NA,NA,NA,NA,NA,NA,NA,NA,NA,NA,NA,NA,NA,NA,NA,NA,NA,NA,NA,NA,NA,NA,NA,NA,NA,NA,NA,NA
