Event.Index,UTC.Timestamp,UTC.Date,Local.Timestamp,Local.Timezone,Local.Date,Experiment.ID,Experiment.Version,Tree.Node.Key,Repeat.Key,Schedule.ID,Participant.Private.ID,Participant.Starting.Group,Participant.Status,Participant.Completion.Code,Participant.External.Session.ID,Participant.Device.Type,Participant.Device,Participant.OS,Participant.Browser,Participant.Monitor.Size,Participant.Viewport.Size,Checkpoint,Task.Name,Task.Version,branch.69an,randomiser.8vg2,quota.bqtt,quota.rycs,quota.wtfi,quota.usve,quota.zgic,quota.f3yz,quota.r9vy,quota.tfqq,quota.3dga,quota.dtj6,Spreadsheet,Spreadsheet.Name,Spreadsheet.Row,Trial.Number,Screen.Number,Screen.Name,Zone.Name,Zone.Type,Reaction.Time,Reaction.Onset,Response.Type,Response,Attempt,Correct,Incorrect,Dishonest,X.Coordinate,Y.Coordinate,Timed.Out,randomise_blocks,randomise_trials,display,Arguments,ShowProgressBar,StartDate,EndDate,Status,prolif_check,discuss_1,read_1,age,gender,gender_4_TEXT,edu,condition,ID,arg_ID,Position,Arg_Position
1,1659975841852,08/08/2022 16:24:01,1659975841278,1,08/08/2022 17:24:01,94826,3,task-xidh,NA,23527566,6895773,NA,complete,NA,62f1386f0b24dc130bf0d8e2,computer,Desktop or Laptop,Windows 10,Chrome 104.0.0.0,2560x1440,2560x1335,NA,ITT Ratings,2,for,9,NA,NA,NA,NA,NA,NA,NA,ACCEPT,NA,NA,batch9pro,NA,NA,BEGIN TASK,NA,NA,NA,NA,NA,NA,NA,NA,NA,0,1,0,NA,NA,NA,NA,NA,NA,NA,NA,NA,NA,NA,NA,NA,NA,NA,NA,NA,NA,NA,NA,NA,NA,NA
2,1659975847176,08/08/2022 16:24:07,1659975846633,1,08/08/2022 17:24:06,94826,3,task-xidh,NA,23527566,6895773,NA,complete,NA,62f1386f0b24dc130bf0d8e2,computer,Desktop or Laptop,Windows 10,Chrome 104.0.0.0,2560x1440,2560x1335,NA,ITT Ratings,2,for,9,NA,NA,NA,NA,NA,NA,NA,ACCEPT,NA,NA,batch9pro,batch9pro,1,1,1,Screen 1,advancementZone,continue_button,5322.699999988079,NA,NA,NA,NA,0,1,0,NA,NA,NA,NA,NA,instructions,NA,NA,NA,NA,NA,NA,NA,NA,NA,NA,NA,NA,NA,NA,NA,NA,NA
3,1659975851598,08/08/2022 16:24:11,1659975851060,1,08/08/2022 17:24:11,94826,3,task-xidh,NA,23527566,6895773,NA,complete,NA,62f1386f0b24dc130bf0d8e2,computer,Desktop or Laptop,Windows 10,Chrome 104.0.0.0,2560x1440,2560x1335,NA,ITT Ratings,2,for,9,NA,NA,NA,NA,NA,NA,NA,ACCEPT,NA,NA,batch9pro,batch9pro,34,1,1,Screen 1,continueButton,response_rating_scale_likert_active,4417.399999976158,NA,NA,Agree,1,0,1,0,NA,NA,NA,NA,1,statements,it was produced fast,1,17/06/2021 12:55,17/06/2021 13:06,IP Address,For (I feel positively about the vaccines),Rarely,Most days,19,Female,NA,A levels,control,86,1,For,Against
4,1659975855156,08/08/2022 16:24:15,1659975854648,1,08/08/2022 17:24:14,94826,3,task-xidh,NA,23527566,6895773,NA,complete,NA,62f1386f0b24dc130bf0d8e2,computer,Desktop or Laptop,Windows 10,Chrome 104.0.0.0,2560x1440,2560x1335,NA,ITT Ratings,2,for,9,NA,NA,NA,NA,NA,NA,NA,ACCEPT,NA,NA,batch9pro,batch9pro,47,2,1,Screen 1,continueButton,response_rating_scale_likert_active,3578.399999976158,NA,NA,Disagree,1,0,1,0,NA,NA,NA,NA,1,statements,I don't trust the government/pharmaceutical industry to have produced a (safe) vaccine in the timeframe.,1,17/06/2021 13:00,17/06/2021 13:07,IP Address,For (I feel positively about the vaccines),A few times a year,Most months,31,Female,NA,"Undergraduate degree (BSc, BA)",choice,88,2,For,Against
5,1659975863066,08/08/2022 16:24:23,1659975862546,1,08/08/2022 17:24:22,94826,3,task-xidh,NA,23527566,6895773,NA,complete,NA,62f1386f0b24dc130bf0d8e2,computer,Desktop or Laptop,Windows 10,Chrome 104.0.0.0,2560x1440,2560x1335,NA,ITT Ratings,2,for,9,NA,NA,NA,NA,NA,NA,NA,ACCEPT,NA,NA,batch9pro,batch9pro,63,3,1,Screen 1,continueButton,response_rating_scale_likert_active,7890.800000011921,NA,NA,Agree,1,0,1,0,NA,NA,NA,NA,1,statements,I want to help with group immunity for those who are unable to have vaccines,1,17/06/2021 12:53,17/06/2021 13:08,IP Address,For (I feel positively about the vaccines),Most weeks,Most months,25,Female,NA,"Undergraduate degree (BSc, BA)",control,90,3,For,For
6,1659975867362,08/08/2022 16:24:27,1659975866440,1,08/08/2022 17:24:26,94826,3,task-xidh,NA,23527566,6895773,NA,complete,NA,62f1386f0b24dc130bf0d8e2,computer,Desktop or Laptop,Windows 10,Chrome 104.0.0.0,2560x1440,2560x1335,NA,ITT Ratings,2,for,9,NA,NA,NA,NA,NA,NA,NA,ACCEPT,NA,NA,batch9pro,batch9pro,6,4,1,Screen 1,continueButton,response_rating_scale_likert_active,3885.799999952316,NA,NA,Strongly Disagree,1,0,1,0,NA,NA,NA,NA,1,statements,Don't believe that any vaccines are effective,1,17/06/2021 12:57,17/06/2021 13:05,IP Address,For (I feel positively about the vaccines),Rarely,Most weeks,31,Male,NA,"Undergraduate degree (BSc, BA)",choice,81,3,For,Against
7,1659975871949,08/08/2022 16:24:31,1659975871433,1,08/08/2022 17:24:31,94826,3,task-xidh,NA,23527566,6895773,NA,complete,NA,62f1386f0b24dc130bf0d8e2,computer,Desktop or Laptop,Windows 10,Chrome 104.0.0.0,2560x1440,2560x1335,NA,ITT Ratings,2,for,9,NA,NA,NA,NA,NA,NA,NA,ACCEPT,NA,NA,batch9pro,batch9pro,31,5,1,Screen 1,continueButton,response_rating_scale_likert_active,4985.300000011921,NA,NA,Somewhat Agree,1,0,1,0,NA,NA,NA,NA,1,statements,It's the only way to conquer and get rid of the virus,1,17/06/2021 12:58,17/06/2021 13:06,IP Address,For (I feel positively about the vaccines),Rarely,Most weeks,57,Female,NA,"Undergraduate degree (BSc, BA)",control,85,1,For,For
8,1659975875798,08/08/2022 16:24:35,1659975875264,1,08/08/2022 17:24:35,94826,3,task-xidh,NA,23527566,6895773,NA,complete,NA,62f1386f0b24dc130bf0d8e2,computer,Desktop or Laptop,Windows 10,Chrome 104.0.0.0,2560x1440,2560x1335,NA,ITT Ratings,2,for,9,NA,NA,NA,NA,NA,NA,NA,ACCEPT,NA,NA,batch9pro,batch9pro,36,6,1,Screen 1,continueButton,response_rating_scale_likert_active,3823.900000035763,NA,NA,Somewhat Agree,1,0,1,0,NA,NA,NA,NA,1,statements,the effectiveness hasn't really been proven,1,17/06/2021 12:55,17/06/2021 13:06,IP Address,For (I feel positively about the vaccines),Rarely,Most days,19,Female,NA,A levels,control,86,3,For,Against
9,1659975904414,08/08/2022 16:25:04,1659975903884,1,08/08/2022 17:25:03,94826,3,task-xidh,NA,23527566,6895773,NA,complete,NA,62f1386f0b24dc130bf0d8e2,computer,Desktop or Laptop,Windows 10,Chrome 104.0.0.0,2560x1440,2560x1335,NA,ITT Ratings,2,for,9,NA,NA,NA,NA,NA,NA,NA,ACCEPT,NA,NA,batch9pro,batch9pro,54,7,1,Screen 1,continueButton,response_rating_scale_likert_active,28610,NA,NA,Neither Agree nor Disagree,1,0,1,0,NA,NA,NA,NA,1,statements,There's not been enough time to make the vaccine work properly,1,17/06/2021 12:53,17/06/2021 13:08,IP Address,For (I feel positively about the vaccines),A few times a year,Rarely,33,Female,NA,"Undergraduate degree (BSc, BA)",control,89,3,For,Against
10,1659975911373,08/08/2022 16:25:11,1659975910846,1,08/08/2022 17:25:10,94826,3,task-xidh,NA,23527566,6895773,NA,complete,NA,62f1386f0b24dc130bf0d8e2,computer,Desktop or Laptop,Windows 10,Chrome 104.0.0.0,2560x1440,2560x1335,NA,ITT Ratings,2,for,9,NA,NA,NA,NA,NA,NA,NA,ACCEPT,NA,NA,batch9pro,batch9pro,25,8,1,Screen 1,continueButton,response_rating_scale_likert_active,6955.600000023842,NA,NA,Agree,1,0,1,0,NA,NA,NA,NA,1,statements,protecting yourself; making yourself immune,1,17/06/2021 12:58,17/06/2021 13:06,IP Address,For (I feel positively about the vaccines),Rarely,Rarely,19,Male,NA,A levels,choice,84,1,For,For
11,1659975913578,08/08/2022 16:25:13,1659975913056,1,08/08/2022 17:25:13,94826,3,task-xidh,NA,23527566,6895773,NA,complete,NA,62f1386f0b24dc130bf0d8e2,computer,Desktop or Laptop,Windows 10,Chrome 104.0.0.0,2560x1440,2560x1335,NA,ITT Ratings,2,for,9,NA,NA,NA,NA,NA,NA,NA,ACCEPT,NA,NA,batch9pro,batch9pro,51,9,1,Screen 1,continueButton,response_rating_scale_likert_active,2202.400000035763,NA,NA,Agree,1,0,1,0,NA,NA,NA,NA,1,statements,I believe the vaccine is safe.,1,17/06/2021 13:00,17/06/2021 13:07,IP Address,For (I feel positively about the vaccines),A few times a year,Most months,31,Female,NA,"Undergraduate degree (BSc, BA)",choice,88,3,For,For
12,1659975916773,08/08/2022 16:25:16,1659975916255,1,08/08/2022 17:25:16,94826,3,task-xidh,NA,23527566,6895773,NA,complete,NA,62f1386f0b24dc130bf0d8e2,computer,Desktop or Laptop,Windows 10,Chrome 104.0.0.0,2560x1440,2560x1335,NA,ITT Ratings,2,for,9,NA,NA,NA,NA,NA,NA,NA,ACCEPT,NA,NA,batch9pro,batch9pro,56,10,1,Screen 1,continueButton,response_rating_scale_likert_active,3191,NA,NA,Neither Agree nor Disagree,1,0,1,0,NA,NA,NA,NA,1,statements,I don't want to catch covid,1,17/06/2021 12:53,17/06/2021 13:08,IP Address,For (I feel positively about the vaccines),A few times a year,Rarely,33,Female,NA,"Undergraduate degree (BSc, BA)",control,89,2,For,For
13,1659975920991,08/08/2022 16:25:20,1659975920465,1,08/08/2022 17:25:20,94826,3,task-xidh,NA,23527566,6895773,NA,complete,NA,62f1386f0b24dc130bf0d8e2,computer,Desktop or Laptop,Windows 10,Chrome 104.0.0.0,2560x1440,2560x1335,NA,ITT Ratings,2,for,9,NA,NA,NA,NA,NA,NA,NA,ACCEPT,NA,NA,batch9pro,batch9pro,62,11,1,Screen 1,continueButton,response_rating_scale_likert_active,4202.400000035763,NA,NA,Disagree,1,0,1,0,NA,NA,NA,NA,1,statements,It helps me feel safer about returning to normal life,1,17/06/2021 12:53,17/06/2021 13:08,IP Address,For (I feel positively about the vaccines),Most weeks,Most months,25,Female,NA,"Undergraduate degree (BSc, BA)",control,90,2,For,For
14,1659975924129,08/08/2022 16:25:24,1659975923602,1,08/08/2022 17:25:23,94826,3,task-xidh,NA,23527566,6895773,NA,complete,NA,62f1386f0b24dc130bf0d8e2,computer,Desktop or Laptop,Windows 10,Chrome 104.0.0.0,2560x1440,2560x1335,NA,ITT Ratings,2,for,9,NA,NA,NA,NA,NA,NA,NA,ACCEPT,NA,NA,batch9pro,batch9pro,50,12,1,Screen 1,continueButton,response_rating_scale_likert_active,3129.5,NA,NA,Somewhat Agree,1,0,1,0,NA,NA,NA,NA,1,statements,I want to help society return to normality as soon as possible.,1,17/06/2021 13:00,17/06/2021 13:07,IP Address,For (I feel positively about the vaccines),A few times a year,Most months,31,Female,NA,"Undergraduate degree (BSc, BA)",choice,88,2,For,For
15,1659975928763,08/08/2022 16:25:28,1659975927662,1,08/08/2022 17:25:27,94826,3,task-xidh,NA,23527566,6895773,NA,complete,NA,62f1386f0b24dc130bf0d8e2,computer,Desktop or Laptop,Windows 10,Chrome 104.0.0.0,2560x1440,2560x1335,NA,ITT Ratings,2,for,9,NA,NA,NA,NA,NA,NA,NA,ACCEPT,NA,NA,batch9pro,batch9pro,59,13,1,Screen 1,continueButton,response_rating_scale_likert_active,4053.599999964237,NA,NA,Somewhat Agree,1,0,1,0,NA,NA,NA,NA,1,statements,It doesn't stop you from catching the disease,1,17/06/2021 12:53,17/06/2021 13:08,IP Address,For (I feel positively about the vaccines),Most weeks,Most months,25,Female,NA,"Undergraduate degree (BSc, BA)",control,90,2,For,Against
16,1659975929594,08/08/2022 16:25:29,1659975929083,1,08/08/2022 17:25:29,94826,3,task-xidh,NA,23527566,6895773,NA,complete,NA,62f1386f0b24dc130bf0d8e2,computer,Desktop or Laptop,Windows 10,Chrome 104.0.0.0,2560x1440,2560x1335,NA,ITT Ratings,2,for,9,NA,NA,NA,NA,NA,NA,NA,ACCEPT,NA,NA,batch9pro,batch9pro,46,14,1,Screen 1,continueButton,response_rating_scale_likert_active,1413.399999976158,NA,NA,Strongly Disagree,1,0,1,0,NA,NA,NA,NA,1,statements,I don't believe in vaccinations.,1,17/06/2021 13:00,17/06/2021 13:07,IP Address,For (I feel positively about the vaccines),A few times a year,Most months,31,Female,NA,"Undergraduate degree (BSc, BA)",choice,88,1,For,Against
17,1659975936349,08/08/2022 16:25:36,1659975935830,1,08/08/2022 17:25:35,94826,3,task-xidh,NA,23527566,6895773,NA,complete,NA,62f1386f0b24dc130bf0d8e2,computer,Desktop or Laptop,Windows 10,Chrome 104.0.0.0,2560x1440,2560x1335,NA,ITT Ratings,2,for,9,NA,NA,NA,NA,NA,NA,NA,ACCEPT,NA,NA,batch9pro,batch9pro,10,15,1,Screen 1,continueButton,response_rating_scale_likert_active,6740.300000011921,NA,NA,Disagree,1,0,1,0,NA,NA,NA,NA,1,statements,Time of development,1,17/06/2021 12:57,17/06/2021 13:06,IP Address,For (I feel positively about the vaccines),Never,Rarely,28,Female,NA,"Undergraduate degree (BSc, BA)",choice,82,1,For,Against
18,1659975940842,08/08/2022 16:25:40,1659975940315,1,08/08/2022 17:25:40,94826,3,task-xidh,NA,23527566,6895773,NA,complete,NA,62f1386f0b24dc130bf0d8e2,computer,Desktop or Laptop,Windows 10,Chrome 104.0.0.0,2560x1440,2560x1335,NA,ITT Ratings,2,for,9,NA,NA,NA,NA,NA,NA,NA,ACCEPT,NA,NA,batch9pro,batch9pro,26,16,1,Screen 1,continueButton,response_rating_scale_likert_active,4479.5,NA,NA,Somewhat Agree,1,0,1,0,NA,NA,NA,NA,1,statements,protecting those who are close to you,1,17/06/2021 12:58,17/06/2021 13:06,IP Address,For (I feel positively about the vaccines),Rarely,Rarely,19,Male,NA,A levels,choice,84,2,For,For
19,1659975945801,08/08/2022 16:25:45,1659975945271,1,08/08/2022 17:25:45,94826,3,task-xidh,NA,23527566,6895773,NA,complete,NA,62f1386f0b24dc130bf0d8e2,computer,Desktop or Laptop,Windows 10,Chrome 104.0.0.0,2560x1440,2560x1335,NA,ITT Ratings,2,for,9,NA,NA,NA,NA,NA,NA,NA,ACCEPT,NA,NA,batch9pro,batch9pro,23,17,1,Screen 1,continueButton,response_rating_scale_likert_active,4949.300000011921,NA,NA,Strongly Disagree,1,0,1,0,NA,NA,NA,NA,1,statements,thinking its a means of government control (conspiracy),1,17/06/2021 12:58,17/06/2021 13:06,IP Address,For (I feel positively about the vaccines),Rarely,Rarely,19,Male,NA,A levels,choice,84,2,For,Against
20,1659975949546,08/08/2022 16:25:49,1659975948592,1,08/08/2022 17:25:48,94826,3,task-xidh,NA,23527566,6895773,NA,complete,NA,62f1386f0b24dc130bf0d8e2,computer,Desktop or Laptop,Windows 10,Chrome 104.0.0.0,2560x1440,2560x1335,NA,ITT Ratings,2,for,9,NA,NA,NA,NA,NA,NA,NA,ACCEPT,NA,NA,batch9pro,batch9pro,42,18,1,Screen 1,continueButton,response_rating_scale_likert_active,3313.600000023842,NA,NA,Strongly Disagree,1,0,1,0,NA,NA,NA,NA,1,statements,You will get a blood clot,1,17/06/2021 12:58,17/06/2021 13:06,IP Address,For (I feel positively about the vaccines),Never,Most months,35,Female,NA,A levels,control,87,3,For,Against
21,1659975953625,08/08/2022 16:25:53,1659975953109,1,08/08/2022 17:25:53,94826,3,task-xidh,NA,23527566,6895773,NA,complete,NA,62f1386f0b24dc130bf0d8e2,computer,Desktop or Laptop,Windows 10,Chrome 104.0.0.0,2560x1440,2560x1335,NA,ITT Ratings,2,for,9,NA,NA,NA,NA,NA,NA,NA,ACCEPT,NA,NA,batch9pro,batch9pro,38,19,1,Screen 1,continueButton,response_rating_scale_likert_active,4510.099999964237,NA,NA,Somewhat Agree,1,0,1,0,NA,NA,NA,NA,1,statements,its about other peoples health swell as your own,1,17/06/2021 12:55,17/06/2021 13:06,IP Address,For (I feel positively about the vaccines),Rarely,Most days,19,Female,NA,A levels,control,86,2,For,For
22,1659975955821,08/08/2022 16:25:55,1659975955272,1,08/08/2022 17:25:55,94826,3,task-xidh,NA,23527566,6895773,NA,complete,NA,62f1386f0b24dc130bf0d8e2,computer,Desktop or Laptop,Windows 10,Chrome 104.0.0.0,2560x1440,2560x1335,NA,ITT Ratings,2,for,9,NA,NA,NA,NA,NA,NA,NA,ACCEPT,NA,NA,batch9pro,batch9pro,43,20,1,Screen 1,continueButton,response_rating_scale_likert_active,2155.2999999523163,NA,NA,Agree,1,0,1,0,NA,NA,NA,NA,1,statements,I want to be protected from covid,1,17/06/2021 12:58,17/06/2021 13:06,IP Address,For (I feel positively about the vaccines),Never,Most months,35,Female,NA,A levels,control,87,1,For,For
23,1659975995702,08/08/2022 16:26:35,1659975995184,1,08/08/2022 17:26:35,94826,3,task-xidh,NA,23527566,6895773,NA,complete,NA,62f1386f0b24dc130bf0d8e2,computer,Desktop or Laptop,Windows 10,Chrome 104.0.0.0,2560x1440,2560x1335,NA,ITT Ratings,2,for,9,NA,NA,NA,NA,NA,NA,NA,ACCEPT,NA,NA,batch9pro,batch9pro,29,21,1,Screen 1,continueButton,response_rating_scale_likert_active,39904.69999998808,NA,NA,Strongly Disagree,1,0,1,0,NA,NA,NA,NA,1,statements,Against any type of vaccinations,1,17/06/2021 12:58,17/06/2021 13:06,IP Address,For (I feel positively about the vaccines),Rarely,Most weeks,57,Female,NA,"Undergraduate degree (BSc, BA)",control,85,2,For,Against
24,1659976000899,08/08/2022 16:26:40,1659976000372,1,08/08/2022 17:26:40,94826,3,task-xidh,NA,23527566,6895773,NA,complete,NA,62f1386f0b24dc130bf0d8e2,computer,Desktop or Laptop,Windows 10,Chrome 104.0.0.0,2560x1440,2560x1335,NA,ITT Ratings,2,for,9,NA,NA,NA,NA,NA,NA,NA,ACCEPT,NA,NA,batch9pro,batch9pro,17,22,1,Screen 1,continueButton,response_rating_scale_likert_active,5179.400000035763,NA,NA,Neither Agree nor Disagree,1,0,1,0,NA,NA,NA,NA,1,statements,We don't know how long it works for,1,17/06/2021 12:57,17/06/2021 13:06,IP Address,For (I feel positively about the vaccines),Rarely,A few times a year,31,Female,NA,"Undergraduate degree (BSc, BA)",choice,83,2,For,Against
25,1659976003811,08/08/2022 16:26:43,1659976003276,1,08/08/2022 17:26:43,94826,3,task-xidh,NA,23527566,6895773,NA,complete,NA,62f1386f0b24dc130bf0d8e2,computer,Desktop or Laptop,Windows 10,Chrome 104.0.0.0,2560x1440,2560x1335,NA,ITT Ratings,2,for,9,NA,NA,NA,NA,NA,NA,NA,ACCEPT,NA,NA,batch9pro,batch9pro,5,23,1,Screen 1,continueButton,response_rating_scale_likert_active,2897.099999964237,NA,NA,Strongly Disagree,1,0,1,0,NA,NA,NA,NA,1,statements,The government can track me if I take the vaccine,1,17/06/2021 12:57,17/06/2021 13:05,IP Address,For (I feel positively about the vaccines),Rarely,Most weeks,31,Male,NA,"Undergraduate degree (BSc, BA)",choice,81,2,For,Against
26,1659976007091,08/08/2022 16:26:47,1659976006569,1,08/08/2022 17:26:46,94826,3,task-xidh,NA,23527566,6895773,NA,complete,NA,62f1386f0b24dc130bf0d8e2,computer,Desktop or Laptop,Windows 10,Chrome 104.0.0.0,2560x1440,2560x1335,NA,ITT Ratings,2,for,9,NA,NA,NA,NA,NA,NA,NA,ACCEPT,NA,NA,batch9pro,batch9pro,30,24,1,Screen 1,continueButton,response_rating_scale_likert_active,3285.599999964237,NA,NA,Strongly Disagree,1,0,1,0,NA,NA,NA,NA,1,statements,Possible side effects,1,17/06/2021 12:58,17/06/2021 13:06,IP Address,For (I feel positively about the vaccines),Rarely,Most weeks,57,Female,NA,"Undergraduate degree (BSc, BA)",control,85,3,For,Against
27,1659976010357,08/08/2022 16:26:50,1659976009258,1,08/08/2022 17:26:49,94826,3,task-xidh,NA,23527566,6895773,NA,complete,NA,62f1386f0b24dc130bf0d8e2,computer,Desktop or Laptop,Windows 10,Chrome 104.0.0.0,2560x1440,2560x1335,NA,ITT Ratings,2,for,9,NA,NA,NA,NA,NA,NA,NA,ACCEPT,NA,NA,batch9pro,batch9pro,39,25,1,Screen 1,continueButton,response_rating_scale_likert_active,2683,NA,NA,Somewhat Agree,1,0,1,0,NA,NA,NA,NA,1,statements,its responsible to do,1,17/06/2021 12:55,17/06/2021 13:06,IP Address,For (I feel positively about the vaccines),Rarely,Most days,19,Female,NA,A levels,control,86,3,For,For
28,1659976014378,08/08/2022 16:26:54,1659976013865,1,08/08/2022 17:26:53,94826,3,task-xidh,NA,23527566,6895773,NA,complete,NA,62f1386f0b24dc130bf0d8e2,computer,Desktop or Laptop,Windows 10,Chrome 104.0.0.0,2560x1440,2560x1335,NA,ITT Ratings,2,for,9,NA,NA,NA,NA,NA,NA,NA,ACCEPT,NA,NA,batch9pro,batch9pro,4,26,1,Screen 1,continueButton,response_rating_scale_likert_active,4600.5,NA,NA,Somewhat Disagree,1,0,1,0,NA,NA,NA,NA,1,statements,The companies haven't had enough time to develop it properly,1,17/06/2021 12:57,17/06/2021 13:05,IP Address,For (I feel positively about the vaccines),Rarely,Most weeks,31,Male,NA,"Undergraduate degree (BSc, BA)",choice,81,1,For,Against
29,1659976017275,08/08/2022 16:26:57,1659976016761,1,08/08/2022 17:26:56,94826,3,task-xidh,NA,23527566,6895773,NA,complete,NA,62f1386f0b24dc130bf0d8e2,computer,Desktop or Laptop,Windows 10,Chrome 104.0.0.0,2560x1440,2560x1335,NA,ITT Ratings,2,for,9,NA,NA,NA,NA,NA,NA,NA,ACCEPT,NA,NA,batch9pro,batch9pro,58,27,1,Screen 1,continueButton,response_rating_scale_likert_active,2889,NA,NA,Somewhat Disagree,1,0,1,0,NA,NA,NA,NA,1,statements,The vaccine has been developed too quickly so they're not sure it's safe,1,17/06/2021 12:53,17/06/2021 13:08,IP Address,For (I feel positively about the vaccines),Most weeks,Most months,25,Female,NA,"Undergraduate degree (BSc, BA)",control,90,1,For,Against
30,1659976021829,08/08/2022 16:27:01,1659976021236,1,08/08/2022 17:27:01,94826,3,task-xidh,NA,23527566,6895773,NA,complete,NA,62f1386f0b24dc130bf0d8e2,computer,Desktop or Laptop,Windows 10,Chrome 104.0.0.0,2560x1440,2560x1335,NA,ITT Ratings,2,for,9,NA,NA,NA,NA,NA,NA,NA,ACCEPT,NA,NA,batch9pro,batch9pro,2,28,1,Screen 1,continueButton,response_rating_scale_likert_active,4467.700000047684,NA,NA,Somewhat Agree,1,0,1,0,NA,NA,NA,NA,1,statements,We would like to check you are reading each argument carefully. Please select 'Somewhat Agree' for this answer,1,NA,NA,NA,NA,NA,NA,NA,NA,NA,NA,NA,NA,check1,NA,NA
31,1659976030080,08/08/2022 16:27:10,1659976029558,1,08/08/2022 17:27:09,94826,3,task-xidh,NA,23527566,6895773,NA,complete,NA,62f1386f0b24dc130bf0d8e2,computer,Desktop or Laptop,Windows 10,Chrome 104.0.0.0,2560x1440,2560x1335,NA,ITT Ratings,2,for,9,NA,NA,NA,NA,NA,NA,NA,ACCEPT,NA,NA,batch9pro,batch9pro,14,29,1,Screen 1,continueButton,response_rating_scale_likert_active,8316.099999964237,NA,NA,Somewhat Agree,1,0,1,0,NA,NA,NA,NA,1,statements,It will get everyone safer,1,17/06/2021 12:57,17/06/2021 13:06,IP Address,For (I feel positively about the vaccines),Never,Rarely,28,Female,NA,"Undergraduate degree (BSc, BA)",choice,82,2,For,For
32,1659976032455,08/08/2022 16:27:12,1659976031924,1,08/08/2022 17:27:11,94826,3,task-xidh,NA,23527566,6895773,NA,complete,NA,62f1386f0b24dc130bf0d8e2,computer,Desktop or Laptop,Windows 10,Chrome 104.0.0.0,2560x1440,2560x1335,NA,ITT Ratings,2,for,9,NA,NA,NA,NA,NA,NA,NA,ACCEPT,NA,NA,batch9pro,batch9pro,22,30,1,Screen 1,continueButton,response_rating_scale_likert_active,2359.399999976158,NA,NA,Strongly Disagree,1,0,1,0,NA,NA,NA,NA,1,statements,danger of side effects,1,17/06/2021 12:58,17/06/2021 13:06,IP Address,For (I feel positively about the vaccines),Rarely,Rarely,19,Male,NA,A levels,choice,84,1,For,Against
33,1659976036373,08/08/2022 16:27:16,1659976035845,1,08/08/2022 17:27:15,94826,3,task-xidh,NA,23527566,6895773,NA,complete,NA,62f1386f0b24dc130bf0d8e2,computer,Desktop or Laptop,Windows 10,Chrome 104.0.0.0,2560x1440,2560x1335,NA,ITT Ratings,2,for,9,NA,NA,NA,NA,NA,NA,NA,ACCEPT,NA,NA,batch9pro,batch9pro,37,31,1,Screen 1,continueButton,response_rating_scale_likert_active,3915.300000011921,NA,NA,Somewhat Agree,1,0,1,0,NA,NA,NA,NA,1,statements,its a start to ending covid,1,17/06/2021 12:55,17/06/2021 13:06,IP Address,For (I feel positively about the vaccines),Rarely,Most days,19,Female,NA,A levels,control,86,1,For,For
34,1659976038440,08/08/2022 16:27:18,1659976037904,1,08/08/2022 17:27:17,94826,3,task-xidh,NA,23527566,6895773,NA,complete,NA,62f1386f0b24dc130bf0d8e2,computer,Desktop or Laptop,Windows 10,Chrome 104.0.0.0,2560x1440,2560x1335,NA,ITT Ratings,2,for,9,NA,NA,NA,NA,NA,NA,NA,ACCEPT,NA,NA,batch9pro,batch9pro,44,32,1,Screen 1,continueButton,response_rating_scale_likert_active,2051.099999964237,NA,NA,Agree,1,0,1,0,NA,NA,NA,NA,1,statements,I want the country to get back up and running,1,17/06/2021 12:58,17/06/2021 13:06,IP Address,For (I feel positively about the vaccines),Never,Most months,35,Female,NA,A levels,control,87,2,For,For
35,1659976041577,08/08/2022 16:27:21,1659976041045,1,08/08/2022 17:27:21,94826,3,task-xidh,NA,23527566,6895773,NA,complete,NA,62f1386f0b24dc130bf0d8e2,computer,Desktop or Laptop,Windows 10,Chrome 104.0.0.0,2560x1440,2560x1335,NA,ITT Ratings,2,for,9,NA,NA,NA,NA,NA,NA,NA,ACCEPT,NA,NA,batch9pro,batch9pro,28,33,1,Screen 1,continueButton,response_rating_scale_likert_active,3134.899999976158,NA,NA,Somewhat Disagree,1,0,1,0,NA,NA,NA,NA,1,statements,The time factor - trials can take up to 10 years,1,17/06/2021 12:58,17/06/2021 13:06,IP Address,For (I feel positively about the vaccines),Rarely,Most weeks,57,Female,NA,"Undergraduate degree (BSc, BA)",control,85,1,For,Against
36,1659976088376,08/08/2022 16:28:08,1659976087846,1,08/08/2022 17:28:07,94826,3,task-xidh,NA,23527566,6895773,NA,complete,NA,62f1386f0b24dc130bf0d8e2,computer,Desktop or Laptop,Windows 10,Chrome 104.0.0.0,2560x1440,2560x1335,NA,ITT Ratings,2,for,9,NA,NA,NA,NA,NA,NA,NA,ACCEPT,NA,NA,batch9pro,batch9pro,61,34,1,Screen 1,continueButton,response_rating_scale_likert_active,46794.19999998808,NA,NA,Somewhat Agree,1,0,1,0,NA,NA,NA,NA,1,statements,Scientists are recommending it and they know best,1,17/06/2021 12:53,17/06/2021 13:08,IP Address,For (I feel positively about the vaccines),Most weeks,Most months,25,Female,NA,"Undergraduate degree (BSc, BA)",control,90,1,For,For
37,1659976091346,08/08/2022 16:28:11,1659976090813,1,08/08/2022 17:28:10,94826,3,task-xidh,NA,23527566,6895773,NA,complete,NA,62f1386f0b24dc130bf0d8e2,computer,Desktop or Laptop,Windows 10,Chrome 104.0.0.0,2560x1440,2560x1335,NA,ITT Ratings,2,for,9,NA,NA,NA,NA,NA,NA,NA,ACCEPT,NA,NA,batch9pro,batch9pro,8,35,1,Screen 1,continueButton,response_rating_scale_likert_active,2960.399999976158,NA,NA,Strongly Agree,1,0,1,0,NA,NA,NA,NA,1,statements,Vaccines are well researched and tested before being distributed to the public,1,17/06/2021 12:57,17/06/2021 13:05,IP Address,For (I feel positively about the vaccines),Rarely,Most weeks,31,Male,NA,"Undergraduate degree (BSc, BA)",choice,81,2,For,For
38,1659976092826,08/08/2022 16:28:12,1659976092300,1,08/08/2022 17:28:12,94826,3,task-xidh,NA,23527566,6895773,NA,complete,NA,62f1386f0b24dc130bf0d8e2,computer,Desktop or Laptop,Windows 10,Chrome 104.0.0.0,2560x1440,2560x1335,NA,ITT Ratings,2,for,9,NA,NA,NA,NA,NA,NA,NA,ACCEPT,NA,NA,batch9pro,batch9pro,19,36,1,Screen 1,continueButton,response_rating_scale_likert_active,1481,NA,NA,Strongly Agree,1,0,1,0,NA,NA,NA,NA,1,statements,I want to get back to normality,1,17/06/2021 12:57,17/06/2021 13:06,IP Address,For (I feel positively about the vaccines),Rarely,A few times a year,31,Female,NA,"Undergraduate degree (BSc, BA)",choice,83,1,For,For
39,1659976095179,08/08/2022 16:28:15,1659976094664,1,08/08/2022 17:28:14,94826,3,task-xidh,NA,23527566,6895773,NA,complete,NA,62f1386f0b24dc130bf0d8e2,computer,Desktop or Laptop,Windows 10,Chrome 104.0.0.0,2560x1440,2560x1335,NA,ITT Ratings,2,for,9,NA,NA,NA,NA,NA,NA,NA,ACCEPT,NA,NA,batch9pro,batch9pro,40,37,1,Screen 1,continueButton,response_rating_scale_likert_active,2356.900000035763,NA,NA,Strongly Disagree,1,0,1,0,NA,NA,NA,NA,1,statements,There hasn't been long enough to develop a vaccination,1,17/06/2021 12:58,17/06/2021 13:06,IP Address,For (I feel positively about the vaccines),Never,Most months,35,Female,NA,A levels,control,87,1,For,Against
40,1659976097150,08/08/2022 16:28:17,1659976096642,1,08/08/2022 17:28:16,94826,3,task-xidh,NA,23527566,6895773,NA,complete,NA,62f1386f0b24dc130bf0d8e2,computer,Desktop or Laptop,Windows 10,Chrome 104.0.0.0,2560x1440,2560x1335,NA,ITT Ratings,2,for,9,NA,NA,NA,NA,NA,NA,NA,ACCEPT,NA,NA,batch9pro,batch9pro,53,38,1,Screen 1,continueButton,response_rating_scale_likert_active,1970,NA,NA,Disagree,1,0,1,0,NA,NA,NA,NA,1,statements,I don't trust the vaccine works,1,17/06/2021 12:53,17/06/2021 13:08,IP Address,For (I feel positively about the vaccines),A few times a year,Rarely,33,Female,NA,"Undergraduate degree (BSc, BA)",control,89,2,For,Against
41,1659976101758,08/08/2022 16:28:21,1659976101241,1,08/08/2022 17:28:21,94826,3,task-xidh,NA,23527566,6895773,NA,complete,NA,62f1386f0b24dc130bf0d8e2,computer,Desktop or Laptop,Windows 10,Chrome 104.0.0.0,2560x1440,2560x1335,NA,ITT Ratings,2,for,9,NA,NA,NA,NA,NA,NA,NA,ACCEPT,NA,NA,batch9pro,batch9pro,16,39,1,Screen 1,continueButton,response_rating_scale_likert_active,4591.099999964237,NA,NA,Neither Agree nor Disagree,1,0,1,0,NA,NA,NA,NA,1,statements,It hasn't been around long enough to know the long term effects,1,17/06/2021 12:57,17/06/2021 13:06,IP Address,For (I feel positively about the vaccines),Rarely,A few times a year,31,Female,NA,"Undergraduate degree (BSc, BA)",choice,83,1,For,Against
42,1659976107321,08/08/2022 16:28:27,1659976106780,1,08/08/2022 17:28:26,94826,3,task-xidh,NA,23527566,6895773,NA,complete,NA,62f1386f0b24dc130bf0d8e2,computer,Desktop or Laptop,Windows 10,Chrome 104.0.0.0,2560x1440,2560x1335,NA,ITT Ratings,2,for,9,NA,NA,NA,NA,NA,NA,NA,ACCEPT,NA,NA,batch9pro,batch9pro,57,40,1,Screen 1,continueButton,response_rating_scale_likert_active,5532.5,NA,NA,Neither Agree nor Disagree,1,0,1,0,NA,NA,NA,NA,1,statements,I trust that this vaccine will work,1,17/06/2021 12:53,17/06/2021 13:08,IP Address,For (I feel positively about the vaccines),A few times a year,Rarely,33,Female,NA,"Undergraduate degree (BSc, BA)",control,89,3,For,For
43,1659976109772,08/08/2022 16:28:29,1659976109240,1,08/08/2022 17:28:29,94826,3,task-xidh,NA,23527566,6895773,NA,complete,NA,62f1386f0b24dc130bf0d8e2,computer,Desktop or Laptop,Windows 10,Chrome 104.0.0.0,2560x1440,2560x1335,NA,ITT Ratings,2,for,9,NA,NA,NA,NA,NA,NA,NA,ACCEPT,NA,NA,batch9pro,batch9pro,52,41,1,Screen 1,continueButton,response_rating_scale_likert_active,2453.099999964237,NA,NA,Strongly Disagree,1,0,1,0,NA,NA,NA,NA,1,statements,I don't believe covid is real.,1,17/06/2021 12:53,17/06/2021 13:08,IP Address,For (I feel positively about the vaccines),A few times a year,Rarely,33,Female,NA,"Undergraduate degree (BSc, BA)",control,89,1,For,Against
44,1659976112093,08/08/2022 16:28:32,1659976111576,1,08/08/2022 17:28:31,94826,3,task-xidh,NA,23527566,6895773,NA,complete,NA,62f1386f0b24dc130bf0d8e2,computer,Desktop or Laptop,Windows 10,Chrome 104.0.0.0,2560x1440,2560x1335,NA,ITT Ratings,2,for,9,NA,NA,NA,NA,NA,NA,NA,ACCEPT,NA,NA,batch9pro,batch9pro,41,42,1,Screen 1,continueButton,response_rating_scale_likert_active,2329.699999988079,NA,NA,Strongly Disagree,1,0,1,0,NA,NA,NA,NA,1,statements,They are trying to control us,1,17/06/2021 12:58,17/06/2021 13:06,IP Address,For (I feel positively about the vaccines),Never,Most months,35,Female,NA,A levels,control,87,2,For,Against
45,1659976113086,08/08/2022 16:28:33,1659976112580,1,08/08/2022 17:28:32,94826,3,task-xidh,NA,23527566,6895773,NA,complete,NA,62f1386f0b24dc130bf0d8e2,computer,Desktop or Laptop,Windows 10,Chrome 104.0.0.0,2560x1440,2560x1335,NA,ITT Ratings,2,for,9,NA,NA,NA,NA,NA,NA,NA,ACCEPT,NA,NA,batch9pro,batch9pro,48,43,1,Screen 1,continueButton,response_rating_scale_likert_active,997.399999976158,NA,NA,Strongly Disagree,1,0,1,0,NA,NA,NA,NA,1,statements,I don't believe in Covid-19.,1,17/06/2021 13:00,17/06/2021 13:07,IP Address,For (I feel positively about the vaccines),A few times a year,Most months,31,Female,NA,"Undergraduate degree (BSc, BA)",choice,88,3,For,Against
46,1659976116932,08/08/2022 16:28:36,1659976116406,1,08/08/2022 17:28:36,94826,3,task-xidh,NA,23527566,6895773,NA,complete,NA,62f1386f0b24dc130bf0d8e2,computer,Desktop or Laptop,Windows 10,Chrome 104.0.0.0,2560x1440,2560x1335,NA,ITT Ratings,2,for,9,NA,NA,NA,NA,NA,NA,NA,ACCEPT,NA,NA,batch9pro,batch9pro,33,44,1,Screen 1,continueButton,response_rating_scale_likert_active,3819.400000035763,NA,NA,Somewhat Agree,1,0,1,0,NA,NA,NA,NA,1,statements,Being vaccinated gives more freedom to open up the world again,1,17/06/2021 12:58,17/06/2021 13:06,IP Address,For (I feel positively about the vaccines),Rarely,Most weeks,57,Female,NA,"Undergraduate degree (BSc, BA)",control,85,3,For,For
47,1659976120353,08/08/2022 16:28:40,1659976119824,1,08/08/2022 17:28:39,94826,3,task-xidh,NA,23527566,6895773,NA,complete,NA,62f1386f0b24dc130bf0d8e2,computer,Desktop or Laptop,Windows 10,Chrome 104.0.0.0,2560x1440,2560x1335,NA,ITT Ratings,2,for,9,NA,NA,NA,NA,NA,NA,NA,ACCEPT,NA,NA,batch9pro,batch9pro,49,45,1,Screen 1,continueButton,response_rating_scale_likert_active,3410,NA,NA,Somewhat Agree,1,0,1,0,NA,NA,NA,NA,1,statements,I am afraid of catching Covid-19.,1,17/06/2021 13:00,17/06/2021 13:07,IP Address,For (I feel positively about the vaccines),A few times a year,Most months,31,Female,NA,"Undergraduate degree (BSc, BA)",choice,88,1,For,For
48,1659976123587,08/08/2022 16:28:43,1659976123051,1,08/08/2022 17:28:43,94826,3,task-xidh,NA,23527566,6895773,NA,complete,NA,62f1386f0b24dc130bf0d8e2,computer,Desktop or Laptop,Windows 10,Chrome 104.0.0.0,2560x1440,2560x1335,NA,ITT Ratings,2,for,9,NA,NA,NA,NA,NA,NA,NA,ACCEPT,NA,NA,batch9pro,batch9pro,20,46,1,Screen 1,continueButton,response_rating_scale_likert_active,3220.100000023842,NA,NA,Somewhat Agree,1,0,1,0,NA,NA,NA,NA,1,statements,I don't want to risk dying,1,17/06/2021 12:57,17/06/2021 13:06,IP Address,For (I feel positively about the vaccines),Rarely,A few times a year,31,Female,NA,"Undergraduate degree (BSc, BA)",choice,83,2,For,For
49,1659976125862,08/08/2022 16:28:45,1659976125322,1,08/08/2022 17:28:45,94826,3,task-xidh,NA,23527566,6895773,NA,complete,NA,62f1386f0b24dc130bf0d8e2,computer,Desktop or Laptop,Windows 10,Chrome 104.0.0.0,2560x1440,2560x1335,NA,ITT Ratings,2,for,9,NA,NA,NA,NA,NA,NA,NA,ACCEPT,NA,NA,batch9pro,batch9pro,18,47,1,Screen 1,continueButton,response_rating_scale_likert_active,2264.5,NA,NA,Neither Agree nor Disagree,1,0,1,0,NA,NA,NA,NA,1,statements,I don't want a Covid passport,1,17/06/2021 12:57,17/06/2021 13:06,IP Address,For (I feel positively about the vaccines),Rarely,A few times a year,31,Female,NA,"Undergraduate degree (BSc, BA)",choice,83,3,For,Against
50,1659976217883,08/08/2022 16:30:17,1659976217358,1,08/08/2022 17:30:17,94826,3,task-xidh,NA,23527566,6895773,NA,complete,NA,62f1386f0b24dc130bf0d8e2,computer,Desktop or Laptop,Windows 10,Chrome 104.0.0.0,2560x1440,2560x1335,NA,ITT Ratings,2,for,9,NA,NA,NA,NA,NA,NA,NA,ACCEPT,NA,NA,batch9pro,batch9pro,24,48,1,Screen 1,continueButton,response_rating_scale_likert_active,92030.80000001192,NA,NA,Somewhat Agree,1,0,1,0,NA,NA,NA,NA,1,statements,my body my choice sort of argument,1,17/06/2021 12:58,17/06/2021 13:06,IP Address,For (I feel positively about the vaccines),Rarely,Rarely,19,Male,NA,A levels,choice,84,3,For,Against
51,1659976220068,08/08/2022 16:30:20,1659976219538,1,08/08/2022 17:30:19,94826,3,task-xidh,NA,23527566,6895773,NA,complete,NA,62f1386f0b24dc130bf0d8e2,computer,Desktop or Laptop,Windows 10,Chrome 104.0.0.0,2560x1440,2560x1335,NA,ITT Ratings,2,for,9,NA,NA,NA,NA,NA,NA,NA,ACCEPT,NA,NA,batch9pro,batch9pro,12,49,1,Screen 1,continueButton,response_rating_scale_likert_active,2172.2000000476837,NA,NA,Agree,1,0,1,0,NA,NA,NA,NA,1,statements,I'm healthy so I won't die from it,1,17/06/2021 12:57,17/06/2021 13:06,IP Address,For (I feel positively about the vaccines),Never,Rarely,28,Female,NA,"Undergraduate degree (BSc, BA)",choice,82,3,For,Against
52,1659976223821,08/08/2022 16:30:23,1659976223291,1,08/08/2022 17:30:23,94826,3,task-xidh,NA,23527566,6895773,NA,complete,NA,62f1386f0b24dc130bf0d8e2,computer,Desktop or Laptop,Windows 10,Chrome 104.0.0.0,2560x1440,2560x1335,NA,ITT Ratings,2,for,9,NA,NA,NA,NA,NA,NA,NA,ACCEPT,NA,NA,batch9pro,batch9pro,3,50,1,Screen 1,continueButton,response_rating_scale_likert_active,3747.199999988079,NA,NA,Somewhat Disagree,1,0,1,0,NA,NA,NA,NA,1,statements,We would like to check you are reading each argument carefully. Please select 'Somewhat Disagree' for this answer,1,NA,NA,NA,NA,NA,NA,NA,NA,NA,NA,NA,NA,check2,NA,NA
53,1659976284446,08/08/2022 16:31:24,1659976283916,1,08/08/2022 17:31:23,94826,3,task-xidh,NA,23527566,6895773,NA,complete,NA,62f1386f0b24dc130bf0d8e2,computer,Desktop or Laptop,Windows 10,Chrome 104.0.0.0,2560x1440,2560x1335,NA,ITT Ratings,2,for,9,NA,NA,NA,NA,NA,NA,NA,ACCEPT,NA,NA,batch9pro,batch9pro,7,51,1,Screen 1,continueButton,response_rating_scale_likert_active,60617.5,NA,NA,Neither Agree nor Disagree,1,0,1,0,NA,NA,NA,NA,1,statements,I will be fully protected from covid 19 and protect those around me,1,17/06/2021 12:57,17/06/2021 13:05,IP Address,For (I feel positively about the vaccines),Rarely,Most weeks,31,Male,NA,"Undergraduate degree (BSc, BA)",choice,81,1,For,For
54,1659976340656,08/08/2022 16:32:20,1659976340116,1,08/08/2022 17:32:20,94826,3,task-xidh,NA,23527566,6895773,NA,complete,NA,62f1386f0b24dc130bf0d8e2,computer,Desktop or Laptop,Windows 10,Chrome 104.0.0.0,2560x1440,2560x1335,NA,ITT Ratings,2,for,9,NA,NA,NA,NA,NA,NA,NA,ACCEPT,NA,NA,batch9pro,batch9pro,27,52,1,Screen 1,continueButton,response_rating_scale_likert_active,56193.10000002384,NA,NA,Agree,1,0,1,0,NA,NA,NA,NA,1,statements,hope for herd immunity,1,17/06/2021 12:58,17/06/2021 13:06,IP Address,For (I feel positively about the vaccines),Rarely,Rarely,19,Male,NA,A levels,choice,84,3,For,For
55,1659976342677,08/08/2022 16:32:22,1659976342143,1,08/08/2022 17:32:22,94826,3,task-xidh,NA,23527566,6895773,NA,complete,NA,62f1386f0b24dc130bf0d8e2,computer,Desktop or Laptop,Windows 10,Chrome 104.0.0.0,2560x1440,2560x1335,NA,ITT Ratings,2,for,9,NA,NA,NA,NA,NA,NA,NA,ACCEPT,NA,NA,batch9pro,batch9pro,15,53,1,Screen 1,continueButton,response_rating_scale_likert_active,2020.600000023842,NA,NA,Somewhat Disagree,1,0,1,0,NA,NA,NA,NA,1,statements,It's been tested and shown to work,1,17/06/2021 12:57,17/06/2021 13:06,IP Address,For (I feel positively about the vaccines),Never,Rarely,28,Female,NA,"Undergraduate degree (BSc, BA)",choice,82,3,For,For
56,1659976346512,08/08/2022 16:32:26,1659976345989,1,08/08/2022 17:32:25,94826,3,task-xidh,NA,23527566,6895773,NA,complete,NA,62f1386f0b24dc130bf0d8e2,computer,Desktop or Laptop,Windows 10,Chrome 104.0.0.0,2560x1440,2560x1335,NA,ITT Ratings,2,for,9,NA,NA,NA,NA,NA,NA,NA,ACCEPT,NA,NA,batch9pro,batch9pro,13,54,1,Screen 1,continueButton,response_rating_scale_likert_active,3838.300000011921,NA,NA,Somewhat Agree,1,0,1,0,NA,NA,NA,NA,1,statements,It protects my family,1,17/06/2021 12:57,17/06/2021 13:06,IP Address,For (I feel positively about the vaccines),Never,Rarely,28,Female,NA,"Undergraduate degree (BSc, BA)",choice,82,1,For,For
57,1659976349689,08/08/2022 16:32:29,1659976349156,1,08/08/2022 17:32:29,94826,3,task-xidh,NA,23527566,6895773,NA,complete,NA,62f1386f0b24dc130bf0d8e2,computer,Desktop or Laptop,Windows 10,Chrome 104.0.0.0,2560x1440,2560x1335,NA,ITT Ratings,2,for,9,NA,NA,NA,NA,NA,NA,NA,ACCEPT,NA,NA,batch9pro,batch9pro,60,55,1,Screen 1,continueButton,response_rating_scale_likert_active,3159.899999976158,NA,NA,Somewhat Agree,1,0,1,0,NA,NA,NA,NA,1,statements,We don't know how effective the vaccine is yet,1,17/06/2021 12:53,17/06/2021 13:08,IP Address,For (I feel positively about the vaccines),Most weeks,Most months,25,Female,NA,"Undergraduate degree (BSc, BA)",control,90,3,For,Against
58,1659976354733,08/08/2022 16:32:34,1659976354214,1,08/08/2022 17:32:34,94826,3,task-xidh,NA,23527566,6895773,NA,complete,NA,62f1386f0b24dc130bf0d8e2,computer,Desktop or Laptop,Windows 10,Chrome 104.0.0.0,2560x1440,2560x1335,NA,ITT Ratings,2,for,9,NA,NA,NA,NA,NA,NA,NA,ACCEPT,NA,NA,batch9pro,batch9pro,45,56,1,Screen 1,continueButton,response_rating_scale_likert_active,5051.400000035763,NA,NA,Somewhat Agree,1,0,1,0,NA,NA,NA,NA,1,statements,I want to protect loved ones,1,17/06/2021 12:58,17/06/2021 13:06,IP Address,For (I feel positively about the vaccines),Never,Most months,35,Female,NA,A levels,control,87,3,For,For
59,1659976357959,08/08/2022 16:32:37,1659976357405,1,08/08/2022 17:32:37,94826,3,task-xidh,NA,23527566,6895773,NA,complete,NA,62f1386f0b24dc130bf0d8e2,computer,Desktop or Laptop,Windows 10,Chrome 104.0.0.0,2560x1440,2560x1335,NA,ITT Ratings,2,for,9,NA,NA,NA,NA,NA,NA,NA,ACCEPT,NA,NA,batch9pro,batch9pro,11,57,1,Screen 1,continueButton,response_rating_scale_likert_active,3183.5,NA,NA,Neither Agree nor Disagree,1,0,1,0,NA,NA,NA,NA,1,statements,I'm only young so I don't need it,1,17/06/2021 12:57,17/06/2021 13:06,IP Address,For (I feel positively about the vaccines),Never,Rarely,28,Female,NA,"Undergraduate degree (BSc, BA)",choice,82,2,For,Against
60,1659976360888,08/08/2022 16:32:40,1659976360357,1,08/08/2022 17:32:40,94826,3,task-xidh,NA,23527566,6895773,NA,complete,NA,62f1386f0b24dc130bf0d8e2,computer,Desktop or Laptop,Windows 10,Chrome 104.0.0.0,2560x1440,2560x1335,NA,ITT Ratings,2,for,9,NA,NA,NA,NA,NA,NA,NA,ACCEPT,NA,NA,batch9pro,batch9pro,9,58,1,Screen 1,continueButton,response_rating_scale_likert_active,2945.300000011921,NA,NA,Somewhat Agree,1,0,1,0,NA,NA,NA,NA,1,statements,It will enable the country to come out of lockdown quicker if more people are vaccinated,1,17/06/2021 12:57,17/06/2021 13:05,IP Address,For (I feel positively about the vaccines),Rarely,Most weeks,31,Male,NA,"Undergraduate degree (BSc, BA)",choice,81,3,For,For
61,1659976363150,08/08/2022 16:32:43,1659976362618,1,08/08/2022 17:32:42,94826,3,task-xidh,NA,23527566,6895773,NA,complete,NA,62f1386f0b24dc130bf0d8e2,computer,Desktop or Laptop,Windows 10,Chrome 104.0.0.0,2560x1440,2560x1335,NA,ITT Ratings,2,for,9,NA,NA,NA,NA,NA,NA,NA,ACCEPT,NA,NA,batch9pro,batch9pro,21,59,1,Screen 1,continueButton,response_rating_scale_likert_active,2254,NA,NA,Somewhat Agree,1,0,1,0,NA,NA,NA,NA,1,statements,I want to protect my family and friends,1,17/06/2021 12:57,17/06/2021 13:06,IP Address,For (I feel positively about the vaccines),Rarely,A few times a year,31,Female,NA,"Undergraduate degree (BSc, BA)",choice,83,3,For,For
62,1659976365439,08/08/2022 16:32:45,1659976364844,1,08/08/2022 17:32:44,94826,3,task-xidh,NA,23527566,6895773,NA,complete,NA,62f1386f0b24dc130bf0d8e2,computer,Desktop or Laptop,Windows 10,Chrome 104.0.0.0,2560x1440,2560x1335,NA,ITT Ratings,2,for,9,NA,NA,NA,NA,NA,NA,NA,ACCEPT,NA,NA,batch9pro,batch9pro,32,60,1,Screen 1,continueButton,response_rating_scale_likert_active,2218.399999976158,NA,NA,Neither Agree nor Disagree,1,0,1,0,NA,NA,NA,NA,1,statements,Do not want to catch covid,1,17/06/2021 12:58,17/06/2021 13:06,IP Address,For (I feel positively about the vaccines),Rarely,Most weeks,57,Female,NA,"Undergraduate degree (BSc, BA)",control,85,2,For,For
63,1659976368522,08/08/2022 16:32:48,1659976367995,1,08/08/2022 17:32:47,94826,3,task-xidh,NA,23527566,6895773,NA,complete,NA,62f1386f0b24dc130bf0d8e2,computer,Desktop or Laptop,Windows 10,Chrome 104.0.0.0,2560x1440,2560x1335,NA,ITT Ratings,2,for,9,NA,NA,NA,NA,NA,NA,NA,ACCEPT,NA,NA,batch9pro,batch9pro,55,61,1,Screen 1,continueButton,response_rating_scale_likert_active,3146.399999976158,NA,NA,Somewhat Agree,1,0,1,0,NA,NA,NA,NA,1,statements,I want to protect myself and my family,1,17/06/2021 12:53,17/06/2021 13:08,IP Address,For (I feel positively about the vaccines),A few times a year,Rarely,33,Female,NA,"Undergraduate degree (BSc, BA)",control,89,1,For,For
64,1659976370572,08/08/2022 16:32:50,1659976370031,1,08/08/2022 17:32:50,94826,3,task-xidh,NA,23527566,6895773,NA,complete,NA,62f1386f0b24dc130bf0d8e2,computer,Desktop or Laptop,Windows 10,Chrome 104.0.0.0,2560x1440,2560x1335,NA,ITT Ratings,2,for,9,NA,NA,NA,NA,NA,NA,NA,ACCEPT,NA,NA,batch9pro,batch9pro,35,62,1,Screen 1,continueButton,response_rating_scale_likert_active,2031,NA,NA,Somewhat Disagree,1,0,1,0,NA,NA,NA,NA,1,statements,the side effects short term and long term,1,17/06/2021 12:55,17/06/2021 13:06,IP Address,For (I feel positively about the vaccines),Rarely,Most days,19,Female,NA,A levels,control,86,2,For,Against
65,1659976370647,08/08/2022 16:32:50,1659976370034,1,08/08/2022 17:32:50,94826,3,task-xidh,NA,23527566,6895773,NA,complete,NA,62f1386f0b24dc130bf0d8e2,computer,Desktop or Laptop,Windows 10,Chrome 104.0.0.0,2560x1440,2560x1335,NA,ITT Ratings,2,for,9,NA,NA,NA,NA,NA,NA,NA,ACCEPT,NA,NA,batch9pro,NA,NA,END TASK,NA,NA,NA,NA,528756,NA,NA,NA,NA,0,1,0,NA,NA,NA,NA,NA,NA,NA,NA,NA,NA,NA,NA,NA,NA,NA,NA,NA,NA,NA,NA,NA,NA,NA
1,1659975892669,08/08/2022 16:24:52,1659975893110,1,08/08/2022 17:24:53,94826,3,task-xidh,NA,23527590,6895782,NA,complete,NA,62f138b1660a32715375edf3,computer,Desktop or Laptop,Windows 10,Firefox 103.0,1920x1080,1920x927,NA,ITT Ratings,2,for,9,NA,NA,NA,NA,NA,NA,NA,ACCEPT,NA,NA,batch9pro,NA,NA,BEGIN TASK,NA,NA,NA,NA,NA,NA,NA,NA,NA,0,1,0,NA,NA,NA,NA,NA,NA,NA,NA,NA,NA,NA,NA,NA,NA,NA,NA,NA,NA,NA,NA,NA,NA,NA
2,1659975900170,08/08/2022 16:25:00,1659975900681,1,08/08/2022 17:25:00,94826,3,task-xidh,NA,23527590,6895782,NA,complete,NA,62f138b1660a32715375edf3,computer,Desktop or Laptop,Windows 10,Firefox 103.0,1920x1080,1920x927,NA,ITT Ratings,2,for,9,NA,NA,NA,NA,NA,NA,NA,ACCEPT,NA,NA,batch9pro,batch9pro,1,1,1,Screen 1,advancementZone,continue_button,7539,NA,NA,NA,NA,0,1,0,NA,NA,NA,NA,NA,instructions,NA,NA,NA,NA,NA,NA,NA,NA,NA,NA,NA,NA,NA,NA,NA,NA,NA
3,1659975909880,08/08/2022 16:25:09,1659975910390,1,08/08/2022 17:25:10,94826,3,task-xidh,NA,23527590,6895782,NA,complete,NA,62f138b1660a32715375edf3,computer,Desktop or Laptop,Windows 10,Firefox 103.0,1920x1080,1920x927,NA,ITT Ratings,2,for,9,NA,NA,NA,NA,NA,NA,NA,ACCEPT,NA,NA,batch9pro,batch9pro,23,1,1,Screen 1,continueButton,response_rating_scale_likert_active,9693,NA,NA,Somewhat Disagree,1,0,1,0,NA,NA,NA,NA,1,statements,thinking its a means of government control (conspiracy),1,17/06/2021 12:58,17/06/2021 13:06,IP Address,For (I feel positively about the vaccines),Rarely,Rarely,19,Male,NA,A levels,choice,84,2,For,Against
4,1659975913493,08/08/2022 16:25:13,1659975913986,1,08/08/2022 17:25:13,94826,3,task-xidh,NA,23527590,6895782,NA,complete,NA,62f138b1660a32715375edf3,computer,Desktop or Laptop,Windows 10,Firefox 103.0,1920x1080,1920x927,NA,ITT Ratings,2,for,9,NA,NA,NA,NA,NA,NA,NA,ACCEPT,NA,NA,batch9pro,batch9pro,21,2,1,Screen 1,continueButton,response_rating_scale_likert_active,3586,NA,NA,Somewhat Agree,1,0,1,0,NA,NA,NA,NA,1,statements,I want to protect my family and friends,1,17/06/2021 12:57,17/06/2021 13:06,IP Address,For (I feel positively about the vaccines),Rarely,A few times a year,31,Female,NA,"Undergraduate degree (BSc, BA)",choice,83,3,For,For
5,1659975915413,08/08/2022 16:25:15,1659975915920,1,08/08/2022 17:25:15,94826,3,task-xidh,NA,23527590,6895782,NA,complete,NA,62f138b1660a32715375edf3,computer,Desktop or Laptop,Windows 10,Firefox 103.0,1920x1080,1920x927,NA,ITT Ratings,2,for,9,NA,NA,NA,NA,NA,NA,NA,ACCEPT,NA,NA,batch9pro,batch9pro,19,3,1,Screen 1,continueButton,response_rating_scale_likert_active,1925,NA,NA,Somewhat Agree,1,0,1,0,NA,NA,NA,NA,1,statements,I want to get back to normality,1,17/06/2021 12:57,17/06/2021 13:06,IP Address,For (I feel positively about the vaccines),Rarely,A few times a year,31,Female,NA,"Undergraduate degree (BSc, BA)",choice,83,1,For,For
6,1659975917381,08/08/2022 16:25:17,1659975917870,1,08/08/2022 17:25:17,94826,3,task-xidh,NA,23527590,6895782,NA,complete,NA,62f138b1660a32715375edf3,computer,Desktop or Laptop,Windows 10,Firefox 103.0,1920x1080,1920x927,NA,ITT Ratings,2,for,9,NA,NA,NA,NA,NA,NA,NA,ACCEPT,NA,NA,batch9pro,batch9pro,14,4,1,Screen 1,continueButton,response_rating_scale_likert_active,1940,NA,NA,Neither Agree nor Disagree,1,0,1,0,NA,NA,NA,NA,1,statements,It will get everyone safer,1,17/06/2021 12:57,17/06/2021 13:06,IP Address,For (I feel positively about the vaccines),Never,Rarely,28,Female,NA,"Undergraduate degree (BSc, BA)",choice,82,2,For,For
7,1659975922447,08/08/2022 16:25:22,1659975922956,1,08/08/2022 17:25:22,94826,3,task-xidh,NA,23527590,6895782,NA,complete,NA,62f138b1660a32715375edf3,computer,Desktop or Laptop,Windows 10,Firefox 103.0,1920x1080,1920x927,NA,ITT Ratings,2,for,9,NA,NA,NA,NA,NA,NA,NA,ACCEPT,NA,NA,batch9pro,batch9pro,20,5,1,Screen 1,continueButton,response_rating_scale_likert_active,5079,NA,NA,Somewhat Agree,1,0,1,0,NA,NA,NA,NA,1,statements,I don't want to risk dying,1,17/06/2021 12:57,17/06/2021 13:06,IP Address,For (I feel positively about the vaccines),Rarely,A few times a year,31,Female,NA,"Undergraduate degree (BSc, BA)",choice,83,2,For,For
8,1659975923834,08/08/2022 16:25:23,1659975924346,1,08/08/2022 17:25:24,94826,3,task-xidh,NA,23527590,6895782,NA,complete,NA,62f138b1660a32715375edf3,computer,Desktop or Laptop,Windows 10,Firefox 103.0,1920x1080,1920x927,NA,ITT Ratings,2,for,9,NA,NA,NA,NA,NA,NA,NA,ACCEPT,NA,NA,batch9pro,batch9pro,55,6,1,Screen 1,continueButton,response_rating_scale_likert_active,1382,NA,NA,Somewhat Agree,1,0,1,0,NA,NA,NA,NA,1,statements,I want to protect myself and my family,1,17/06/2021 12:53,17/06/2021 13:08,IP Address,For (I feel positively about the vaccines),A few times a year,Rarely,33,Female,NA,"Undergraduate degree (BSc, BA)",control,89,1,For,For
9,1659975927197,08/08/2022 16:25:27,1659975927706,1,08/08/2022 17:25:27,94826,3,task-xidh,NA,23527590,6895782,NA,complete,NA,62f138b1660a32715375edf3,computer,Desktop or Laptop,Windows 10,Firefox 103.0,1920x1080,1920x927,NA,ITT Ratings,2,for,9,NA,NA,NA,NA,NA,NA,NA,ACCEPT,NA,NA,batch9pro,batch9pro,51,7,1,Screen 1,continueButton,response_rating_scale_likert_active,3349,NA,NA,Somewhat Disagree,1,0,1,0,NA,NA,NA,NA,1,statements,I believe the vaccine is safe.,1,17/06/2021 13:00,17/06/2021 13:07,IP Address,For (I feel positively about the vaccines),A few times a year,Most months,31,Female,NA,"Undergraduate degree (BSc, BA)",choice,88,3,For,For
10,1659975934326,08/08/2022 16:25:34,1659975934834,1,08/08/2022 17:25:34,94826,3,task-xidh,NA,23527590,6895782,NA,complete,NA,62f138b1660a32715375edf3,computer,Desktop or Laptop,Windows 10,Firefox 103.0,1920x1080,1920x927,NA,ITT Ratings,2,for,9,NA,NA,NA,NA,NA,NA,NA,ACCEPT,NA,NA,batch9pro,batch9pro,28,8,1,Screen 1,continueButton,response_rating_scale_likert_active,7120,NA,NA,Somewhat Agree,1,0,1,0,NA,NA,NA,NA,1,statements,The time factor - trials can take up to 10 years,1,17/06/2021 12:58,17/06/2021 13:06,IP Address,For (I feel positively about the vaccines),Rarely,Most weeks,57,Female,NA,"Undergraduate degree (BSc, BA)",control,85,1,For,Against
11,1659975937595,08/08/2022 16:25:37,1659975938109,1,08/08/2022 17:25:38,94826,3,task-xidh,NA,23527590,6895782,NA,complete,NA,62f138b1660a32715375edf3,computer,Desktop or Laptop,Windows 10,Firefox 103.0,1920x1080,1920x927,NA,ITT Ratings,2,for,9,NA,NA,NA,NA,NA,NA,NA,ACCEPT,NA,NA,batch9pro,batch9pro,47,9,1,Screen 1,continueButton,response_rating_scale_likert_active,3267,NA,NA,Agree,1,0,1,0,NA,NA,NA,NA,1,statements,I don't trust the government/pharmaceutical industry to have produced a (safe) vaccine in the timeframe.,1,17/06/2021 13:00,17/06/2021 13:07,IP Address,For (I feel positively about the vaccines),A few times a year,Most months,31,Female,NA,"Undergraduate degree (BSc, BA)",choice,88,2,For,Against
12,1659975940218,08/08/2022 16:25:40,1659975940729,1,08/08/2022 17:25:40,94826,3,task-xidh,NA,23527590,6895782,NA,complete,NA,62f138b1660a32715375edf3,computer,Desktop or Laptop,Windows 10,Firefox 103.0,1920x1080,1920x927,NA,ITT Ratings,2,for,9,NA,NA,NA,NA,NA,NA,NA,ACCEPT,NA,NA,batch9pro,batch9pro,6,10,1,Screen 1,continueButton,response_rating_scale_likert_active,2603,NA,NA,Somewhat Disagree,1,0,1,0,NA,NA,NA,NA,1,statements,Don't believe that any vaccines are effective,1,17/06/2021 12:57,17/06/2021 13:05,IP Address,For (I feel positively about the vaccines),Rarely,Most weeks,31,Male,NA,"Undergraduate degree (BSc, BA)",choice,81,3,For,Against
13,1659975943419,08/08/2022 16:25:43,1659975943881,1,08/08/2022 17:25:43,94826,3,task-xidh,NA,23527590,6895782,NA,complete,NA,62f138b1660a32715375edf3,computer,Desktop or Laptop,Windows 10,Firefox 103.0,1920x1080,1920x927,NA,ITT Ratings,2,for,9,NA,NA,NA,NA,NA,NA,NA,ACCEPT,NA,NA,batch9pro,batch9pro,17,11,1,Screen 1,continueButton,response_rating_scale_likert_active,3141,NA,NA,Agree,1,0,1,0,NA,NA,NA,NA,1,statements,We don't know how long it works for,1,17/06/2021 12:57,17/06/2021 13:06,IP Address,For (I feel positively about the vaccines),Rarely,A few times a year,31,Female,NA,"Undergraduate degree (BSc, BA)",choice,83,2,For,Against
14,1659975945625,08/08/2022 16:25:45,1659975946137,1,08/08/2022 17:25:46,94826,3,task-xidh,NA,23527590,6895782,NA,complete,NA,62f138b1660a32715375edf3,computer,Desktop or Laptop,Windows 10,Firefox 103.0,1920x1080,1920x927,NA,ITT Ratings,2,for,9,NA,NA,NA,NA,NA,NA,NA,ACCEPT,NA,NA,batch9pro,batch9pro,11,12,1,Screen 1,continueButton,response_rating_scale_likert_active,2245,NA,NA,Somewhat Agree,1,0,1,0,NA,NA,NA,NA,1,statements,I'm only young so I don't need it,1,17/06/2021 12:57,17/06/2021 13:06,IP Address,For (I feel positively about the vaccines),Never,Rarely,28,Female,NA,"Undergraduate degree (BSc, BA)",choice,82,2,For,Against
15,1659975951277,08/08/2022 16:25:51,1659975951782,1,08/08/2022 17:25:51,94826,3,task-xidh,NA,23527590,6895782,NA,complete,NA,62f138b1660a32715375edf3,computer,Desktop or Laptop,Windows 10,Firefox 103.0,1920x1080,1920x927,NA,ITT Ratings,2,for,9,NA,NA,NA,NA,NA,NA,NA,ACCEPT,NA,NA,batch9pro,batch9pro,8,13,1,Screen 1,continueButton,response_rating_scale_likert_active,5637,NA,NA,Somewhat Disagree,1,0,1,0,NA,NA,NA,NA,1,statements,Vaccines are well researched and tested before being distributed to the public,1,17/06/2021 12:57,17/06/2021 13:05,IP Address,For (I feel positively about the vaccines),Rarely,Most weeks,31,Male,NA,"Undergraduate degree (BSc, BA)",choice,81,2,For,For
16,1659975957543,08/08/2022 16:25:57,1659975958049,1,08/08/2022 17:25:58,94826,3,task-xidh,NA,23527590,6895782,NA,complete,NA,62f138b1660a32715375edf3,computer,Desktop or Laptop,Windows 10,Firefox 103.0,1920x1080,1920x927,NA,ITT Ratings,2,for,9,NA,NA,NA,NA,NA,NA,NA,ACCEPT,NA,NA,batch9pro,batch9pro,29,14,1,Screen 1,continueButton,response_rating_scale_likert_active,6259,NA,NA,Disagree,1,0,1,0,NA,NA,NA,NA,1,statements,Against any type of vaccinations,1,17/06/2021 12:58,17/06/2021 13:06,IP Address,For (I feel positively about the vaccines),Rarely,Most weeks,57,Female,NA,"Undergraduate degree (BSc, BA)",control,85,2,For,Against
17,1659975961122,08/08/2022 16:26:01,1659975961629,1,08/08/2022 17:26:01,94826,3,task-xidh,NA,23527590,6895782,NA,complete,NA,62f138b1660a32715375edf3,computer,Desktop or Laptop,Windows 10,Firefox 103.0,1920x1080,1920x927,NA,ITT Ratings,2,for,9,NA,NA,NA,NA,NA,NA,NA,ACCEPT,NA,NA,batch9pro,batch9pro,50,15,1,Screen 1,continueButton,response_rating_scale_likert_active,3571,NA,NA,Disagree,1,0,1,0,NA,NA,NA,NA,1,statements,I want to help society return to normality as soon as possible.,1,17/06/2021 13:00,17/06/2021 13:07,IP Address,For (I feel positively about the vaccines),A few times a year,Most months,31,Female,NA,"Undergraduate degree (BSc, BA)",choice,88,2,For,For
18,1659975964091,08/08/2022 16:26:04,1659975964610,1,08/08/2022 17:26:04,94826,3,task-xidh,NA,23527590,6895782,NA,complete,NA,62f138b1660a32715375edf3,computer,Desktop or Laptop,Windows 10,Firefox 103.0,1920x1080,1920x927,NA,ITT Ratings,2,for,9,NA,NA,NA,NA,NA,NA,NA,ACCEPT,NA,NA,batch9pro,batch9pro,57,16,1,Screen 1,continueButton,response_rating_scale_likert_active,2972,NA,NA,Somewhat Agree,1,0,1,0,NA,NA,NA,NA,1,statements,I trust that this vaccine will work,1,17/06/2021 12:53,17/06/2021 13:08,IP Address,For (I feel positively about the vaccines),A few times a year,Rarely,33,Female,NA,"Undergraduate degree (BSc, BA)",control,89,3,For,For
19,1659975967783,08/08/2022 16:26:07,1659975968301,1,08/08/2022 17:26:08,94826,3,task-xidh,NA,23527590,6895782,NA,complete,NA,62f138b1660a32715375edf3,computer,Desktop or Laptop,Windows 10,Firefox 103.0,1920x1080,1920x927,NA,ITT Ratings,2,for,9,NA,NA,NA,NA,NA,NA,NA,ACCEPT,NA,NA,batch9pro,batch9pro,33,17,1,Screen 1,continueButton,response_rating_scale_likert_active,3683,NA,NA,Somewhat Agree,1,0,1,0,NA,NA,NA,NA,1,statements,Being vaccinated gives more freedom to open up the world again,1,17/06/2021 12:58,17/06/2021 13:06,IP Address,For (I feel positively about the vaccines),Rarely,Most weeks,57,Female,NA,"Undergraduate degree (BSc, BA)",control,85,3,For,For
20,1659975972421,08/08/2022 16:26:12,1659975972941,1,08/08/2022 17:26:12,94826,3,task-xidh,NA,23527590,6895782,NA,complete,NA,62f138b1660a32715375edf3,computer,Desktop or Laptop,Windows 10,Firefox 103.0,1920x1080,1920x927,NA,ITT Ratings,2,for,9,NA,NA,NA,NA,NA,NA,NA,ACCEPT,NA,NA,batch9pro,batch9pro,3,18,1,Screen 1,continueButton,response_rating_scale_likert_active,4632,NA,NA,Somewhat Disagree,1,0,1,0,NA,NA,NA,NA,1,statements,We would like to check you are reading each argument carefully. Please select 'Somewhat Disagree' for this answer,1,NA,NA,NA,NA,NA,NA,NA,NA,NA,NA,NA,NA,check2,NA,NA
21,1659975974412,08/08/2022 16:26:14,1659975974918,1,08/08/2022 17:26:14,94826,3,task-xidh,NA,23527590,6895782,NA,complete,NA,62f138b1660a32715375edf3,computer,Desktop or Laptop,Windows 10,Firefox 103.0,1920x1080,1920x927,NA,ITT Ratings,2,for,9,NA,NA,NA,NA,NA,NA,NA,ACCEPT,NA,NA,batch9pro,batch9pro,2,19,1,Screen 1,continueButton,response_rating_scale_likert_active,1970,NA,NA,Somewhat Agree,1,0,1,0,NA,NA,NA,NA,1,statements,We would like to check you are reading each argument carefully. Please select 'Somewhat Agree' for this answer,1,NA,NA,NA,NA,NA,NA,NA,NA,NA,NA,NA,NA,check1,NA,NA
22,1659975984220,08/08/2022 16:26:24,1659975984738,1,08/08/2022 17:26:24,94826,3,task-xidh,NA,23527590,6895782,NA,complete,NA,62f138b1660a32715375edf3,computer,Desktop or Laptop,Windows 10,Firefox 103.0,1920x1080,1920x927,NA,ITT Ratings,2,for,9,NA,NA,NA,NA,NA,NA,NA,ACCEPT,NA,NA,batch9pro,batch9pro,10,20,1,Screen 1,continueButton,response_rating_scale_likert_active,9812,NA,NA,Somewhat Agree,1,0,1,0,NA,NA,NA,NA,1,statements,Time of development,1,17/06/2021 12:57,17/06/2021 13:06,IP Address,For (I feel positively about the vaccines),Never,Rarely,28,Female,NA,"Undergraduate degree (BSc, BA)",choice,82,1,For,Against
23,1659975987521,08/08/2022 16:26:27,1659975988030,1,08/08/2022 17:26:28,94826,3,task-xidh,NA,23527590,6895782,NA,complete,NA,62f138b1660a32715375edf3,computer,Desktop or Laptop,Windows 10,Firefox 103.0,1920x1080,1920x927,NA,ITT Ratings,2,for,9,NA,NA,NA,NA,NA,NA,NA,ACCEPT,NA,NA,batch9pro,batch9pro,5,21,1,Screen 1,continueButton,response_rating_scale_likert_active,3283,NA,NA,Strongly Disagree,1,0,1,0,NA,NA,NA,NA,1,statements,The government can track me if I take the vaccine,1,17/06/2021 12:57,17/06/2021 13:05,IP Address,For (I feel positively about the vaccines),Rarely,Most weeks,31,Male,NA,"Undergraduate degree (BSc, BA)",choice,81,2,For,Against
24,1659975989656,08/08/2022 16:26:29,1659975990164,1,08/08/2022 17:26:30,94826,3,task-xidh,NA,23527590,6895782,NA,complete,NA,62f138b1660a32715375edf3,computer,Desktop or Laptop,Windows 10,Firefox 103.0,1920x1080,1920x927,NA,ITT Ratings,2,for,9,NA,NA,NA,NA,NA,NA,NA,ACCEPT,NA,NA,batch9pro,batch9pro,56,22,1,Screen 1,continueButton,response_rating_scale_likert_active,2126,NA,NA,Agree,1,0,1,0,NA,NA,NA,NA,1,statements,I don't want to catch covid,1,17/06/2021 12:53,17/06/2021 13:08,IP Address,For (I feel positively about the vaccines),A few times a year,Rarely,33,Female,NA,"Undergraduate degree (BSc, BA)",control,89,2,For,For
25,1659975993574,08/08/2022 16:26:33,1659975994079,1,08/08/2022 17:26:34,94826,3,task-xidh,NA,23527590,6895782,NA,complete,NA,62f138b1660a32715375edf3,computer,Desktop or Laptop,Windows 10,Firefox 103.0,1920x1080,1920x927,NA,ITT Ratings,2,for,9,NA,NA,NA,NA,NA,NA,NA,ACCEPT,NA,NA,batch9pro,batch9pro,63,23,1,Screen 1,continueButton,response_rating_scale_likert_active,3908,NA,NA,Somewhat Agree,1,0,1,0,NA,NA,NA,NA,1,statements,I want to help with group immunity for those who are unable to have vaccines,1,17/06/2021 12:53,17/06/2021 13:08,IP Address,For (I feel positively about the vaccines),Most weeks,Most months,25,Female,NA,"Undergraduate degree (BSc, BA)",control,90,3,For,For
26,1659975995916,08/08/2022 16:26:35,1659975996423,1,08/08/2022 17:26:36,94826,3,task-xidh,NA,23527590,6895782,NA,complete,NA,62f138b1660a32715375edf3,computer,Desktop or Laptop,Windows 10,Firefox 103.0,1920x1080,1920x927,NA,ITT Ratings,2,for,9,NA,NA,NA,NA,NA,NA,NA,ACCEPT,NA,NA,batch9pro,batch9pro,7,24,1,Screen 1,continueButton,response_rating_scale_likert_active,2337,NA,NA,Somewhat Agree,1,0,1,0,NA,NA,NA,NA,1,statements,I will be fully protected from covid 19 and protect those around me,1,17/06/2021 12:57,17/06/2021 13:05,IP Address,For (I feel positively about the vaccines),Rarely,Most weeks,31,Male,NA,"Undergraduate degree (BSc, BA)",choice,81,1,For,For
27,1659975998285,08/08/2022 16:26:38,1659975998806,1,08/08/2022 17:26:38,94826,3,task-xidh,NA,23527590,6895782,NA,complete,NA,62f138b1660a32715375edf3,computer,Desktop or Laptop,Windows 10,Firefox 103.0,1920x1080,1920x927,NA,ITT Ratings,2,for,9,NA,NA,NA,NA,NA,NA,NA,ACCEPT,NA,NA,batch9pro,batch9pro,48,25,1,Screen 1,continueButton,response_rating_scale_likert_active,2376,NA,NA,Disagree,1,0,1,0,NA,NA,NA,NA,1,statements,I don't believe in Covid-19.,1,17/06/2021 13:00,17/06/2021 13:07,IP Address,For (I feel positively about the vaccines),A few times a year,Most months,31,Female,NA,"Undergraduate degree (BSc, BA)",choice,88,3,For,Against
28,1659976002559,08/08/2022 16:26:42,1659976003080,1,08/08/2022 17:26:43,94826,3,task-xidh,NA,23527590,6895782,NA,complete,NA,62f138b1660a32715375edf3,computer,Desktop or Laptop,Windows 10,Firefox 103.0,1920x1080,1920x927,NA,ITT Ratings,2,for,9,NA,NA,NA,NA,NA,NA,NA,ACCEPT,NA,NA,batch9pro,batch9pro,42,26,1,Screen 1,continueButton,response_rating_scale_likert_active,4267,NA,NA,Somewhat Disagree,1,0,1,0,NA,NA,NA,NA,1,statements,You will get a blood clot,1,17/06/2021 12:58,17/06/2021 13:06,IP Address,For (I feel positively about the vaccines),Never,Most months,35,Female,NA,A levels,control,87,3,For,Against
29,1659976012118,08/08/2022 16:26:52,1659976012616,1,08/08/2022 17:26:52,94826,3,task-xidh,NA,23527590,6895782,NA,complete,NA,62f138b1660a32715375edf3,computer,Desktop or Laptop,Windows 10,Firefox 103.0,1920x1080,1920x927,NA,ITT Ratings,2,for,9,NA,NA,NA,NA,NA,NA,NA,ACCEPT,NA,NA,batch9pro,batch9pro,38,27,1,Screen 1,continueButton,response_rating_scale_likert_active,9519,NA,NA,Somewhat Agree,1,0,1,0,NA,NA,NA,NA,1,statements,its about other peoples health swell as your own,1,17/06/2021 12:55,17/06/2021 13:06,IP Address,For (I feel positively about the vaccines),Rarely,Most days,19,Female,NA,A levels,control,86,2,For,For
30,1659976014957,08/08/2022 16:26:54,1659976015477,1,08/08/2022 17:26:55,94826,3,task-xidh,NA,23527590,6895782,NA,complete,NA,62f138b1660a32715375edf3,computer,Desktop or Laptop,Windows 10,Firefox 103.0,1920x1080,1920x927,NA,ITT Ratings,2,for,9,NA,NA,NA,NA,NA,NA,NA,ACCEPT,NA,NA,batch9pro,batch9pro,58,28,1,Screen 1,continueButton,response_rating_scale_likert_active,2850,NA,NA,Somewhat Agree,1,0,1,0,NA,NA,NA,NA,1,statements,The vaccine has been developed too quickly so they're not sure it's safe,1,17/06/2021 12:53,17/06/2021 13:08,IP Address,For (I feel positively about the vaccines),Most weeks,Most months,25,Female,NA,"Undergraduate degree (BSc, BA)",control,90,1,For,Against
31,1659976018899,08/08/2022 16:26:58,1659976019409,1,08/08/2022 17:26:59,94826,3,task-xidh,NA,23527590,6895782,NA,complete,NA,62f138b1660a32715375edf3,computer,Desktop or Laptop,Windows 10,Firefox 103.0,1920x1080,1920x927,NA,ITT Ratings,2,for,9,NA,NA,NA,NA,NA,NA,NA,ACCEPT,NA,NA,batch9pro,batch9pro,61,29,1,Screen 1,continueButton,response_rating_scale_likert_active,3921,NA,NA,Somewhat Disagree,1,0,1,0,NA,NA,NA,NA,1,statements,Scientists are recommending it and they know best,1,17/06/2021 12:53,17/06/2021 13:08,IP Address,For (I feel positively about the vaccines),Most weeks,Most months,25,Female,NA,"Undergraduate degree (BSc, BA)",control,90,1,For,For
32,1659976021623,08/08/2022 16:27:01,1659976022132,1,08/08/2022 17:27:02,94826,3,task-xidh,NA,23527590,6895782,NA,complete,NA,62f138b1660a32715375edf3,computer,Desktop or Laptop,Windows 10,Firefox 103.0,1920x1080,1920x927,NA,ITT Ratings,2,for,9,NA,NA,NA,NA,NA,NA,NA,ACCEPT,NA,NA,batch9pro,batch9pro,30,30,1,Screen 1,continueButton,response_rating_scale_likert_active,2715,NA,NA,Agree,1,0,1,0,NA,NA,NA,NA,1,statements,Possible side effects,1,17/06/2021 12:58,17/06/2021 13:06,IP Address,For (I feel positively about the vaccines),Rarely,Most weeks,57,Female,NA,"Undergraduate degree (BSc, BA)",control,85,3,For,Against
33,1659976023095,08/08/2022 16:27:03,1659976023597,1,08/08/2022 17:27:03,94826,3,task-xidh,NA,23527590,6895782,NA,complete,NA,62f138b1660a32715375edf3,computer,Desktop or Laptop,Windows 10,Firefox 103.0,1920x1080,1920x927,NA,ITT Ratings,2,for,9,NA,NA,NA,NA,NA,NA,NA,ACCEPT,NA,NA,batch9pro,batch9pro,26,31,1,Screen 1,continueButton,response_rating_scale_likert_active,1458,NA,NA,Somewhat Agree,1,0,1,0,NA,NA,NA,NA,1,statements,protecting those who are close to you,1,17/06/2021 12:58,17/06/2021 13:06,IP Address,For (I feel positively about the vaccines),Rarely,Rarely,19,Male,NA,A levels,choice,84,2,For,For
34,1659976025880,08/08/2022 16:27:05,1659976026391,1,08/08/2022 17:27:06,94826,3,task-xidh,NA,23527590,6895782,NA,complete,NA,62f138b1660a32715375edf3,computer,Desktop or Laptop,Windows 10,Firefox 103.0,1920x1080,1920x927,NA,ITT Ratings,2,for,9,NA,NA,NA,NA,NA,NA,NA,ACCEPT,NA,NA,batch9pro,batch9pro,36,32,1,Screen 1,continueButton,response_rating_scale_likert_active,2785,NA,NA,Agree,1,0,1,0,NA,NA,NA,NA,1,statements,the effectiveness hasn't really been proven,1,17/06/2021 12:55,17/06/2021 13:06,IP Address,For (I feel positively about the vaccines),Rarely,Most days,19,Female,NA,A levels,control,86,3,For,Against
35,1659976030339,08/08/2022 16:27:10,1659976030858,1,08/08/2022 17:27:10,94826,3,task-xidh,NA,23527590,6895782,NA,complete,NA,62f138b1660a32715375edf3,computer,Desktop or Laptop,Windows 10,Firefox 103.0,1920x1080,1920x927,NA,ITT Ratings,2,for,9,NA,NA,NA,NA,NA,NA,NA,ACCEPT,NA,NA,batch9pro,batch9pro,40,33,1,Screen 1,continueButton,response_rating_scale_likert_active,4458,NA,NA,Somewhat Agree,1,0,1,0,NA,NA,NA,NA,1,statements,There hasn't been long enough to develop a vaccination,1,17/06/2021 12:58,17/06/2021 13:06,IP Address,For (I feel positively about the vaccines),Never,Most months,35,Female,NA,A levels,control,87,1,For,Against
36,1659976031428,08/08/2022 16:27:11,1659976031934,1,08/08/2022 17:27:11,94826,3,task-xidh,NA,23527590,6895782,NA,complete,NA,62f138b1660a32715375edf3,computer,Desktop or Laptop,Windows 10,Firefox 103.0,1920x1080,1920x927,NA,ITT Ratings,2,for,9,NA,NA,NA,NA,NA,NA,NA,ACCEPT,NA,NA,batch9pro,batch9pro,13,34,1,Screen 1,continueButton,response_rating_scale_likert_active,1068,NA,NA,Somewhat Agree,1,0,1,0,NA,NA,NA,NA,1,statements,It protects my family,1,17/06/2021 12:57,17/06/2021 13:06,IP Address,For (I feel positively about the vaccines),Never,Rarely,28,Female,NA,"Undergraduate degree (BSc, BA)",choice,82,1,For,For
37,1659976032982,08/08/2022 16:27:12,1659976033506,1,08/08/2022 17:27:13,94826,3,task-xidh,NA,23527590,6895782,NA,complete,NA,62f138b1660a32715375edf3,computer,Desktop or Laptop,Windows 10,Firefox 103.0,1920x1080,1920x927,NA,ITT Ratings,2,for,9,NA,NA,NA,NA,NA,NA,NA,ACCEPT,NA,NA,batch9pro,batch9pro,44,35,1,Screen 1,continueButton,response_rating_scale_likert_active,1563,NA,NA,Somewhat Agree,1,0,1,0,NA,NA,NA,NA,1,statements,I want the country to get back up and running,1,17/06/2021 12:58,17/06/2021 13:06,IP Address,For (I feel positively about the vaccines),Never,Most months,35,Female,NA,A levels,control,87,2,For,For
38,1659976035476,08/08/2022 16:27:15,1659976035984,1,08/08/2022 17:27:15,94826,3,task-xidh,NA,23527590,6895782,NA,complete,NA,62f138b1660a32715375edf3,computer,Desktop or Laptop,Windows 10,Firefox 103.0,1920x1080,1920x927,NA,ITT Ratings,2,for,9,NA,NA,NA,NA,NA,NA,NA,ACCEPT,NA,NA,batch9pro,batch9pro,16,36,1,Screen 1,continueButton,response_rating_scale_likert_active,2470,NA,NA,Agree,1,0,1,0,NA,NA,NA,NA,1,statements,It hasn't been around long enough to know the long term effects,1,17/06/2021 12:57,17/06/2021 13:06,IP Address,For (I feel positively about the vaccines),Rarely,A few times a year,31,Female,NA,"Undergraduate degree (BSc, BA)",choice,83,1,For,Against
39,1659976038308,08/08/2022 16:27:18,1659976038816,1,08/08/2022 17:27:18,94826,3,task-xidh,NA,23527590,6895782,NA,complete,NA,62f138b1660a32715375edf3,computer,Desktop or Laptop,Windows 10,Firefox 103.0,1920x1080,1920x927,NA,ITT Ratings,2,for,9,NA,NA,NA,NA,NA,NA,NA,ACCEPT,NA,NA,batch9pro,batch9pro,12,37,1,Screen 1,continueButton,response_rating_scale_likert_active,2823,NA,NA,Somewhat Agree,1,0,1,0,NA,NA,NA,NA,1,statements,I'm healthy so I won't die from it,1,17/06/2021 12:57,17/06/2021 13:06,IP Address,For (I feel positively about the vaccines),Never,Rarely,28,Female,NA,"Undergraduate degree (BSc, BA)",choice,82,3,For,Against
40,1659976040331,08/08/2022 16:27:20,1659976040839,1,08/08/2022 17:27:20,94826,3,task-xidh,NA,23527590,6895782,NA,complete,NA,62f138b1660a32715375edf3,computer,Desktop or Laptop,Windows 10,Firefox 103.0,1920x1080,1920x927,NA,ITT Ratings,2,for,9,NA,NA,NA,NA,NA,NA,NA,ACCEPT,NA,NA,batch9pro,batch9pro,34,38,1,Screen 1,continueButton,response_rating_scale_likert_active,2014,NA,NA,Agree,1,0,1,0,NA,NA,NA,NA,1,statements,it was produced fast,1,17/06/2021 12:55,17/06/2021 13:06,IP Address,For (I feel positively about the vaccines),Rarely,Most days,19,Female,NA,A levels,control,86,1,For,Against
41,1659976042712,08/08/2022 16:27:22,1659976043222,1,08/08/2022 17:27:23,94826,3,task-xidh,NA,23527590,6895782,NA,complete,NA,62f138b1660a32715375edf3,computer,Desktop or Laptop,Windows 10,Firefox 103.0,1920x1080,1920x927,NA,ITT Ratings,2,for,9,NA,NA,NA,NA,NA,NA,NA,ACCEPT,NA,NA,batch9pro,batch9pro,49,39,1,Screen 1,continueButton,response_rating_scale_likert_active,2374,NA,NA,Neither Agree nor Disagree,1,0,1,0,NA,NA,NA,NA,1,statements,I am afraid of catching Covid-19.,1,17/06/2021 13:00,17/06/2021 13:07,IP Address,For (I feel positively about the vaccines),A few times a year,Most months,31,Female,NA,"Undergraduate degree (BSc, BA)",choice,88,1,For,For
42,1659976044310,08/08/2022 16:27:24,1659976044820,1,08/08/2022 17:27:24,94826,3,task-xidh,NA,23527590,6895782,NA,complete,NA,62f138b1660a32715375edf3,computer,Desktop or Laptop,Windows 10,Firefox 103.0,1920x1080,1920x927,NA,ITT Ratings,2,for,9,NA,NA,NA,NA,NA,NA,NA,ACCEPT,NA,NA,batch9pro,batch9pro,27,40,1,Screen 1,continueButton,response_rating_scale_likert_active,1590,NA,NA,Somewhat Agree,1,0,1,0,NA,NA,NA,NA,1,statements,hope for herd immunity,1,17/06/2021 12:58,17/06/2021 13:06,IP Address,For (I feel positively about the vaccines),Rarely,Rarely,19,Male,NA,A levels,choice,84,3,For,For
43,1659976051123,08/08/2022 16:27:31,1659976051632,1,08/08/2022 17:27:31,94826,3,task-xidh,NA,23527590,6895782,NA,complete,NA,62f138b1660a32715375edf3,computer,Desktop or Laptop,Windows 10,Firefox 103.0,1920x1080,1920x927,NA,ITT Ratings,2,for,9,NA,NA,NA,NA,NA,NA,NA,ACCEPT,NA,NA,batch9pro,batch9pro,54,41,1,Screen 1,continueButton,response_rating_scale_likert_active,6805,NA,NA,Agree,1,0,1,0,NA,NA,NA,NA,1,statements,There's not been enough time to make the vaccine work properly,1,17/06/2021 12:53,17/06/2021 13:08,IP Address,For (I feel positively about the vaccines),A few times a year,Rarely,33,Female,NA,"Undergraduate degree (BSc, BA)",control,89,3,For,Against
44,1659976054016,08/08/2022 16:27:34,1659976054540,1,08/08/2022 17:27:34,94826,3,task-xidh,NA,23527590,6895782,NA,complete,NA,62f138b1660a32715375edf3,computer,Desktop or Laptop,Windows 10,Firefox 103.0,1920x1080,1920x927,NA,ITT Ratings,2,for,9,NA,NA,NA,NA,NA,NA,NA,ACCEPT,NA,NA,batch9pro,batch9pro,18,42,1,Screen 1,continueButton,response_rating_scale_likert_active,2901,NA,NA,Strongly Agree,1,0,1,0,NA,NA,NA,NA,1,statements,I don't want a Covid passport,1,17/06/2021 12:57,17/06/2021 13:06,IP Address,For (I feel positively about the vaccines),Rarely,A few times a year,31,Female,NA,"Undergraduate degree (BSc, BA)",choice,83,3,For,Against
45,1659976059198,08/08/2022 16:27:39,1659976059699,1,08/08/2022 17:27:39,94826,3,task-xidh,NA,23527590,6895782,NA,complete,NA,62f138b1660a32715375edf3,computer,Desktop or Laptop,Windows 10,Firefox 103.0,1920x1080,1920x927,NA,ITT Ratings,2,for,9,NA,NA,NA,NA,NA,NA,NA,ACCEPT,NA,NA,batch9pro,batch9pro,52,43,1,Screen 1,continueButton,response_rating_scale_likert_active,5152,NA,NA,Disagree,1,0,1,0,NA,NA,NA,NA,1,statements,I don't believe covid is real.,1,17/06/2021 12:53,17/06/2021 13:08,IP Address,For (I feel positively about the vaccines),A few times a year,Rarely,33,Female,NA,"Undergraduate degree (BSc, BA)",control,89,1,For,Against
46,1659976067575,08/08/2022 16:27:47,1659976068084,1,08/08/2022 17:27:48,94826,3,task-xidh,NA,23527590,6895782,NA,complete,NA,62f138b1660a32715375edf3,computer,Desktop or Laptop,Windows 10,Firefox 103.0,1920x1080,1920x927,NA,ITT Ratings,2,for,9,NA,NA,NA,NA,NA,NA,NA,ACCEPT,NA,NA,batch9pro,batch9pro,43,44,1,Screen 1,continueButton,response_rating_scale_likert_active,8378,NA,NA,Somewhat Agree,1,0,1,0,NA,NA,NA,NA,1,statements,I want to be protected from covid,1,17/06/2021 12:58,17/06/2021 13:06,IP Address,For (I feel positively about the vaccines),Never,Most months,35,Female,NA,A levels,control,87,1,For,For
47,1659976071904,08/08/2022 16:27:51,1659976072413,1,08/08/2022 17:27:52,94826,3,task-xidh,NA,23527590,6895782,NA,complete,NA,62f138b1660a32715375edf3,computer,Desktop or Laptop,Windows 10,Firefox 103.0,1920x1080,1920x927,NA,ITT Ratings,2,for,9,NA,NA,NA,NA,NA,NA,NA,ACCEPT,NA,NA,batch9pro,batch9pro,4,45,1,Screen 1,continueButton,response_rating_scale_likert_active,4310,NA,NA,Somewhat Agree,1,0,1,0,NA,NA,NA,NA,1,statements,The companies haven't had enough time to develop it properly,1,17/06/2021 12:57,17/06/2021 13:05,IP Address,For (I feel positively about the vaccines),Rarely,Most weeks,31,Male,NA,"Undergraduate degree (BSc, BA)",choice,81,1,For,Against
48,1659976073556,08/08/2022 16:27:53,1659976074071,1,08/08/2022 17:27:54,94826,3,task-xidh,NA,23527590,6895782,NA,complete,NA,62f138b1660a32715375edf3,computer,Desktop or Laptop,Windows 10,Firefox 103.0,1920x1080,1920x927,NA,ITT Ratings,2,for,9,NA,NA,NA,NA,NA,NA,NA,ACCEPT,NA,NA,batch9pro,batch9pro,60,46,1,Screen 1,continueButton,response_rating_scale_likert_active,1646,NA,NA,Agree,1,0,1,0,NA,NA,NA,NA,1,statements,We don't know how effective the vaccine is yet,1,17/06/2021 12:53,17/06/2021 13:08,IP Address,For (I feel positively about the vaccines),Most weeks,Most months,25,Female,NA,"Undergraduate degree (BSc, BA)",control,90,3,For,Against
49,1659976076277,08/08/2022 16:27:56,1659976076788,1,08/08/2022 17:27:56,94826,3,task-xidh,NA,23527590,6895782,NA,complete,NA,62f138b1660a32715375edf3,computer,Desktop or Laptop,Windows 10,Firefox 103.0,1920x1080,1920x927,NA,ITT Ratings,2,for,9,NA,NA,NA,NA,NA,NA,NA,ACCEPT,NA,NA,batch9pro,batch9pro,46,47,1,Screen 1,continueButton,response_rating_scale_likert_active,2707,NA,NA,Strongly Disagree,1,0,1,0,NA,NA,NA,NA,1,statements,I don't believe in vaccinations.,1,17/06/2021 13:00,17/06/2021 13:07,IP Address,For (I feel positively about the vaccines),A few times a year,Most months,31,Female,NA,"Undergraduate degree (BSc, BA)",choice,88,1,For,Against
50,1659976080044,08/08/2022 16:28:00,1659976080532,1,08/08/2022 17:28:00,94826,3,task-xidh,NA,23527590,6895782,NA,complete,NA,62f138b1660a32715375edf3,computer,Desktop or Laptop,Windows 10,Firefox 103.0,1920x1080,1920x927,NA,ITT Ratings,2,for,9,NA,NA,NA,NA,NA,NA,NA,ACCEPT,NA,NA,batch9pro,batch9pro,35,48,1,Screen 1,continueButton,response_rating_scale_likert_active,3736,NA,NA,Somewhat Agree,1,0,1,0,NA,NA,NA,NA,1,statements,the side effects short term and long term,1,17/06/2021 12:55,17/06/2021 13:06,IP Address,For (I feel positively about the vaccines),Rarely,Most days,19,Female,NA,A levels,control,86,2,For,Against
51,1659976082175,08/08/2022 16:28:02,1659976082700,1,08/08/2022 17:28:02,94826,3,task-xidh,NA,23527590,6895782,NA,complete,NA,62f138b1660a32715375edf3,computer,Desktop or Laptop,Windows 10,Firefox 103.0,1920x1080,1920x927,NA,ITT Ratings,2,for,9,NA,NA,NA,NA,NA,NA,NA,ACCEPT,NA,NA,batch9pro,batch9pro,25,49,1,Screen 1,continueButton,response_rating_scale_likert_active,2160,NA,NA,Somewhat Agree,1,0,1,0,NA,NA,NA,NA,1,statements,protecting yourself; making yourself immune,1,17/06/2021 12:58,17/06/2021 13:06,IP Address,For (I feel positively about the vaccines),Rarely,Rarely,19,Male,NA,A levels,choice,84,1,For,For
52,1659976086493,08/08/2022 16:28:06,1659976087021,1,08/08/2022 17:28:07,94826,3,task-xidh,NA,23527590,6895782,NA,complete,NA,62f138b1660a32715375edf3,computer,Desktop or Laptop,Windows 10,Firefox 103.0,1920x1080,1920x927,NA,ITT Ratings,2,for,9,NA,NA,NA,NA,NA,NA,NA,ACCEPT,NA,NA,batch9pro,batch9pro,9,50,1,Screen 1,continueButton,response_rating_scale_likert_active,4313,NA,NA,Strongly Agree,1,0,1,0,NA,NA,NA,NA,1,statements,It will enable the country to come out of lockdown quicker if more people are vaccinated,1,17/06/2021 12:57,17/06/2021 13:05,IP Address,For (I feel positively about the vaccines),Rarely,Most weeks,31,Male,NA,"Undergraduate degree (BSc, BA)",choice,81,3,For,For
53,1659976090625,08/08/2022 16:28:10,1659976091151,1,08/08/2022 17:28:11,94826,3,task-xidh,NA,23527590,6895782,NA,complete,NA,62f138b1660a32715375edf3,computer,Desktop or Laptop,Windows 10,Firefox 103.0,1920x1080,1920x927,NA,ITT Ratings,2,for,9,NA,NA,NA,NA,NA,NA,NA,ACCEPT,NA,NA,batch9pro,batch9pro,53,51,1,Screen 1,continueButton,response_rating_scale_likert_active,4120,NA,NA,Neither Agree nor Disagree,1,0,1,0,NA,NA,NA,NA,1,statements,I don't trust the vaccine works,1,17/06/2021 12:53,17/06/2021 13:08,IP Address,For (I feel positively about the vaccines),A few times a year,Rarely,33,Female,NA,"Undergraduate degree (BSc, BA)",control,89,2,For,Against
54,1659976092957,08/08/2022 16:28:12,1659976093474,1,08/08/2022 17:28:13,94826,3,task-xidh,NA,23527590,6895782,NA,complete,NA,62f138b1660a32715375edf3,computer,Desktop or Laptop,Windows 10,Firefox 103.0,1920x1080,1920x927,NA,ITT Ratings,2,for,9,NA,NA,NA,NA,NA,NA,NA,ACCEPT,NA,NA,batch9pro,batch9pro,62,52,1,Screen 1,continueButton,response_rating_scale_likert_active,2314,NA,NA,Agree,1,0,1,0,NA,NA,NA,NA,1,statements,It helps me feel safer about returning to normal life,1,17/06/2021 12:53,17/06/2021 13:08,IP Address,For (I feel positively about the vaccines),Most weeks,Most months,25,Female,NA,"Undergraduate degree (BSc, BA)",control,90,2,For,For
55,1659976096084,08/08/2022 16:28:16,1659976096599,1,08/08/2022 17:28:16,94826,3,task-xidh,NA,23527590,6895782,NA,complete,NA,62f138b1660a32715375edf3,computer,Desktop or Laptop,Windows 10,Firefox 103.0,1920x1080,1920x927,NA,ITT Ratings,2,for,9,NA,NA,NA,NA,NA,NA,NA,ACCEPT,NA,NA,batch9pro,batch9pro,24,53,1,Screen 1,continueButton,response_rating_scale_likert_active,3117,NA,NA,Strongly Agree,1,0,1,0,NA,NA,NA,NA,1,statements,my body my choice sort of argument,1,17/06/2021 12:58,17/06/2021 13:06,IP Address,For (I feel positively about the vaccines),Rarely,Rarely,19,Male,NA,A levels,choice,84,3,For,Against
56,1659976098816,08/08/2022 16:28:18,1659976099340,1,08/08/2022 17:28:19,94826,3,task-xidh,NA,23527590,6895782,NA,complete,NA,62f138b1660a32715375edf3,computer,Desktop or Laptop,Windows 10,Firefox 103.0,1920x1080,1920x927,NA,ITT Ratings,2,for,9,NA,NA,NA,NA,NA,NA,NA,ACCEPT,NA,NA,batch9pro,batch9pro,39,54,1,Screen 1,continueButton,response_rating_scale_likert_active,2734,NA,NA,Neither Agree nor Disagree,1,0,1,0,NA,NA,NA,NA,1,statements,its responsible to do,1,17/06/2021 12:55,17/06/2021 13:06,IP Address,For (I feel positively about the vaccines),Rarely,Most days,19,Female,NA,A levels,control,86,3,For,For
57,1659976100630,08/08/2022 16:28:20,1659976101144,1,08/08/2022 17:28:21,94826,3,task-xidh,NA,23527590,6895782,NA,complete,NA,62f138b1660a32715375edf3,computer,Desktop or Laptop,Windows 10,Firefox 103.0,1920x1080,1920x927,NA,ITT Ratings,2,for,9,NA,NA,NA,NA,NA,NA,NA,ACCEPT,NA,NA,batch9pro,batch9pro,32,55,1,Screen 1,continueButton,response_rating_scale_likert_active,1797,NA,NA,Agree,1,0,1,0,NA,NA,NA,NA,1,statements,Do not want to catch covid,1,17/06/2021 12:58,17/06/2021 13:06,IP Address,For (I feel positively about the vaccines),Rarely,Most weeks,57,Female,NA,"Undergraduate degree (BSc, BA)",control,85,2,For,For
58,1659976104386,08/08/2022 16:28:24,1659976104899,1,08/08/2022 17:28:24,94826,3,task-xidh,NA,23527590,6895782,NA,complete,NA,62f138b1660a32715375edf3,computer,Desktop or Laptop,Windows 10,Firefox 103.0,1920x1080,1920x927,NA,ITT Ratings,2,for,9,NA,NA,NA,NA,NA,NA,NA,ACCEPT,NA,NA,batch9pro,batch9pro,59,56,1,Screen 1,continueButton,response_rating_scale_likert_active,3746,NA,NA,Agree,1,0,1,0,NA,NA,NA,NA,1,statements,It doesn't stop you from catching the disease,1,17/06/2021 12:53,17/06/2021 13:08,IP Address,For (I feel positively about the vaccines),Most weeks,Most months,25,Female,NA,"Undergraduate degree (BSc, BA)",control,90,2,For,Against
59,1659976106877,08/08/2022 16:28:26,1659976107405,1,08/08/2022 17:28:27,94826,3,task-xidh,NA,23527590,6895782,NA,complete,NA,62f138b1660a32715375edf3,computer,Desktop or Laptop,Windows 10,Firefox 103.0,1920x1080,1920x927,NA,ITT Ratings,2,for,9,NA,NA,NA,NA,NA,NA,NA,ACCEPT,NA,NA,batch9pro,batch9pro,15,57,1,Screen 1,continueButton,response_rating_scale_likert_active,2499,NA,NA,Agree,1,0,1,0,NA,NA,NA,NA,1,statements,It's been tested and shown to work,1,17/06/2021 12:57,17/06/2021 13:06,IP Address,For (I feel positively about the vaccines),Never,Rarely,28,Female,NA,"Undergraduate degree (BSc, BA)",choice,82,3,For,For
60,1659976108817,08/08/2022 16:28:28,1659976109347,1,08/08/2022 17:28:29,94826,3,task-xidh,NA,23527590,6895782,NA,complete,NA,62f138b1660a32715375edf3,computer,Desktop or Laptop,Windows 10,Firefox 103.0,1920x1080,1920x927,NA,ITT Ratings,2,for,9,NA,NA,NA,NA,NA,NA,NA,ACCEPT,NA,NA,batch9pro,batch9pro,41,58,1,Screen 1,continueButton,response_rating_scale_likert_active,1934,NA,NA,Strongly Disagree,1,0,1,0,NA,NA,NA,NA,1,statements,They are trying to control us,1,17/06/2021 12:58,17/06/2021 13:06,IP Address,For (I feel positively about the vaccines),Never,Most months,35,Female,NA,A levels,control,87,2,For,Against
61,1659976112640,08/08/2022 16:28:32,1659976113169,1,08/08/2022 17:28:33,94826,3,task-xidh,NA,23527590,6895782,NA,complete,NA,62f138b1660a32715375edf3,computer,Desktop or Laptop,Windows 10,Firefox 103.0,1920x1080,1920x927,NA,ITT Ratings,2,for,9,NA,NA,NA,NA,NA,NA,NA,ACCEPT,NA,NA,batch9pro,batch9pro,37,59,1,Screen 1,continueButton,response_rating_scale_likert_active,3815,NA,NA,Agree,1,0,1,0,NA,NA,NA,NA,1,statements,its a start to ending covid,1,17/06/2021 12:55,17/06/2021 13:06,IP Address,For (I feel positively about the vaccines),Rarely,Most days,19,Female,NA,A levels,control,86,1,For,For
62,1659976114892,08/08/2022 16:28:34,1659976115412,1,08/08/2022 17:28:35,94826,3,task-xidh,NA,23527590,6895782,NA,complete,NA,62f138b1660a32715375edf3,computer,Desktop or Laptop,Windows 10,Firefox 103.0,1920x1080,1920x927,NA,ITT Ratings,2,for,9,NA,NA,NA,NA,NA,NA,NA,ACCEPT,NA,NA,batch9pro,batch9pro,22,60,1,Screen 1,continueButton,response_rating_scale_likert_active,2236,NA,NA,Somewhat Agree,1,0,1,0,NA,NA,NA,NA,1,statements,danger of side effects,1,17/06/2021 12:58,17/06/2021 13:06,IP Address,For (I feel positively about the vaccines),Rarely,Rarely,19,Male,NA,A levels,choice,84,1,For,Against
63,1659976119161,08/08/2022 16:28:39,1659976119673,1,08/08/2022 17:28:39,94826,3,task-xidh,NA,23527590,6895782,NA,complete,NA,62f138b1660a32715375edf3,computer,Desktop or Laptop,Windows 10,Firefox 103.0,1920x1080,1920x927,NA,ITT Ratings,2,for,9,NA,NA,NA,NA,NA,NA,NA,ACCEPT,NA,NA,batch9pro,batch9pro,31,61,1,Screen 1,continueButton,response_rating_scale_likert_active,4256,NA,NA,Agree,1,0,1,0,NA,NA,NA,NA,1,statements,It's the only way to conquer and get rid of the virus,1,17/06/2021 12:58,17/06/2021 13:06,IP Address,For (I feel positively about the vaccines),Rarely,Most weeks,57,Female,NA,"Undergraduate degree (BSc, BA)",control,85,1,For,For
64,1659976120781,08/08/2022 16:28:40,1659976121297,1,08/08/2022 17:28:41,94826,3,task-xidh,NA,23527590,6895782,NA,complete,NA,62f138b1660a32715375edf3,computer,Desktop or Laptop,Windows 10,Firefox 103.0,1920x1080,1920x927,NA,ITT Ratings,2,for,9,NA,NA,NA,NA,NA,NA,NA,ACCEPT,NA,NA,batch9pro,batch9pro,45,62,1,Screen 1,continueButton,response_rating_scale_likert_active,1618,NA,NA,Agree,1,0,1,0,NA,NA,NA,NA,1,statements,I want to protect loved ones,1,17/06/2021 12:58,17/06/2021 13:06,IP Address,For (I feel positively about the vaccines),Never,Most months,35,Female,NA,A levels,control,87,3,For,For
65,1659976120820,08/08/2022 16:28:40,1659976121301,1,08/08/2022 17:28:41,94826,3,task-xidh,NA,23527590,6895782,NA,complete,NA,62f138b1660a32715375edf3,computer,Desktop or Laptop,Windows 10,Firefox 103.0,1920x1080,1920x927,NA,ITT Ratings,2,for,9,NA,NA,NA,NA,NA,NA,NA,ACCEPT,NA,NA,batch9pro,NA,NA,END TASK,NA,NA,NA,NA,228191,NA,NA,NA,NA,0,1,0,NA,NA,NA,NA,NA,NA,NA,NA,NA,NA,NA,NA,NA,NA,NA,NA,NA,NA,NA,NA,NA,NA,NA
1,1659976128883,08/08/2022 16:28:48,1659976130855,1,08/08/2022 17:28:50,94826,3,task-xidh,NA,23527726,6895821,NA,complete,NA,62f139760b5ab4b3d7b81759,computer,Desktop or Laptop,Windows 10,Chrome 103.0.0.0,1366x768,1707x781,NA,ITT Ratings,2,for,9,NA,NA,NA,NA,NA,NA,NA,ACCEPT,NA,NA,batch9pro,NA,NA,BEGIN TASK,NA,NA,NA,NA,NA,NA,NA,NA,NA,0,1,0,NA,NA,NA,NA,NA,NA,NA,NA,NA,NA,NA,NA,NA,NA,NA,NA,NA,NA,NA,NA,NA,NA,NA
2,1659976139021,08/08/2022 16:28:59,1659976140968,1,08/08/2022 17:29:00,94826,3,task-xidh,NA,23527726,6895821,NA,complete,NA,62f139760b5ab4b3d7b81759,computer,Desktop or Laptop,Windows 10,Chrome 103.0.0.0,1366x768,1707x781,NA,ITT Ratings,2,for,9,NA,NA,NA,NA,NA,NA,NA,ACCEPT,NA,NA,batch9pro,batch9pro,1,1,1,Screen 1,advancementZone,continue_button,10027.200000000186,NA,NA,NA,NA,0,1,0,NA,NA,NA,NA,NA,instructions,NA,NA,NA,NA,NA,NA,NA,NA,NA,NA,NA,NA,NA,NA,NA,NA,NA
3,1659976148134,08/08/2022 16:29:08,1659976149872,1,08/08/2022 17:29:09,94826,3,task-xidh,NA,23527726,6895821,NA,complete,NA,62f139760b5ab4b3d7b81759,computer,Desktop or Laptop,Windows 10,Chrome 103.0.0.0,1366x768,1707x781,NA,ITT Ratings,2,for,9,NA,NA,NA,NA,NA,NA,NA,ACCEPT,NA,NA,batch9pro,batch9pro,10,1,1,Screen 1,continueButton,response_rating_scale_likert_active,8870.5,NA,NA,Somewhat Disagree,1,0,1,0,NA,NA,NA,NA,1,statements,Time of development,1,17/06/2021 12:57,17/06/2021 13:06,IP Address,For (I feel positively about the vaccines),Never,Rarely,28,Female,NA,"Undergraduate degree (BSc, BA)",choice,82,1,For,Against
4,1659976150380,08/08/2022 16:29:10,1659976152393,1,08/08/2022 17:29:12,94826,3,task-xidh,NA,23527726,6895821,NA,complete,NA,62f139760b5ab4b3d7b81759,computer,Desktop or Laptop,Windows 10,Chrome 103.0.0.0,1366x768,1707x781,NA,ITT Ratings,2,for,9,NA,NA,NA,NA,NA,NA,NA,ACCEPT,NA,NA,batch9pro,batch9pro,48,2,1,Screen 1,continueButton,response_rating_scale_likert_active,2500.0999999996275,NA,NA,Strongly Disagree,1,0,1,0,NA,NA,NA,NA,1,statements,I don't believe in Covid-19.,1,17/06/2021 13:00,17/06/2021 13:07,IP Address,For (I feel positively about the vaccines),A few times a year,Most months,31,Female,NA,"Undergraduate degree (BSc, BA)",choice,88,3,For,Against
5,1659976153134,08/08/2022 16:29:13,1659976155155,1,08/08/2022 17:29:15,94826,3,task-xidh,NA,23527726,6895821,NA,complete,NA,62f139760b5ab4b3d7b81759,computer,Desktop or Laptop,Windows 10,Chrome 103.0.0.0,1366x768,1707x781,NA,ITT Ratings,2,for,9,NA,NA,NA,NA,NA,NA,NA,ACCEPT,NA,NA,batch9pro,batch9pro,57,3,1,Screen 1,continueButton,response_rating_scale_likert_active,2742.899999999441,NA,NA,Agree,1,0,1,0,NA,NA,NA,NA,1,statements,I trust that this vaccine will work,1,17/06/2021 12:53,17/06/2021 13:08,IP Address,For (I feel positively about the vaccines),A few times a year,Rarely,33,Female,NA,"Undergraduate degree (BSc, BA)",control,89,3,For,For
6,1659976156848,08/08/2022 16:29:16,1659976158707,1,08/08/2022 17:29:18,94826,3,task-xidh,NA,23527726,6895821,NA,complete,NA,62f139760b5ab4b3d7b81759,computer,Desktop or Laptop,Windows 10,Chrome 103.0.0.0,1366x768,1707x781,NA,ITT Ratings,2,for,9,NA,NA,NA,NA,NA,NA,NA,ACCEPT,NA,NA,batch9pro,batch9pro,56,4,1,Screen 1,continueButton,response_rating_scale_likert_active,3532.4000000003725,NA,NA,Agree,1,0,1,0,NA,NA,NA,NA,1,statements,I don't want to catch covid,1,17/06/2021 12:53,17/06/2021 13:08,IP Address,For (I feel positively about the vaccines),A few times a year,Rarely,33,Female,NA,"Undergraduate degree (BSc, BA)",control,89,2,For,For
7,1659976159215,08/08/2022 16:29:19,1659976161252,1,08/08/2022 17:29:21,94826,3,task-xidh,NA,23527726,6895821,NA,complete,NA,62f139760b5ab4b3d7b81759,computer,Desktop or Laptop,Windows 10,Chrome 103.0.0.0,1366x768,1707x781,NA,ITT Ratings,2,for,9,NA,NA,NA,NA,NA,NA,NA,ACCEPT,NA,NA,batch9pro,batch9pro,19,5,1,Screen 1,continueButton,response_rating_scale_likert_active,2524.4000000003725,NA,NA,Somewhat Agree,1,0,1,0,NA,NA,NA,NA,1,statements,I want to get back to normality,1,17/06/2021 12:57,17/06/2021 13:06,IP Address,For (I feel positively about the vaccines),Rarely,A few times a year,31,Female,NA,"Undergraduate degree (BSc, BA)",choice,83,1,For,For
8,1659976162813,08/08/2022 16:29:22,1659976164840,1,08/08/2022 17:29:24,94826,3,task-xidh,NA,23527726,6895821,NA,complete,NA,62f139760b5ab4b3d7b81759,computer,Desktop or Laptop,Windows 10,Chrome 103.0.0.0,1366x768,1707x781,NA,ITT Ratings,2,for,9,NA,NA,NA,NA,NA,NA,NA,ACCEPT,NA,NA,batch9pro,batch9pro,24,6,1,Screen 1,continueButton,response_rating_scale_likert_active,3572.4000000003725,NA,NA,Disagree,1,0,1,0,NA,NA,NA,NA,1,statements,my body my choice sort of argument,1,17/06/2021 12:58,17/06/2021 13:06,IP Address,For (I feel positively about the vaccines),Rarely,Rarely,19,Male,NA,A levels,choice,84,3,For,Against
9,1659976166404,08/08/2022 16:29:26,1659976168370,1,08/08/2022 17:29:28,94826,3,task-xidh,NA,23527726,6895821,NA,complete,NA,62f139760b5ab4b3d7b81759,computer,Desktop or Laptop,Windows 10,Chrome 103.0.0.0,1366x768,1707x781,NA,ITT Ratings,2,for,9,NA,NA,NA,NA,NA,NA,NA,ACCEPT,NA,NA,batch9pro,batch9pro,9,7,1,Screen 1,continueButton,response_rating_scale_likert_active,3513.0999999996275,NA,NA,Agree,1,0,1,0,NA,NA,NA,NA,1,statements,It will enable the country to come out of lockdown quicker if more people are vaccinated,1,17/06/2021 12:57,17/06/2021 13:05,IP Address,For (I feel positively about the vaccines),Rarely,Most weeks,31,Male,NA,"Undergraduate degree (BSc, BA)",choice,81,3,For,For
10,1659976171533,08/08/2022 16:29:31,1659976173566,1,08/08/2022 17:29:33,94826,3,task-xidh,NA,23527726,6895821,NA,complete,NA,62f139760b5ab4b3d7b81759,computer,Desktop or Laptop,Windows 10,Chrome 103.0.0.0,1366x768,1707x781,NA,ITT Ratings,2,for,9,NA,NA,NA,NA,NA,NA,NA,ACCEPT,NA,NA,batch9pro,batch9pro,25,8,1,Screen 1,continueButton,response_rating_scale_likert_active,5179.9000000003725,NA,NA,Somewhat Agree,1,0,1,0,NA,NA,NA,NA,1,statements,protecting yourself; making yourself immune,1,17/06/2021 12:58,17/06/2021 13:06,IP Address,For (I feel positively about the vaccines),Rarely,Rarely,19,Male,NA,A levels,choice,84,1,For,For
11,1659976173844,08/08/2022 16:29:33,1659976175801,1,08/08/2022 17:29:35,94826,3,task-xidh,NA,23527726,6895821,NA,complete,NA,62f139760b5ab4b3d7b81759,computer,Desktop or Laptop,Windows 10,Chrome 103.0.0.0,1366x768,1707x781,NA,ITT Ratings,2,for,9,NA,NA,NA,NA,NA,NA,NA,ACCEPT,NA,NA,batch9pro,batch9pro,41,9,1,Screen 1,continueButton,response_rating_scale_likert_active,2217.2999999998137,NA,NA,Strongly Disagree,1,0,1,0,NA,NA,NA,NA,1,statements,They are trying to control us,1,17/06/2021 12:58,17/06/2021 13:06,IP Address,For (I feel positively about the vaccines),Never,Most months,35,Female,NA,A levels,control,87,2,For,Against
12,1659976177270,08/08/2022 16:29:37,1659976179296,1,08/08/2022 17:29:39,94826,3,task-xidh,NA,23527726,6895821,NA,complete,NA,62f139760b5ab4b3d7b81759,computer,Desktop or Laptop,Windows 10,Chrome 103.0.0.0,1366x768,1707x781,NA,ITT Ratings,2,for,9,NA,NA,NA,NA,NA,NA,NA,ACCEPT,NA,NA,batch9pro,batch9pro,40,10,1,Screen 1,continueButton,response_rating_scale_likert_active,3479.2999999998137,NA,NA,Disagree,1,0,1,0,NA,NA,NA,NA,1,statements,There hasn't been long enough to develop a vaccination,1,17/06/2021 12:58,17/06/2021 13:06,IP Address,For (I feel positively about the vaccines),Never,Most months,35,Female,NA,A levels,control,87,1,For,Against
13,1659976181769,08/08/2022 16:29:41,1659976183805,1,08/08/2022 17:29:43,94826,3,task-xidh,NA,23527726,6895821,NA,complete,NA,62f139760b5ab4b3d7b81759,computer,Desktop or Laptop,Windows 10,Chrome 103.0.0.0,1366x768,1707x781,NA,ITT Ratings,2,for,9,NA,NA,NA,NA,NA,NA,NA,ACCEPT,NA,NA,batch9pro,batch9pro,6,11,1,Screen 1,continueButton,response_rating_scale_likert_active,4493.700000000186,NA,NA,Strongly Disagree,1,0,1,0,NA,NA,NA,NA,1,statements,Don't believe that any vaccines are effective,1,17/06/2021 12:57,17/06/2021 13:05,IP Address,For (I feel positively about the vaccines),Rarely,Most weeks,31,Male,NA,"Undergraduate degree (BSc, BA)",choice,81,3,For,Against
14,1659976186410,08/08/2022 16:29:46,1659976188248,1,08/08/2022 17:29:48,94826,3,task-xidh,NA,23527726,6895821,NA,complete,NA,62f139760b5ab4b3d7b81759,computer,Desktop or Laptop,Windows 10,Chrome 103.0.0.0,1366x768,1707x781,NA,ITT Ratings,2,for,9,NA,NA,NA,NA,NA,NA,NA,ACCEPT,NA,NA,batch9pro,batch9pro,17,12,1,Screen 1,continueButton,response_rating_scale_likert_active,4424.0999999996275,NA,NA,Neither Agree nor Disagree,1,0,1,0,NA,NA,NA,NA,1,statements,We don't know how long it works for,1,17/06/2021 12:57,17/06/2021 13:06,IP Address,For (I feel positively about the vaccines),Rarely,A few times a year,31,Female,NA,"Undergraduate degree (BSc, BA)",choice,83,2,For,Against
15,1659976189240,08/08/2022 16:29:49,1659976191276,1,08/08/2022 17:29:51,94826,3,task-xidh,NA,23527726,6895821,NA,complete,NA,62f139760b5ab4b3d7b81759,computer,Desktop or Laptop,Windows 10,Chrome 103.0.0.0,1366x768,1707x781,NA,ITT Ratings,2,for,9,NA,NA,NA,NA,NA,NA,NA,ACCEPT,NA,NA,batch9pro,batch9pro,38,13,1,Screen 1,continueButton,response_rating_scale_likert_active,3013.100000000559,NA,NA,Agree,1,0,1,0,NA,NA,NA,NA,1,statements,its about other peoples health swell as your own,1,17/06/2021 12:55,17/06/2021 13:06,IP Address,For (I feel positively about the vaccines),Rarely,Most days,19,Female,NA,A levels,control,86,2,For,For
16,1659976192210,08/08/2022 16:29:52,1659976194235,1,08/08/2022 17:29:54,94826,3,task-xidh,NA,23527726,6895821,NA,complete,NA,62f139760b5ab4b3d7b81759,computer,Desktop or Laptop,Windows 10,Chrome 103.0.0.0,1366x768,1707x781,NA,ITT Ratings,2,for,9,NA,NA,NA,NA,NA,NA,NA,ACCEPT,NA,NA,batch9pro,batch9pro,26,14,1,Screen 1,continueButton,response_rating_scale_likert_active,2940.7000000001863,NA,NA,Agree,1,0,1,0,NA,NA,NA,NA,1,statements,protecting those who are close to you,1,17/06/2021 12:58,17/06/2021 13:06,IP Address,For (I feel positively about the vaccines),Rarely,Rarely,19,Male,NA,A levels,choice,84,2,For,For
17,1659976194515,08/08/2022 16:29:54,1659976196482,1,08/08/2022 17:29:56,94826,3,task-xidh,NA,23527726,6895821,NA,complete,NA,62f139760b5ab4b3d7b81759,computer,Desktop or Laptop,Windows 10,Chrome 103.0.0.0,1366x768,1707x781,NA,ITT Ratings,2,for,9,NA,NA,NA,NA,NA,NA,NA,ACCEPT,NA,NA,batch9pro,batch9pro,42,15,1,Screen 1,continueButton,response_rating_scale_likert_active,2231.2000000001863,NA,NA,Strongly Disagree,1,0,1,0,NA,NA,NA,NA,1,statements,You will get a blood clot,1,17/06/2021 12:58,17/06/2021 13:06,IP Address,For (I feel positively about the vaccines),Never,Most months,35,Female,NA,A levels,control,87,3,For,Against
18,1659976198425,08/08/2022 16:29:58,1659976200455,1,08/08/2022 17:30:00,94826,3,task-xidh,NA,23527726,6895821,NA,complete,NA,62f139760b5ab4b3d7b81759,computer,Desktop or Laptop,Windows 10,Chrome 103.0.0.0,1366x768,1707x781,NA,ITT Ratings,2,for,9,NA,NA,NA,NA,NA,NA,NA,ACCEPT,NA,NA,batch9pro,batch9pro,33,16,1,Screen 1,continueButton,response_rating_scale_likert_active,3958.7000000001863,NA,NA,Agree,1,0,1,0,NA,NA,NA,NA,1,statements,Being vaccinated gives more freedom to open up the world again,1,17/06/2021 12:58,17/06/2021 13:06,IP Address,For (I feel positively about the vaccines),Rarely,Most weeks,57,Female,NA,"Undergraduate degree (BSc, BA)",control,85,3,For,For
19,1659976200637,08/08/2022 16:30:00,1659976202663,1,08/08/2022 17:30:02,94826,3,task-xidh,NA,23527726,6895821,NA,complete,NA,62f139760b5ab4b3d7b81759,computer,Desktop or Laptop,Windows 10,Chrome 103.0.0.0,1366x768,1707x781,NA,ITT Ratings,2,for,9,NA,NA,NA,NA,NA,NA,NA,ACCEPT,NA,NA,batch9pro,batch9pro,49,17,1,Screen 1,continueButton,response_rating_scale_likert_active,2191.699999999255,NA,NA,Somewhat Agree,1,0,1,0,NA,NA,NA,NA,1,statements,I am afraid of catching Covid-19.,1,17/06/2021 13:00,17/06/2021 13:07,IP Address,For (I feel positively about the vaccines),A few times a year,Most months,31,Female,NA,"Undergraduate degree (BSc, BA)",choice,88,1,For,For
20,1659976202916,08/08/2022 16:30:02,1659976204945,1,08/08/2022 17:30:04,94826,3,task-xidh,NA,23527726,6895821,NA,complete,NA,62f139760b5ab4b3d7b81759,computer,Desktop or Laptop,Windows 10,Chrome 103.0.0.0,1366x768,1707x781,NA,ITT Ratings,2,for,9,NA,NA,NA,NA,NA,NA,NA,ACCEPT,NA,NA,batch9pro,batch9pro,30,18,1,Screen 1,continueButton,response_rating_scale_likert_active,2266.7000000001863,NA,NA,Disagree,1,0,1,0,NA,NA,NA,NA,1,statements,Possible side effects,1,17/06/2021 12:58,17/06/2021 13:06,IP Address,For (I feel positively about the vaccines),Rarely,Most weeks,57,Female,NA,"Undergraduate degree (BSc, BA)",control,85,3,For,Against
21,1659976206495,08/08/2022 16:30:06,1659976208282,1,08/08/2022 17:30:08,94826,3,task-xidh,NA,23527726,6895821,NA,complete,NA,62f139760b5ab4b3d7b81759,computer,Desktop or Laptop,Windows 10,Chrome 103.0.0.0,1366x768,1707x781,NA,ITT Ratings,2,for,9,NA,NA,NA,NA,NA,NA,NA,ACCEPT,NA,NA,batch9pro,batch9pro,54,19,1,Screen 1,continueButton,response_rating_scale_likert_active,3320.7000000001863,NA,NA,Disagree,1,0,1,0,NA,NA,NA,NA,1,statements,There's not been enough time to make the vaccine work properly,1,17/06/2021 12:53,17/06/2021 13:08,IP Address,For (I feel positively about the vaccines),A few times a year,Rarely,33,Female,NA,"Undergraduate degree (BSc, BA)",control,89,3,For,Against
22,1659976209013,08/08/2022 16:30:09,1659976211045,1,08/08/2022 17:30:11,94826,3,task-xidh,NA,23527726,6895821,NA,complete,NA,62f139760b5ab4b3d7b81759,computer,Desktop or Laptop,Windows 10,Chrome 103.0.0.0,1366x768,1707x781,NA,ITT Ratings,2,for,9,NA,NA,NA,NA,NA,NA,NA,ACCEPT,NA,NA,batch9pro,batch9pro,18,20,1,Screen 1,continueButton,response_rating_scale_likert_active,2749,NA,NA,Neither Agree nor Disagree,1,0,1,0,NA,NA,NA,NA,1,statements,I don't want a Covid passport,1,17/06/2021 12:57,17/06/2021 13:06,IP Address,For (I feel positively about the vaccines),Rarely,A few times a year,31,Female,NA,"Undergraduate degree (BSc, BA)",choice,83,3,For,Against
23,1659976212574,08/08/2022 16:30:12,1659976214611,1,08/08/2022 17:30:14,94826,3,task-xidh,NA,23527726,6895821,NA,complete,NA,62f139760b5ab4b3d7b81759,computer,Desktop or Laptop,Windows 10,Chrome 103.0.0.0,1366x768,1707x781,NA,ITT Ratings,2,for,9,NA,NA,NA,NA,NA,NA,NA,ACCEPT,NA,NA,batch9pro,batch9pro,8,21,1,Screen 1,continueButton,response_rating_scale_likert_active,3550.199999999255,NA,NA,Strongly Agree,1,0,1,0,NA,NA,NA,NA,1,statements,Vaccines are well researched and tested before being distributed to the public,1,17/06/2021 12:57,17/06/2021 13:05,IP Address,For (I feel positively about the vaccines),Rarely,Most weeks,31,Male,NA,"Undergraduate degree (BSc, BA)",choice,81,2,For,For
24,1659976216140,08/08/2022 16:30:16,1659976218040,1,08/08/2022 17:30:18,94826,3,task-xidh,NA,23527726,6895821,NA,complete,NA,62f139760b5ab4b3d7b81759,computer,Desktop or Laptop,Windows 10,Chrome 103.0.0.0,1366x768,1707x781,NA,ITT Ratings,2,for,9,NA,NA,NA,NA,NA,NA,NA,ACCEPT,NA,NA,batch9pro,batch9pro,4,22,1,Screen 1,continueButton,response_rating_scale_likert_active,3414.2000000001863,NA,NA,Disagree,1,0,1,0,NA,NA,NA,NA,1,statements,The companies haven't had enough time to develop it properly,1,17/06/2021 12:57,17/06/2021 13:05,IP Address,For (I feel positively about the vaccines),Rarely,Most weeks,31,Male,NA,"Undergraduate degree (BSc, BA)",choice,81,1,For,Against
25,1659976218377,08/08/2022 16:30:18,1659976220400,1,08/08/2022 17:30:20,94826,3,task-xidh,NA,23527726,6895821,NA,complete,NA,62f139760b5ab4b3d7b81759,computer,Desktop or Laptop,Windows 10,Chrome 103.0.0.0,1366x768,1707x781,NA,ITT Ratings,2,for,9,NA,NA,NA,NA,NA,NA,NA,ACCEPT,NA,NA,batch9pro,batch9pro,45,23,1,Screen 1,continueButton,response_rating_scale_likert_active,2347.2000000001863,NA,NA,Somewhat Agree,1,0,1,0,NA,NA,NA,NA,1,statements,I want to protect loved ones,1,17/06/2021 12:58,17/06/2021 13:06,IP Address,For (I feel positively about the vaccines),Never,Most months,35,Female,NA,A levels,control,87,3,For,For
26,1659976221498,08/08/2022 16:30:21,1659976223535,1,08/08/2022 17:30:23,94826,3,task-xidh,NA,23527726,6895821,NA,complete,NA,62f139760b5ab4b3d7b81759,computer,Desktop or Laptop,Windows 10,Chrome 103.0.0.0,1366x768,1707x781,NA,ITT Ratings,2,for,9,NA,NA,NA,NA,NA,NA,NA,ACCEPT,NA,NA,batch9pro,batch9pro,37,24,1,Screen 1,continueButton,response_rating_scale_likert_active,3120.5,NA,NA,Somewhat Agree,1,0,1,0,NA,NA,NA,NA,1,statements,its a start to ending covid,1,17/06/2021 12:55,17/06/2021 13:06,IP Address,For (I feel positively about the vaccines),Rarely,Most days,19,Female,NA,A levels,control,86,1,For,For
