Event.Index,UTC.Timestamp,UTC.Date,Local.Timestamp,Local.Timezone,Local.Date,Experiment.ID,Experiment.Version,Tree.Node.Key,Repeat.Key,Schedule.ID,Participant.Private.ID,Participant.Starting.Group,Participant.Status,Participant.Completion.Code,Participant.External.Session.ID,Participant.Device.Type,Participant.Device,Participant.OS,Participant.Browser,Participant.Monitor.Size,Participant.Viewport.Size,Checkpoint,Task.Name,Task.Version,branch.69an,randomiser.8vg2,quota.bqtt,quota.rycs,quota.wtfi,quota.usve,quota.zgic,quota.f3yz,quota.r9vy,quota.tfqq,quota.3dga,quota.dtj6,Spreadsheet,Spreadsheet.Name,Spreadsheet.Row,Trial.Number,Screen.Number,Screen.Name,Zone.Name,Zone.Type,Reaction.Time,Reaction.Onset,Response.Type,Response,Attempt,Correct,Incorrect,Dishonest,X.Coordinate,Y.Coordinate,Timed.Out,randomise_blocks,randomise_trials,display,Arguments,ShowProgressBar,StartDate,EndDate,Status,prolif_check,discuss_1,read_1,age,gender,gender_4_TEXT,edu,condition,ID,arg_ID,Position,Arg_Position
1,1659975409858,08/08/2022 16:16:49,1659975409765,1,08/08/2022 17:16:49,94826,3,task-net4,NA,23527423,6895719,NA,complete,NA,62f136b584c5aa26a162c6c1,computer,Desktop or Laptop,Windows 10,Edge 104.0.1293.47,1536x864,1536x722,NA,ITT Ratings,2,for,8,NA,NA,NA,NA,NA,NA,ACCEPT,NA,NA,NA,batch8pro,NA,NA,BEGIN TASK,NA,NA,NA,NA,NA,NA,NA,NA,NA,0,1,0,NA,NA,NA,NA,NA,NA,NA,NA,NA,NA,NA,NA,NA,NA,NA,NA,NA,NA,NA,NA,NA,NA,NA
2,1659975412494,08/08/2022 16:16:52,1659975412451,1,08/08/2022 17:16:52,94826,3,task-net4,NA,23527423,6895719,NA,complete,NA,62f136b584c5aa26a162c6c1,computer,Desktop or Laptop,Windows 10,Edge 104.0.1293.47,1536x864,1519x722,NA,ITT Ratings,2,for,8,NA,NA,NA,NA,NA,NA,ACCEPT,NA,NA,NA,batch8pro,batch8pro,1,1,1,Screen 1,advancementZone,continue_button,2594.5,NA,NA,NA,NA,0,1,0,NA,NA,NA,NA,NA,instructions,NA,NA,NA,NA,NA,NA,NA,NA,NA,NA,NA,NA,NA,NA,NA,NA,NA
3,1659975418626,08/08/2022 16:16:58,1659975418595,1,08/08/2022 17:16:58,94826,3,task-net4,NA,23527423,6895719,NA,complete,NA,62f136b584c5aa26a162c6c1,computer,Desktop or Laptop,Windows 10,Edge 104.0.1293.47,1536x864,1519x722,NA,ITT Ratings,2,for,8,NA,NA,NA,NA,NA,NA,ACCEPT,NA,NA,NA,batch8pro,batch8pro,10,1,1,Screen 1,continueButton,response_rating_scale_likert_active,6108.199999999255,NA,NA,Somewhat Disagree,1,0,1,0,NA,NA,NA,NA,1,statements,There isn't enough research on the vaccine.,1,17/06/2021 12:51,17/06/2021 13:03,IP Address,For (I feel positively about the vaccines),A few times a year,Most weeks,29,Female,NA,"Undergraduate degree (BSc, BA)",control,72,1,For,Against
4,1659975421448,08/08/2022 16:17:01,1659975421417,1,08/08/2022 17:17:01,94826,3,task-net4,NA,23527423,6895719,NA,complete,NA,62f136b584c5aa26a162c6c1,computer,Desktop or Laptop,Windows 10,Edge 104.0.1293.47,1536x864,1519x722,NA,ITT Ratings,2,for,8,NA,NA,NA,NA,NA,NA,ACCEPT,NA,NA,NA,batch8pro,batch8pro,31,2,1,Screen 1,continueButton,response_rating_scale_likert_active,2789.0999999996275,NA,NA,Agree,1,0,1,0,NA,NA,NA,NA,1,statements,The positive effects of the vaccine outweigh the negative effects.,1,17/06/2021 12:53,17/06/2021 13:03,IP Address,For (I feel positively about the vaccines),Rarely,A few times a year,22,Female,NA,"Undergraduate degree (BSc, BA)",choice,75,1,For,For
5,1659975426877,08/08/2022 16:17:06,1659975426849,1,08/08/2022 17:17:06,94826,3,task-net4,NA,23527423,6895719,NA,complete,NA,62f136b584c5aa26a162c6c1,computer,Desktop or Laptop,Windows 10,Edge 104.0.1293.47,1536x864,1519x722,NA,ITT Ratings,2,for,8,NA,NA,NA,NA,NA,NA,ACCEPT,NA,NA,NA,batch8pro,batch8pro,2,3,1,Screen 1,continueButton,response_rating_scale_likert_active,5401.799999999814,NA,NA,Somewhat Agree,1,0,1,0,NA,NA,NA,NA,1,statements,We would like to check you are reading each argument carefully. Please select 'Somewhat Agree' for this answer,1,NA,NA,NA,NA,NA,NA,NA,NA,NA,NA,NA,NA,check1,NA,NA
6,1659975433232,08/08/2022 16:17:13,1659975433201,1,08/08/2022 17:17:13,94826,3,task-net4,NA,23527423,6895719,NA,complete,NA,62f136b584c5aa26a162c6c1,computer,Desktop or Laptop,Windows 10,Edge 104.0.1293.47,1536x864,1519x722,NA,ITT Ratings,2,for,8,NA,NA,NA,NA,NA,NA,ACCEPT,NA,NA,NA,batch8pro,batch8pro,54,4,1,Screen 1,continueButton,response_rating_scale_likert_active,6323.700000000186,NA,NA,Strongly Disagree,1,0,1,0,NA,NA,NA,NA,1,statements,Covid 19 is a conspiracy to make us go to a cashless society and a distraction while 5g was being rolled out.,1,17/06/2021 12:51,17/06/2021 13:05,IP Address,For (I feel positively about the vaccines),Rarely,Most months,37,Female,NA,"Undergraduate degree (BSc, BA)",control,79,3,For,Against
7,1659975437666,08/08/2022 16:17:17,1659975437625,1,08/08/2022 17:17:17,94826,3,task-net4,NA,23527423,6895719,NA,complete,NA,62f136b584c5aa26a162c6c1,computer,Desktop or Laptop,Windows 10,Edge 104.0.1293.47,1536x864,1519x722,NA,ITT Ratings,2,for,8,NA,NA,NA,NA,NA,NA,ACCEPT,NA,NA,NA,batch8pro,batch8pro,16,5,1,Screen 1,continueButton,response_rating_scale_likert_active,4398.0999999996275,NA,NA,Somewhat Disagree,1,0,1,0,NA,NA,NA,NA,1,statements,It hasn't been tested enough.,1,17/06/2021 12:46,17/06/2021 13:03,IP Address,For (I feel positively about the vaccines),Rarely,Rarely,49,Other,"my SEX (protected characteristic, please see EA 2010) is female. I don't have a gender",A levels,choice,73,1,For,Against
8,1659975439339,08/08/2022 16:17:19,1659975439297,1,08/08/2022 17:17:19,94826,3,task-net4,NA,23527423,6895719,NA,complete,NA,62f136b584c5aa26a162c6c1,computer,Desktop or Laptop,Windows 10,Edge 104.0.1293.47,1536x864,1519x722,NA,ITT Ratings,2,for,8,NA,NA,NA,NA,NA,NA,ACCEPT,NA,NA,NA,batch8pro,batch8pro,52,6,1,Screen 1,continueButton,response_rating_scale_likert_active,1646.7999999998135,NA,NA,Strongly Disagree,1,0,1,0,NA,NA,NA,NA,1,statements,Vaccines cause autism.,1,17/06/2021 12:51,17/06/2021 13:05,IP Address,For (I feel positively about the vaccines),Rarely,Most months,37,Female,NA,"Undergraduate degree (BSc, BA)",control,79,1,For,Against
9,1659975445531,08/08/2022 16:17:25,1659975445489,1,08/08/2022 17:17:25,94826,3,task-net4,NA,23527423,6895719,NA,complete,NA,62f136b584c5aa26a162c6c1,computer,Desktop or Laptop,Windows 10,Edge 104.0.1293.47,1536x864,1519x722,NA,ITT Ratings,2,for,8,NA,NA,NA,NA,NA,NA,ACCEPT,NA,NA,NA,batch8pro,batch8pro,9,7,1,Screen 1,continueButton,response_rating_scale_likert_active,6154.199999999255,NA,NA,Somewhat Agree,1,0,1,0,NA,NA,NA,NA,1,statements,Mass vaccination eventually means the ending of lockdowns and the return to normal life,1,17/06/2021 12:51,17/06/2021 13:02,IP Address,For (I feel positively about the vaccines),Most weeks,Most months,20,Male,NA,A levels,choice,71,3,For,For
10,1659975449666,08/08/2022 16:17:29,1659975449617,1,08/08/2022 17:17:29,94826,3,task-net4,NA,23527423,6895719,NA,complete,NA,62f136b584c5aa26a162c6c1,computer,Desktop or Laptop,Windows 10,Edge 104.0.1293.47,1536x864,1519x722,NA,ITT Ratings,2,for,8,NA,NA,NA,NA,NA,NA,ACCEPT,NA,NA,NA,batch8pro,batch8pro,45,8,1,Screen 1,continueButton,response_rating_scale_likert_active,4102.399999999441,NA,NA,Agree,1,0,1,0,NA,NA,NA,NA,1,statements,It's the right thing to do,1,17/06/2021 13:00,17/06/2021 13:04,IP Address,For (I feel positively about the vaccines),Most weeks,Most months,28,Female,NA,"Undergraduate degree (BSc, BA)",control,77,3,For,For
11,1659975451522,08/08/2022 16:17:31,1659975451457,1,08/08/2022 17:17:31,94826,3,task-net4,NA,23527423,6895719,NA,complete,NA,62f136b584c5aa26a162c6c1,computer,Desktop or Laptop,Windows 10,Edge 104.0.1293.47,1536x864,1519x722,NA,ITT Ratings,2,for,8,NA,NA,NA,NA,NA,NA,ACCEPT,NA,NA,NA,batch8pro,batch8pro,17,9,1,Screen 1,continueButton,response_rating_scale_likert_active,1811.5,NA,NA,Disagree,1,0,1,0,NA,NA,NA,NA,1,statements,The side effects are too risky.,1,17/06/2021 12:46,17/06/2021 13:03,IP Address,For (I feel positively about the vaccines),Rarely,Rarely,49,Other,"my SEX (protected characteristic, please see EA 2010) is female. I don't have a gender",A levels,choice,73,2,For,Against
12,1659975454458,08/08/2022 16:17:34,1659975454417,1,08/08/2022 17:17:34,94826,3,task-net4,NA,23527423,6895719,NA,complete,NA,62f136b584c5aa26a162c6c1,computer,Desktop or Laptop,Windows 10,Edge 104.0.1293.47,1536x864,1519x722,NA,ITT Ratings,2,for,8,NA,NA,NA,NA,NA,NA,ACCEPT,NA,NA,NA,batch8pro,batch8pro,11,10,1,Screen 1,continueButton,response_rating_scale_likert_active,2935.7999999998137,NA,NA,Neither Agree nor Disagree,1,0,1,0,NA,NA,NA,NA,1,statements,"I'll trust my immune system, that's what it is there for.",1,17/06/2021 12:51,17/06/2021 13:03,IP Address,For (I feel positively about the vaccines),A few times a year,Most weeks,29,Female,NA,"Undergraduate degree (BSc, BA)",control,72,2,For,Against
13,1659975457586,08/08/2022 16:17:37,1659975457545,1,08/08/2022 17:17:37,94826,3,task-net4,NA,23527423,6895719,NA,complete,NA,62f136b584c5aa26a162c6c1,computer,Desktop or Laptop,Windows 10,Edge 104.0.1293.47,1536x864,1519x722,NA,ITT Ratings,2,for,8,NA,NA,NA,NA,NA,NA,ACCEPT,NA,NA,NA,batch8pro,batch8pro,15,11,1,Screen 1,continueButton,response_rating_scale_likert_active,3103.899999999441,NA,NA,Agree,1,0,1,0,NA,NA,NA,NA,1,statements,I just want life to get back to somewhat normal.,1,17/06/2021 12:51,17/06/2021 13:03,IP Address,For (I feel positively about the vaccines),A few times a year,Most weeks,29,Female,NA,"Undergraduate degree (BSc, BA)",control,72,3,For,For
14,1659975461112,08/08/2022 16:17:41,1659975461073,1,08/08/2022 17:17:41,94826,3,task-net4,NA,23527423,6895719,NA,complete,NA,62f136b584c5aa26a162c6c1,computer,Desktop or Laptop,Windows 10,Edge 104.0.1293.47,1536x864,1519x722,NA,ITT Ratings,2,for,8,NA,NA,NA,NA,NA,NA,ACCEPT,NA,NA,NA,batch8pro,batch8pro,34,12,1,Screen 1,continueButton,response_rating_scale_likert_active,3499.5999999996275,NA,NA,Disagree,1,0,1,0,NA,NA,NA,NA,1,statements,I don't trust whats in the vaccine,1,17/06/2021 12:57,17/06/2021 13:04,IP Address,For (I feel positively about the vaccines),Rarely,Most months,26,Male,NA,"Undergraduate degree (BSc, BA)",control,76,1,For,Against
15,1659975463030,08/08/2022 16:17:43,1659975462977,1,08/08/2022 17:17:42,94826,3,task-net4,NA,23527423,6895719,NA,complete,NA,62f136b584c5aa26a162c6c1,computer,Desktop or Laptop,Windows 10,Edge 104.0.1293.47,1536x864,1519x722,NA,ITT Ratings,2,for,8,NA,NA,NA,NA,NA,NA,ACCEPT,NA,NA,NA,batch8pro,batch8pro,55,13,1,Screen 1,continueButton,response_rating_scale_likert_active,1880,NA,NA,Strongly Agree,1,0,1,0,NA,NA,NA,NA,1,statements,I want to be as protected as possible.,1,17/06/2021 12:51,17/06/2021 13:05,IP Address,For (I feel positively about the vaccines),Rarely,Most months,37,Female,NA,"Undergraduate degree (BSc, BA)",control,79,1,For,For
16,1659975465809,08/08/2022 16:17:45,1659975465769,1,08/08/2022 17:17:45,94826,3,task-net4,NA,23527423,6895719,NA,complete,NA,62f136b584c5aa26a162c6c1,computer,Desktop or Laptop,Windows 10,Edge 104.0.1293.47,1536x864,1519x722,NA,ITT Ratings,2,for,8,NA,NA,NA,NA,NA,NA,ACCEPT,NA,NA,NA,batch8pro,batch8pro,56,14,1,Screen 1,continueButton,response_rating_scale_likert_active,2766.699999999255,NA,NA,Strongly Agree,1,0,1,0,NA,NA,NA,NA,1,statements,I want to protect my loved ones and vulnerable people.,1,17/06/2021 12:51,17/06/2021 13:05,IP Address,For (I feel positively about the vaccines),Rarely,Most months,37,Female,NA,"Undergraduate degree (BSc, BA)",control,79,2,For,For
17,1659975471498,08/08/2022 16:17:51,1659975471457,1,08/08/2022 17:17:51,94826,3,task-net4,NA,23527423,6895719,NA,complete,NA,62f136b584c5aa26a162c6c1,computer,Desktop or Laptop,Windows 10,Edge 104.0.1293.47,1536x864,1519x722,NA,ITT Ratings,2,for,8,NA,NA,NA,NA,NA,NA,ACCEPT,NA,NA,NA,batch8pro,batch8pro,58,15,1,Screen 1,continueButton,response_rating_scale_likert_active,5660.600000000559,NA,NA,Disagree,1,0,1,0,NA,NA,NA,NA,1,statements,There has not been enough time to safely develop vaccines as others take years and years to develop and test safely.,1,17/06/2021 12:58,17/06/2021 13:05,IP Address,For (I feel positively about the vaccines),Once or twice a year,A few times a year,21,Male,NA,A levels,control,80,1,For,Against
18,1659975473811,08/08/2022 16:17:53,1659975473777,1,08/08/2022 17:17:53,94826,3,task-net4,NA,23527423,6895719,NA,complete,NA,62f136b584c5aa26a162c6c1,computer,Desktop or Laptop,Windows 10,Edge 104.0.1293.47,1536x864,1519x722,NA,ITT Ratings,2,for,8,NA,NA,NA,NA,NA,NA,ACCEPT,NA,NA,NA,batch8pro,batch8pro,28,16,1,Screen 1,continueButton,response_rating_scale_likert_active,2297.0999999996275,NA,NA,Strongly Disagree,1,0,1,0,NA,NA,NA,NA,1,statements,It is a device for the government to monitor us.,1,17/06/2021 12:53,17/06/2021 13:03,IP Address,For (I feel positively about the vaccines),Rarely,A few times a year,22,Female,NA,"Undergraduate degree (BSc, BA)",choice,75,1,For,Against
19,1659975480192,08/08/2022 16:18:00,1659975480145,1,08/08/2022 17:18:00,94826,3,task-net4,NA,23527423,6895719,NA,complete,NA,62f136b584c5aa26a162c6c1,computer,Desktop or Laptop,Windows 10,Edge 104.0.1293.47,1536x864,1519x722,NA,ITT Ratings,2,for,8,NA,NA,NA,NA,NA,NA,ACCEPT,NA,NA,NA,batch8pro,batch8pro,22,17,1,Screen 1,continueButton,response_rating_scale_likert_active,6290.9000000003725,NA,NA,Agree,1,0,1,0,NA,NA,NA,NA,1,statements,I don’t want to be a guinea pig,1,17/06/2021 12:56,17/06/2021 13:03,IP Address,For (I feel positively about the vaccines),Rarely,Rarely,36,Female,NA,GCSEs,control,74,1,For,Against
20,1659975482902,08/08/2022 16:18:02,1659975482873,1,08/08/2022 17:18:02,94826,3,task-net4,NA,23527423,6895719,NA,complete,NA,62f136b584c5aa26a162c6c1,computer,Desktop or Laptop,Windows 10,Edge 104.0.1293.47,1536x864,1519x722,NA,ITT Ratings,2,for,8,NA,NA,NA,NA,NA,NA,ACCEPT,NA,NA,NA,batch8pro,batch8pro,14,18,1,Screen 1,continueButton,response_rating_scale_likert_active,2703.899999999441,NA,NA,Strongly Disagree,1,0,1,0,NA,NA,NA,NA,1,statements,I know people who suffer from long COVID.,1,17/06/2021 12:51,17/06/2021 13:03,IP Address,For (I feel positively about the vaccines),A few times a year,Most weeks,29,Female,NA,"Undergraduate degree (BSc, BA)",control,72,2,For,For
21,1659975485332,08/08/2022 16:18:05,1659975485289,1,08/08/2022 17:18:05,94826,3,task-net4,NA,23527423,6895719,NA,complete,NA,62f136b584c5aa26a162c6c1,computer,Desktop or Laptop,Windows 10,Edge 104.0.1293.47,1536x864,1519x722,NA,ITT Ratings,2,for,8,NA,NA,NA,NA,NA,NA,ACCEPT,NA,NA,NA,batch8pro,batch8pro,51,19,1,Screen 1,continueButton,response_rating_scale_likert_active,2387.2000000001863,NA,NA,Strongly Agree,1,0,1,0,NA,NA,NA,NA,1,statements,Keep my family safe.,1,17/06/2021 12:57,17/06/2021 13:04,IP Address,For (I feel positively about the vaccines),Most weeks,Most weeks,30,Female,NA,A levels,choice,78,3,For,For
22,1659975490096,08/08/2022 16:18:10,1659975490057,1,08/08/2022 17:18:10,94826,3,task-net4,NA,23527423,6895719,NA,complete,NA,62f136b584c5aa26a162c6c1,computer,Desktop or Laptop,Windows 10,Edge 104.0.1293.47,1536x864,1519x722,NA,ITT Ratings,2,for,8,NA,NA,NA,NA,NA,NA,ACCEPT,NA,NA,NA,batch8pro,batch8pro,30,20,1,Screen 1,continueButton,response_rating_scale_likert_active,4746.199999999255,NA,NA,Strongly Disagree,1,0,1,0,NA,NA,NA,NA,1,statements,I am relying on herd immunity and others to be vaccinated so I get the protection too.,1,17/06/2021 12:53,17/06/2021 13:03,IP Address,For (I feel positively about the vaccines),Rarely,A few times a year,22,Female,NA,"Undergraduate degree (BSc, BA)",choice,75,3,For,Against
23,1659975497118,08/08/2022 16:18:17,1659975497089,1,08/08/2022 17:18:17,94826,3,task-net4,NA,23527423,6895719,NA,complete,NA,62f136b584c5aa26a162c6c1,computer,Desktop or Laptop,Windows 10,Edge 104.0.1293.47,1536x864,1519x722,NA,ITT Ratings,2,for,8,NA,NA,NA,NA,NA,NA,ACCEPT,NA,NA,NA,batch8pro,batch8pro,61,21,1,Screen 1,continueButton,response_rating_scale_likert_active,7009.300000000745,NA,NA,Neither Agree nor Disagree,1,0,1,0,NA,NA,NA,NA,1,statements,Vaccines reduce the spread of the virus to those that are vulnerable.,1,17/06/2021 12:58,17/06/2021 13:05,IP Address,For (I feel positively about the vaccines),Once or twice a year,A few times a year,21,Male,NA,A levels,control,80,1,For,For
24,1659975498850,08/08/2022 16:18:18,1659975498809,1,08/08/2022 17:18:18,94826,3,task-net4,NA,23527423,6895719,NA,complete,NA,62f136b584c5aa26a162c6c1,computer,Desktop or Laptop,Windows 10,Edge 104.0.1293.47,1536x864,1519x722,NA,ITT Ratings,2,for,8,NA,NA,NA,NA,NA,NA,ACCEPT,NA,NA,NA,batch8pro,batch8pro,13,22,1,Screen 1,continueButton,response_rating_scale_likert_active,1696.9000000003723,NA,NA,Strongly Agree,1,0,1,0,NA,NA,NA,NA,1,statements,I want to protect myself.,1,17/06/2021 12:51,17/06/2021 13:03,IP Address,For (I feel positively about the vaccines),A few times a year,Most weeks,29,Female,NA,"Undergraduate degree (BSc, BA)",control,72,1,For,For
25,1659975501233,08/08/2022 16:18:21,1659975501193,1,08/08/2022 17:18:21,94826,3,task-net4,NA,23527423,6895719,NA,complete,NA,62f136b584c5aa26a162c6c1,computer,Desktop or Laptop,Windows 10,Edge 104.0.1293.47,1536x864,1519x722,NA,ITT Ratings,2,for,8,NA,NA,NA,NA,NA,NA,ACCEPT,NA,NA,NA,batch8pro,batch8pro,7,23,1,Screen 1,continueButton,response_rating_scale_likert_active,2359.2000000001863,NA,NA,Strongly Agree,1,0,1,0,NA,NA,NA,NA,1,statements,It protects myself from getting seriously ill with Covid-19,1,17/06/2021 12:51,17/06/2021 13:02,IP Address,For (I feel positively about the vaccines),Most weeks,Most months,20,Male,NA,A levels,choice,71,1,For,For
26,1659975504248,08/08/2022 16:18:24,1659975504209,1,08/08/2022 17:18:24,94826,3,task-net4,NA,23527423,6895719,NA,complete,NA,62f136b584c5aa26a162c6c1,computer,Desktop or Laptop,Windows 10,Edge 104.0.1293.47,1536x864,1519x722,NA,ITT Ratings,2,for,8,NA,NA,NA,NA,NA,NA,ACCEPT,NA,NA,NA,batch8pro,batch8pro,59,24,1,Screen 1,continueButton,response_rating_scale_likert_active,2992.5999999996275,NA,NA,Strongly Disagree,1,0,1,0,NA,NA,NA,NA,1,statements,The vaccine is still in its experimental stage and should not be given to the general population yet.,1,17/06/2021 12:58,17/06/2021 13:05,IP Address,For (I feel positively about the vaccines),Once or twice a year,A few times a year,21,Male,NA,A levels,control,80,2,For,Against
27,1659975506847,08/08/2022 16:18:26,1659975506817,1,08/08/2022 17:18:26,94826,3,task-net4,NA,23527423,6895719,NA,complete,NA,62f136b584c5aa26a162c6c1,computer,Desktop or Laptop,Windows 10,Edge 104.0.1293.47,1536x864,1519x722,NA,ITT Ratings,2,for,8,NA,NA,NA,NA,NA,NA,ACCEPT,NA,NA,NA,batch8pro,batch8pro,53,25,1,Screen 1,continueButton,response_rating_scale_likert_active,2582.899999999441,NA,NA,Strongly Disagree,1,0,1,0,NA,NA,NA,NA,1,statements,Vaccines are a way for the government to control us.,1,17/06/2021 12:51,17/06/2021 13:05,IP Address,For (I feel positively about the vaccines),Rarely,Most months,37,Female,NA,"Undergraduate degree (BSc, BA)",control,79,2,For,Against
28,1659975509038,08/08/2022 16:18:29,1659975509009,1,08/08/2022 17:18:29,94826,3,task-net4,NA,23527423,6895719,NA,complete,NA,62f136b584c5aa26a162c6c1,computer,Desktop or Laptop,Windows 10,Edge 104.0.1293.47,1536x864,1519x722,NA,ITT Ratings,2,for,8,NA,NA,NA,NA,NA,NA,ACCEPT,NA,NA,NA,batch8pro,batch8pro,36,26,1,Screen 1,continueButton,response_rating_scale_likert_active,2169.0999999996275,NA,NA,Strongly Disagree,1,0,1,0,NA,NA,NA,NA,1,statements,Its been produced to quickly,1,17/06/2021 12:57,17/06/2021 13:04,IP Address,For (I feel positively about the vaccines),Rarely,Most months,26,Male,NA,"Undergraduate degree (BSc, BA)",control,76,3,For,Against
29,1659975511530,08/08/2022 16:18:31,1659975511473,1,08/08/2022 17:18:31,94826,3,task-net4,NA,23527423,6895719,NA,complete,NA,62f136b584c5aa26a162c6c1,computer,Desktop or Laptop,Windows 10,Edge 104.0.1293.47,1536x864,1519x722,NA,ITT Ratings,2,for,8,NA,NA,NA,NA,NA,NA,ACCEPT,NA,NA,NA,batch8pro,batch8pro,44,27,1,Screen 1,continueButton,response_rating_scale_likert_active,2438.300000000745,NA,NA,Strongly Agree,1,0,1,0,NA,NA,NA,NA,1,statements,I want to prevent myself and others getting sick,1,17/06/2021 13:00,17/06/2021 13:04,IP Address,For (I feel positively about the vaccines),Most weeks,Most months,28,Female,NA,"Undergraduate degree (BSc, BA)",control,77,2,For,For
30,1659975513591,08/08/2022 16:18:33,1659975513553,1,08/08/2022 17:18:33,94826,3,task-net4,NA,23527423,6895719,NA,complete,NA,62f136b584c5aa26a162c6c1,computer,Desktop or Laptop,Windows 10,Edge 104.0.1293.47,1536x864,1519x722,NA,ITT Ratings,2,for,8,NA,NA,NA,NA,NA,NA,ACCEPT,NA,NA,NA,batch8pro,batch8pro,48,28,1,Screen 1,continueButton,response_rating_scale_likert_active,2051.7000000001863,NA,NA,Strongly Disagree,1,0,1,0,NA,NA,NA,NA,1,statements,The government are using it as population control.,1,17/06/2021 12:57,17/06/2021 13:04,IP Address,For (I feel positively about the vaccines),Most weeks,Most weeks,30,Female,NA,A levels,choice,78,3,For,Against
31,1659975519340,08/08/2022 16:18:39,1659975519305,1,08/08/2022 17:18:39,94826,3,task-net4,NA,23527423,6895719,NA,complete,NA,62f136b584c5aa26a162c6c1,computer,Desktop or Laptop,Windows 10,Edge 104.0.1293.47,1536x864,1519x722,NA,ITT Ratings,2,for,8,NA,NA,NA,NA,NA,NA,ACCEPT,NA,NA,NA,batch8pro,batch8pro,21,29,1,Screen 1,continueButton,response_rating_scale_likert_active,5728.800000000745,NA,NA,Strongly Disagree,1,0,1,0,NA,NA,NA,NA,1,statements,"I'm clinically vulnerable, I would like to go out safely.",1,17/06/2021 12:46,17/06/2021 13:03,IP Address,For (I feel positively about the vaccines),Rarely,Rarely,49,Other,"my SEX (protected characteristic, please see EA 2010) is female. I don't have a gender",A levels,choice,73,3,For,For
32,1659975525381,08/08/2022 16:18:45,1659975525322,1,08/08/2022 17:18:45,94826,3,task-net4,NA,23527423,6895719,NA,complete,NA,62f136b584c5aa26a162c6c1,computer,Desktop or Laptop,Windows 10,Edge 104.0.1293.47,1536x864,1519x722,NA,ITT Ratings,2,for,8,NA,NA,NA,NA,NA,NA,ACCEPT,NA,NA,NA,batch8pro,batch8pro,38,30,1,Screen 1,continueButton,response_rating_scale_likert_active,5992.600000000559,NA,NA,Somewhat Agree,1,0,1,0,NA,NA,NA,NA,1,statements,To preserve the life of others,1,17/06/2021 12:57,17/06/2021 13:04,IP Address,For (I feel positively about the vaccines),Rarely,Most months,26,Male,NA,"Undergraduate degree (BSc, BA)",control,76,2,For,For
33,1659975533837,08/08/2022 16:18:53,1659975533810,1,08/08/2022 17:18:53,94826,3,task-net4,NA,23527423,6895719,NA,complete,NA,62f136b584c5aa26a162c6c1,computer,Desktop or Laptop,Windows 10,Edge 104.0.1293.47,1536x864,1519x722,NA,ITT Ratings,2,for,8,NA,NA,NA,NA,NA,NA,ACCEPT,NA,NA,NA,batch8pro,batch8pro,24,31,1,Screen 1,continueButton,response_rating_scale_likert_active,8464.099999999627,NA,NA,Neither Agree nor Disagree,1,0,1,0,NA,NA,NA,NA,1,statements,Scared because of news reports,1,17/06/2021 12:56,17/06/2021 13:03,IP Address,For (I feel positively about the vaccines),Rarely,Rarely,36,Female,NA,GCSEs,control,74,3,For,Against
34,1659975538855,08/08/2022 16:18:58,1659975538825,1,08/08/2022 17:18:58,94826,3,task-net4,NA,23527423,6895719,NA,complete,NA,62f136b584c5aa26a162c6c1,computer,Desktop or Laptop,Windows 10,Edge 104.0.1293.47,1536x864,1519x722,NA,ITT Ratings,2,for,8,NA,NA,NA,NA,NA,NA,ACCEPT,NA,NA,NA,batch8pro,batch8pro,39,32,1,Screen 1,continueButton,response_rating_scale_likert_active,4992,NA,NA,Neither Agree nor Disagree,1,0,1,0,NA,NA,NA,NA,1,statements,To do my bit for the country,1,17/06/2021 12:57,17/06/2021 13:04,IP Address,For (I feel positively about the vaccines),Rarely,Most months,26,Male,NA,"Undergraduate degree (BSc, BA)",control,76,3,For,For
35,1659975541000,08/08/2022 16:19:01,1659975540953,1,08/08/2022 17:19:00,94826,3,task-net4,NA,23527423,6895719,NA,complete,NA,62f136b584c5aa26a162c6c1,computer,Desktop or Laptop,Windows 10,Edge 104.0.1293.47,1536x864,1519x722,NA,ITT Ratings,2,for,8,NA,NA,NA,NA,NA,NA,ACCEPT,NA,NA,NA,batch8pro,batch8pro,23,33,1,Screen 1,continueButton,response_rating_scale_likert_active,2103.899999999441,NA,NA,Strongly Disagree,1,0,1,0,NA,NA,NA,NA,1,statements,It’s not developed enough yet,1,17/06/2021 12:56,17/06/2021 13:03,IP Address,For (I feel positively about the vaccines),Rarely,Rarely,36,Female,NA,GCSEs,control,74,2,For,Against
36,1659975545411,08/08/2022 16:19:05,1659975545377,1,08/08/2022 17:19:05,94826,3,task-net4,NA,23527423,6895719,NA,complete,NA,62f136b584c5aa26a162c6c1,computer,Desktop or Laptop,Windows 10,Edge 104.0.1293.47,1536x864,1519x722,NA,ITT Ratings,2,for,8,NA,NA,NA,NA,NA,NA,ACCEPT,NA,NA,NA,batch8pro,batch8pro,8,34,1,Screen 1,continueButton,response_rating_scale_likert_active,4399.200000000186,NA,NA,Somewhat Agree,1,0,1,0,NA,NA,NA,NA,1,statements,"It probably prevents me from spreading Covid-19 to other people as much as I would, had I not had the vaccine",1,17/06/2021 12:51,17/06/2021 13:02,IP Address,For (I feel positively about the vaccines),Most weeks,Most months,20,Male,NA,A levels,choice,71,2,For,For
37,1659975548889,08/08/2022 16:19:08,1659975548849,1,08/08/2022 17:19:08,94826,3,task-net4,NA,23527423,6895719,NA,complete,NA,62f136b584c5aa26a162c6c1,computer,Desktop or Laptop,Windows 10,Edge 104.0.1293.47,1536x864,1519x722,NA,ITT Ratings,2,for,8,NA,NA,NA,NA,NA,NA,ACCEPT,NA,NA,NA,batch8pro,batch8pro,57,35,1,Screen 1,continueButton,response_rating_scale_likert_active,3448.4000000003725,NA,NA,Agree,1,0,1,0,NA,NA,NA,NA,1,statements,I want to be able to live freely again with restrictions lifted.,1,17/06/2021 12:51,17/06/2021 13:05,IP Address,For (I feel positively about the vaccines),Rarely,Most months,37,Female,NA,"Undergraduate degree (BSc, BA)",control,79,3,For,For
38,1659975553677,08/08/2022 16:19:13,1659975553626,1,08/08/2022 17:19:13,94826,3,task-net4,NA,23527423,6895719,NA,complete,NA,62f136b584c5aa26a162c6c1,computer,Desktop or Laptop,Windows 10,Edge 104.0.1293.47,1536x864,1519x722,NA,ITT Ratings,2,for,8,NA,NA,NA,NA,NA,NA,ACCEPT,NA,NA,NA,batch8pro,batch8pro,20,36,1,Screen 1,continueButton,response_rating_scale_likert_active,4753.5,NA,NA,Neither Agree nor Disagree,1,0,1,0,NA,NA,NA,NA,1,statements,"I'm a carer, I want to protect my clients.",1,17/06/2021 12:46,17/06/2021 13:03,IP Address,For (I feel positively about the vaccines),Rarely,Rarely,49,Other,"my SEX (protected characteristic, please see EA 2010) is female. I don't have a gender",A levels,choice,73,2,For,For
39,1659975555951,08/08/2022 16:19:15,1659975555921,1,08/08/2022 17:19:15,94826,3,task-net4,NA,23527423,6895719,NA,complete,NA,62f136b584c5aa26a162c6c1,computer,Desktop or Laptop,Windows 10,Edge 104.0.1293.47,1536x864,1519x722,NA,ITT Ratings,2,for,8,NA,NA,NA,NA,NA,NA,ACCEPT,NA,NA,NA,batch8pro,batch8pro,49,37,1,Screen 1,continueButton,response_rating_scale_likert_active,2270.0999999996275,NA,NA,Agree,1,0,1,0,NA,NA,NA,NA,1,statements,Get the world back to normal.,1,17/06/2021 12:57,17/06/2021 13:04,IP Address,For (I feel positively about the vaccines),Most weeks,Most weeks,30,Female,NA,A levels,choice,78,1,For,For
40,1659975559565,08/08/2022 16:19:19,1659975559537,1,08/08/2022 17:19:19,94826,3,task-net4,NA,23527423,6895719,NA,complete,NA,62f136b584c5aa26a162c6c1,computer,Desktop or Laptop,Windows 10,Edge 104.0.1293.47,1536x864,1519x722,NA,ITT Ratings,2,for,8,NA,NA,NA,NA,NA,NA,ACCEPT,NA,NA,NA,batch8pro,batch8pro,40,38,1,Screen 1,continueButton,response_rating_scale_likert_active,3589.9000000003725,NA,NA,Disagree,1,0,1,0,NA,NA,NA,NA,1,statements,There has not been enough testing on the vaccine,1,17/06/2021 13:00,17/06/2021 13:04,IP Address,For (I feel positively about the vaccines),Most weeks,Most months,28,Female,NA,"Undergraduate degree (BSc, BA)",control,77,1,For,Against
41,1659975561004,08/08/2022 16:19:21,1659975560977,1,08/08/2022 17:19:20,94826,3,task-net4,NA,23527423,6895719,NA,complete,NA,62f136b584c5aa26a162c6c1,computer,Desktop or Laptop,Windows 10,Edge 104.0.1293.47,1536x864,1519x722,NA,ITT Ratings,2,for,8,NA,NA,NA,NA,NA,NA,ACCEPT,NA,NA,NA,batch8pro,batch8pro,46,39,1,Screen 1,continueButton,response_rating_scale_likert_active,1406,NA,NA,Disagree,1,0,1,0,NA,NA,NA,NA,1,statements,It's not safe enough.,1,17/06/2021 12:57,17/06/2021 13:04,IP Address,For (I feel positively about the vaccines),Most weeks,Most weeks,30,Female,NA,A levels,choice,78,1,For,Against
42,1659975564169,08/08/2022 16:19:24,1659975564129,1,08/08/2022 17:19:24,94826,3,task-net4,NA,23527423,6895719,NA,complete,NA,62f136b584c5aa26a162c6c1,computer,Desktop or Laptop,Windows 10,Edge 104.0.1293.47,1536x864,1519x722,NA,ITT Ratings,2,for,8,NA,NA,NA,NA,NA,NA,ACCEPT,NA,NA,NA,batch8pro,batch8pro,6,40,1,Screen 1,continueButton,response_rating_scale_likert_active,3128.600000000559,NA,NA,Strongly Agree,1,0,1,0,NA,NA,NA,NA,1,statements,I have a history of blood clots and are concerned about receiving the AstraZeneca/JJ vaccines as a result,1,17/06/2021 12:51,17/06/2021 13:02,IP Address,For (I feel positively about the vaccines),Most weeks,Most months,20,Male,NA,A levels,choice,71,3,For,Against
43,1659975566025,08/08/2022 16:19:26,1659975565986,1,08/08/2022 17:19:25,94826,3,task-net4,NA,23527423,6895719,NA,complete,NA,62f136b584c5aa26a162c6c1,computer,Desktop or Laptop,Windows 10,Edge 104.0.1293.47,1536x864,1519x722,NA,ITT Ratings,2,for,8,NA,NA,NA,NA,NA,NA,ACCEPT,NA,NA,NA,batch8pro,batch8pro,12,41,1,Screen 1,continueButton,response_rating_scale_likert_active,1831.699999999255,NA,NA,Strongly Disagree,1,0,1,0,NA,NA,NA,NA,1,statements,It alters human DNA.,1,17/06/2021 12:51,17/06/2021 13:03,IP Address,For (I feel positively about the vaccines),A few times a year,Most weeks,29,Female,NA,"Undergraduate degree (BSc, BA)",control,72,3,For,Against
44,1659975569741,08/08/2022 16:19:29,1659975569713,1,08/08/2022 17:19:29,94826,3,task-net4,NA,23527423,6895719,NA,complete,NA,62f136b584c5aa26a162c6c1,computer,Desktop or Laptop,Windows 10,Edge 104.0.1293.47,1536x864,1519x722,NA,ITT Ratings,2,for,8,NA,NA,NA,NA,NA,NA,ACCEPT,NA,NA,NA,batch8pro,batch8pro,3,42,1,Screen 1,continueButton,response_rating_scale_likert_active,3705.599999999627,NA,NA,Somewhat Disagree,1,0,1,0,NA,NA,NA,NA,1,statements,We would like to check you are reading each argument carefully. Please select 'Somewhat Disagree' for this answer,1,NA,NA,NA,NA,NA,NA,NA,NA,NA,NA,NA,NA,check2,NA,NA
45,1659975575867,08/08/2022 16:19:35,1659975575834,1,08/08/2022 17:19:35,94826,3,task-net4,NA,23527423,6895719,NA,complete,NA,62f136b584c5aa26a162c6c1,computer,Desktop or Laptop,Windows 10,Edge 104.0.1293.47,1536x864,1519x722,NA,ITT Ratings,2,for,8,NA,NA,NA,NA,NA,NA,ACCEPT,NA,NA,NA,batch8pro,batch8pro,47,43,1,Screen 1,continueButton,response_rating_scale_likert_active,6096.5,NA,NA,Agree,1,0,1,0,NA,NA,NA,NA,1,statements,It hasn't been out long enough to realise long term effects.,1,17/06/2021 12:57,17/06/2021 13:04,IP Address,For (I feel positively about the vaccines),Most weeks,Most weeks,30,Female,NA,A levels,choice,78,2,For,Against
46,1659975577760,08/08/2022 16:19:37,1659975577722,1,08/08/2022 17:19:37,94826,3,task-net4,NA,23527423,6895719,NA,complete,NA,62f136b584c5aa26a162c6c1,computer,Desktop or Laptop,Windows 10,Edge 104.0.1293.47,1536x864,1519x722,NA,ITT Ratings,2,for,8,NA,NA,NA,NA,NA,NA,ACCEPT,NA,NA,NA,batch8pro,batch8pro,27,44,1,Screen 1,continueButton,response_rating_scale_likert_active,1861.8999999994412,NA,NA,Strongly Agree,1,0,1,0,NA,NA,NA,NA,1,statements,To be less at risk of catching the virus,1,17/06/2021 12:56,17/06/2021 13:03,IP Address,For (I feel positively about the vaccines),Rarely,Rarely,36,Female,NA,GCSEs,control,74,3,For,For
47,1659975579279,08/08/2022 16:19:39,1659975579241,1,08/08/2022 17:19:39,94826,3,task-net4,NA,23527423,6895719,NA,complete,NA,62f136b584c5aa26a162c6c1,computer,Desktop or Laptop,Windows 10,Edge 104.0.1293.47,1536x864,1519x722,NA,ITT Ratings,2,for,8,NA,NA,NA,NA,NA,NA,ACCEPT,NA,NA,NA,batch8pro,batch8pro,50,45,1,Screen 1,continueButton,response_rating_scale_likert_active,1497.6000000005588,NA,NA,Strongly Agree,1,0,1,0,NA,NA,NA,NA,1,statements,Keep myself safe.,1,17/06/2021 12:57,17/06/2021 13:04,IP Address,For (I feel positively about the vaccines),Most weeks,Most weeks,30,Female,NA,A levels,choice,78,2,For,For
48,1659975581213,08/08/2022 16:19:41,1659975581185,1,08/08/2022 17:19:41,94826,3,task-net4,NA,23527423,6895719,NA,complete,NA,62f136b584c5aa26a162c6c1,computer,Desktop or Laptop,Windows 10,Edge 104.0.1293.47,1536x864,1519x722,NA,ITT Ratings,2,for,8,NA,NA,NA,NA,NA,NA,ACCEPT,NA,NA,NA,batch8pro,batch8pro,18,46,1,Screen 1,continueButton,response_rating_scale_likert_active,1919.800000000745,NA,NA,Strongly Disagree,1,0,1,0,NA,NA,NA,NA,1,statements,"There's a microchip in the vaccine, wibble.",1,17/06/2021 12:46,17/06/2021 13:03,IP Address,For (I feel positively about the vaccines),Rarely,Rarely,49,Other,"my SEX (protected characteristic, please see EA 2010) is female. I don't have a gender",A levels,choice,73,3,For,Against
49,1659975584363,08/08/2022 16:19:44,1659975584337,1,08/08/2022 17:19:44,94826,3,task-net4,NA,23527423,6895719,NA,complete,NA,62f136b584c5aa26a162c6c1,computer,Desktop or Laptop,Windows 10,Edge 104.0.1293.47,1536x864,1519x722,NA,ITT Ratings,2,for,8,NA,NA,NA,NA,NA,NA,ACCEPT,NA,NA,NA,batch8pro,batch8pro,25,47,1,Screen 1,continueButton,response_rating_scale_likert_active,3129,NA,NA,Agree,1,0,1,0,NA,NA,NA,NA,1,statements,To be safe against the virus,1,17/06/2021 12:56,17/06/2021 13:03,IP Address,For (I feel positively about the vaccines),Rarely,Rarely,36,Female,NA,GCSEs,control,74,1,For,For
50,1659975589777,08/08/2022 16:19:49,1659975589441,1,08/08/2022 17:19:49,94826,3,task-net4,NA,23527423,6895719,NA,complete,NA,62f136b584c5aa26a162c6c1,computer,Desktop or Laptop,Windows 10,Edge 104.0.1293.47,1536x864,1519x722,NA,ITT Ratings,2,for,8,NA,NA,NA,NA,NA,NA,ACCEPT,NA,NA,NA,batch8pro,batch8pro,63,48,1,Screen 1,continueButton,response_rating_scale_likert_active,5080.799999999814,NA,NA,Agree,1,0,1,0,NA,NA,NA,NA,1,statements,"It will do no harm to have the vaccine, even if COVID will not affect you, it will allow you do normal things again.",1,17/06/2021 12:58,17/06/2021 13:05,IP Address,For (I feel positively about the vaccines),Once or twice a year,A few times a year,21,Male,NA,A levels,control,80,3,For,For
51,1659975592016,08/08/2022 16:19:52,1659975591977,1,08/08/2022 17:19:51,94826,3,task-net4,NA,23527423,6895719,NA,complete,NA,62f136b584c5aa26a162c6c1,computer,Desktop or Laptop,Windows 10,Edge 104.0.1293.47,1536x864,1519x722,NA,ITT Ratings,2,for,8,NA,NA,NA,NA,NA,NA,ACCEPT,NA,NA,NA,batch8pro,batch8pro,32,49,1,Screen 1,continueButton,response_rating_scale_likert_active,2512.7000000001863,NA,NA,Strongly Agree,1,0,1,0,NA,NA,NA,NA,1,statements,It is important to slow down the spread of the virus.,1,17/06/2021 12:53,17/06/2021 13:03,IP Address,For (I feel positively about the vaccines),Rarely,A few times a year,22,Female,NA,"Undergraduate degree (BSc, BA)",choice,75,2,For,For
52,1659975594415,08/08/2022 16:19:54,1659975594377,1,08/08/2022 17:19:54,94826,3,task-net4,NA,23527423,6895719,NA,complete,NA,62f136b584c5aa26a162c6c1,computer,Desktop or Laptop,Windows 10,Edge 104.0.1293.47,1536x864,1519x722,NA,ITT Ratings,2,for,8,NA,NA,NA,NA,NA,NA,ACCEPT,NA,NA,NA,batch8pro,batch8pro,43,50,1,Screen 1,continueButton,response_rating_scale_likert_active,2376.4000000003725,NA,NA,Strongly Agree,1,0,1,0,NA,NA,NA,NA,1,statements,I want normal life to resume,1,17/06/2021 13:00,17/06/2021 13:04,IP Address,For (I feel positively about the vaccines),Most weeks,Most months,28,Female,NA,"Undergraduate degree (BSc, BA)",control,77,1,For,For
53,1659975597299,08/08/2022 16:19:57,1659975597272,1,08/08/2022 17:19:57,94826,3,task-net4,NA,23527423,6895719,NA,complete,NA,62f136b584c5aa26a162c6c1,computer,Desktop or Laptop,Windows 10,Edge 104.0.1293.47,1536x864,1519x722,NA,ITT Ratings,2,for,8,NA,NA,NA,NA,NA,NA,ACCEPT,NA,NA,NA,batch8pro,batch8pro,26,51,1,Screen 1,continueButton,response_rating_scale_likert_active,2872.7999999998137,NA,NA,Agree,1,0,1,0,NA,NA,NA,NA,1,statements,To keep others safe and protected,1,17/06/2021 12:56,17/06/2021 13:03,IP Address,For (I feel positively about the vaccines),Rarely,Rarely,36,Female,NA,GCSEs,control,74,2,For,For
54,1659975600382,08/08/2022 16:20:00,1659975600345,1,08/08/2022 17:20:00,94826,3,task-net4,NA,23527423,6895719,NA,complete,NA,62f136b584c5aa26a162c6c1,computer,Desktop or Laptop,Windows 10,Edge 104.0.1293.47,1536x864,1519x722,NA,ITT Ratings,2,for,8,NA,NA,NA,NA,NA,NA,ACCEPT,NA,NA,NA,batch8pro,batch8pro,29,52,1,Screen 1,continueButton,response_rating_scale_likert_active,3047.9000000003725,NA,NA,Disagree,1,0,1,0,NA,NA,NA,NA,1,statements,The vaccine is not safe and has negative health effects.,1,17/06/2021 12:53,17/06/2021 13:03,IP Address,For (I feel positively about the vaccines),Rarely,A few times a year,22,Female,NA,"Undergraduate degree (BSc, BA)",choice,75,2,For,Against
55,1659975608959,08/08/2022 16:20:08,1659975608889,1,08/08/2022 17:20:08,94826,3,task-net4,NA,23527423,6895719,NA,complete,NA,62f136b584c5aa26a162c6c1,computer,Desktop or Laptop,Windows 10,Edge 104.0.1293.47,1536x864,1519x722,NA,ITT Ratings,2,for,8,NA,NA,NA,NA,NA,NA,ACCEPT,NA,NA,NA,batch8pro,batch8pro,60,53,1,Screen 1,continueButton,response_rating_scale_likert_active,8520.700000000186,NA,NA,Disagree,1,0,1,0,NA,NA,NA,NA,1,statements,"COVID is no more deadly than flu and has a 99% survival rate. Therefore, we do not need to be vaccinated against it, we wouldn't do so with flu.",1,17/06/2021 12:58,17/06/2021 13:05,IP Address,For (I feel positively about the vaccines),Once or twice a year,A few times a year,21,Male,NA,A levels,control,80,3,For,Against
56,1659975615728,08/08/2022 16:20:15,1659975615689,1,08/08/2022 17:20:15,94826,3,task-net4,NA,23527423,6895719,NA,complete,NA,62f136b584c5aa26a162c6c1,computer,Desktop or Laptop,Windows 10,Edge 104.0.1293.47,1536x864,1519x722,NA,ITT Ratings,2,for,8,NA,NA,NA,NA,NA,NA,ACCEPT,NA,NA,NA,batch8pro,batch8pro,5,54,1,Screen 1,continueButton,response_rating_scale_likert_active,6775.700000000186,NA,NA,Somewhat Disagree,1,0,1,0,NA,NA,NA,NA,1,statements,"I have concerns about the vaccine because I don't trust mainstream media sources, the government and/or major pharmaceutical companies",1,17/06/2021 12:51,17/06/2021 13:02,IP Address,For (I feel positively about the vaccines),Most weeks,Most months,20,Male,NA,A levels,choice,71,2,For,Against
57,1659975618640,08/08/2022 16:20:18,1659975618601,1,08/08/2022 17:20:18,94826,3,task-net4,NA,23527423,6895719,NA,complete,NA,62f136b584c5aa26a162c6c1,computer,Desktop or Laptop,Windows 10,Edge 104.0.1293.47,1536x864,1519x722,NA,ITT Ratings,2,for,8,NA,NA,NA,NA,NA,NA,ACCEPT,NA,NA,NA,batch8pro,batch8pro,19,55,1,Screen 1,continueButton,response_rating_scale_likert_active,2886.2000000001863,NA,NA,Neither Agree nor Disagree,1,0,1,0,NA,NA,NA,NA,1,statements,"I work for the NHS, I know the vaccine is safe.",1,17/06/2021 12:46,17/06/2021 13:03,IP Address,For (I feel positively about the vaccines),Rarely,Rarely,49,Other,"my SEX (protected characteristic, please see EA 2010) is female. I don't have a gender",A levels,choice,73,1,For,For
58,1659975623417,08/08/2022 16:20:23,1659975623377,1,08/08/2022 17:20:23,94826,3,task-net4,NA,23527423,6895719,NA,complete,NA,62f136b584c5aa26a162c6c1,computer,Desktop or Laptop,Windows 10,Edge 104.0.1293.47,1536x864,1519x722,NA,ITT Ratings,2,for,8,NA,NA,NA,NA,NA,NA,ACCEPT,NA,NA,NA,batch8pro,batch8pro,4,56,1,Screen 1,continueButton,response_rating_scale_likert_active,4750.700000000186,NA,NA,Neither Agree nor Disagree,1,0,1,0,NA,NA,NA,NA,1,statements,"I am pregnant, and as such am overly cautious about any medical treatment I receive",1,17/06/2021 12:51,17/06/2021 13:02,IP Address,For (I feel positively about the vaccines),Most weeks,Most months,20,Male,NA,A levels,choice,71,1,For,Against
59,1659975625930,08/08/2022 16:20:25,1659975625889,1,08/08/2022 17:20:25,94826,3,task-net4,NA,23527423,6895719,NA,complete,NA,62f136b584c5aa26a162c6c1,computer,Desktop or Laptop,Windows 10,Edge 104.0.1293.47,1536x864,1519x722,NA,ITT Ratings,2,for,8,NA,NA,NA,NA,NA,NA,ACCEPT,NA,NA,NA,batch8pro,batch8pro,41,57,1,Screen 1,continueButton,response_rating_scale_likert_active,2488.7999999998137,NA,NA,Strongly Disagree,1,0,1,0,NA,NA,NA,NA,1,statements,I do not think covid exists,1,17/06/2021 13:00,17/06/2021 13:04,IP Address,For (I feel positively about the vaccines),Most weeks,Most months,28,Female,NA,"Undergraduate degree (BSc, BA)",control,77,2,For,Against
60,1659975627902,08/08/2022 16:20:27,1659975627865,1,08/08/2022 17:20:27,94826,3,task-net4,NA,23527423,6895719,NA,complete,NA,62f136b584c5aa26a162c6c1,computer,Desktop or Laptop,Windows 10,Edge 104.0.1293.47,1536x864,1519x722,NA,ITT Ratings,2,for,8,NA,NA,NA,NA,NA,NA,ACCEPT,NA,NA,NA,batch8pro,batch8pro,37,58,1,Screen 1,continueButton,response_rating_scale_likert_active,1952.0999999996277,NA,NA,Somewhat Agree,1,0,1,0,NA,NA,NA,NA,1,statements,I want to get back to normal,1,17/06/2021 12:57,17/06/2021 13:04,IP Address,For (I feel positively about the vaccines),Rarely,Most months,26,Male,NA,"Undergraduate degree (BSc, BA)",control,76,1,For,For
61,1659975631700,08/08/2022 16:20:31,1659975631665,1,08/08/2022 17:20:31,94826,3,task-net4,NA,23527423,6895719,NA,complete,NA,62f136b584c5aa26a162c6c1,computer,Desktop or Laptop,Windows 10,Edge 104.0.1293.47,1536x864,1519x722,NA,ITT Ratings,2,for,8,NA,NA,NA,NA,NA,NA,ACCEPT,NA,NA,NA,batch8pro,batch8pro,62,59,1,Screen 1,continueButton,response_rating_scale_likert_active,3771.400000000373,NA,NA,Agree,1,0,1,0,NA,NA,NA,NA,1,statements,"Survival does not mean that COVID does not affect you, you may suffer from 'long-covid'.",1,17/06/2021 12:58,17/06/2021 13:05,IP Address,For (I feel positively about the vaccines),Once or twice a year,A few times a year,21,Male,NA,A levels,control,80,2,For,For
62,1659975634224,08/08/2022 16:20:34,1659975634185,1,08/08/2022 17:20:34,94826,3,task-net4,NA,23527423,6895719,NA,complete,NA,62f136b584c5aa26a162c6c1,computer,Desktop or Laptop,Windows 10,Edge 104.0.1293.47,1536x864,1519x722,NA,ITT Ratings,2,for,8,NA,NA,NA,NA,NA,NA,ACCEPT,NA,NA,NA,batch8pro,batch8pro,33,60,1,Screen 1,continueButton,response_rating_scale_likert_active,2493,NA,NA,Agree,1,0,1,0,NA,NA,NA,NA,1,statements,"I want to go back to my ""normal"" life pre-covid and the vaccine will enable me to do this freely.",1,17/06/2021 12:53,17/06/2021 13:03,IP Address,For (I feel positively about the vaccines),Rarely,A few times a year,22,Female,NA,"Undergraduate degree (BSc, BA)",choice,75,3,For,For
63,1659975638286,08/08/2022 16:20:38,1659975638249,1,08/08/2022 17:20:38,94826,3,task-net4,NA,23527423,6895719,NA,complete,NA,62f136b584c5aa26a162c6c1,computer,Desktop or Laptop,Windows 10,Edge 104.0.1293.47,1536x864,1519x722,NA,ITT Ratings,2,for,8,NA,NA,NA,NA,NA,NA,ACCEPT,NA,NA,NA,batch8pro,batch8pro,42,61,1,Screen 1,continueButton,response_rating_scale_likert_active,4043.899999999441,NA,NA,Somewhat Agree,1,0,1,0,NA,NA,NA,NA,1,statements,I'm scared of needles,1,17/06/2021 13:00,17/06/2021 13:04,IP Address,For (I feel positively about the vaccines),Most weeks,Most months,28,Female,NA,"Undergraduate degree (BSc, BA)",control,77,3,For,Against
64,1659975640433,08/08/2022 16:20:40,1659975640401,1,08/08/2022 17:20:40,94826,3,task-net4,NA,23527423,6895719,NA,complete,NA,62f136b584c5aa26a162c6c1,computer,Desktop or Laptop,Windows 10,Edge 104.0.1293.47,1536x864,1519x722,NA,ITT Ratings,2,for,8,NA,NA,NA,NA,NA,NA,ACCEPT,NA,NA,NA,batch8pro,batch8pro,35,62,1,Screen 1,continueButton,response_rating_scale_likert_active,2133.5,NA,NA,Strongly Disagree,1,0,1,0,NA,NA,NA,NA,1,statements,I think its a social experiment of control,1,17/06/2021 12:57,17/06/2021 13:04,IP Address,For (I feel positively about the vaccines),Rarely,Most months,26,Male,NA,"Undergraduate degree (BSc, BA)",control,76,2,For,Against
65,1659975640518,08/08/2022 16:20:40,1659975640410,1,08/08/2022 17:20:40,94826,3,task-net4,NA,23527423,6895719,NA,complete,NA,62f136b584c5aa26a162c6c1,computer,Desktop or Laptop,Windows 10,Edge 104.0.1293.47,1536x864,1519x722,NA,ITT Ratings,2,for,8,NA,NA,NA,NA,NA,NA,ACCEPT,NA,NA,NA,batch8pro,NA,NA,END TASK,NA,NA,NA,NA,230645,NA,NA,NA,NA,0,1,0,NA,NA,NA,NA,NA,NA,NA,NA,NA,NA,NA,NA,NA,NA,NA,NA,NA,NA,NA,NA,NA,NA,NA
1,1659976086649,08/08/2022 16:28:06,1659976085890,1,08/08/2022 17:28:05,94826,3,task-net4,NA,23527700,6895805,NA,complete,NA,62f1393c1b6d62fa1dafe8c4,computer,Desktop or Laptop,Windows 10,Chrome 104.0.0.0,1366x768,1366x625,NA,ITT Ratings,2,for,8,NA,NA,NA,NA,NA,NA,ACCEPT,NA,NA,NA,batch8pro,NA,NA,BEGIN TASK,NA,NA,NA,NA,NA,NA,NA,NA,NA,0,1,0,NA,NA,NA,NA,NA,NA,NA,NA,NA,NA,NA,NA,NA,NA,NA,NA,NA,NA,NA,NA,NA,NA,NA
2,1659976106683,08/08/2022 16:28:26,1659976105876,1,08/08/2022 17:28:25,94826,3,task-net4,NA,23527700,6895805,NA,complete,NA,62f1393c1b6d62fa1dafe8c4,computer,Desktop or Laptop,Windows 10,Chrome 104.0.0.0,1366x768,1366x625,NA,ITT Ratings,2,for,8,NA,NA,NA,NA,NA,NA,ACCEPT,NA,NA,NA,batch8pro,batch8pro,1,1,1,Screen 1,advancementZone,continue_button,19733,NA,NA,NA,NA,0,1,0,NA,NA,NA,NA,NA,instructions,NA,NA,NA,NA,NA,NA,NA,NA,NA,NA,NA,NA,NA,NA,NA,NA,NA
3,1659976126353,08/08/2022 16:28:46,1659976125538,1,08/08/2022 17:28:45,94826,3,task-net4,NA,23527700,6895805,NA,complete,NA,62f1393c1b6d62fa1dafe8c4,computer,Desktop or Laptop,Windows 10,Chrome 104.0.0.0,1366x768,1366x625,NA,ITT Ratings,2,for,8,NA,NA,NA,NA,NA,NA,ACCEPT,NA,NA,NA,batch8pro,batch8pro,6,1,1,Screen 1,continueButton,response_rating_scale_likert_active,19592.099999904633,NA,NA,Somewhat Agree,1,0,1,0,NA,NA,NA,NA,1,statements,I have a history of blood clots and are concerned about receiving the AstraZeneca/JJ vaccines as a result,1,17/06/2021 12:51,17/06/2021 13:02,IP Address,For (I feel positively about the vaccines),Most weeks,Most months,20,Male,NA,A levels,choice,71,3,For,Against
4,1659976140900,08/08/2022 16:29:00,1659976140072,1,08/08/2022 17:29:00,94826,3,task-net4,NA,23527700,6895805,NA,complete,NA,62f1393c1b6d62fa1dafe8c4,computer,Desktop or Laptop,Windows 10,Chrome 104.0.0.0,1366x768,1366x625,NA,ITT Ratings,2,for,8,NA,NA,NA,NA,NA,NA,ACCEPT,NA,NA,NA,batch8pro,batch8pro,59,2,1,Screen 1,continueButton,response_rating_scale_likert_active,14465.799999952316,NA,NA,Disagree,1,0,1,0,NA,NA,NA,NA,1,statements,The vaccine is still in its experimental stage and should not be given to the general population yet.,1,17/06/2021 12:58,17/06/2021 13:05,IP Address,For (I feel positively about the vaccines),Once or twice a year,A few times a year,21,Male,NA,A levels,control,80,2,For,Against
5,1659976146006,08/08/2022 16:29:06,1659976145213,1,08/08/2022 17:29:05,94826,3,task-net4,NA,23527700,6895805,NA,complete,NA,62f1393c1b6d62fa1dafe8c4,computer,Desktop or Laptop,Windows 10,Chrome 104.0.0.0,1366x768,1366x625,NA,ITT Ratings,2,for,8,NA,NA,NA,NA,NA,NA,ACCEPT,NA,NA,NA,batch8pro,batch8pro,44,3,1,Screen 1,continueButton,response_rating_scale_likert_active,5082,NA,NA,Somewhat Agree,1,0,1,0,NA,NA,NA,NA,1,statements,I want to prevent myself and others getting sick,1,17/06/2021 13:00,17/06/2021 13:04,IP Address,For (I feel positively about the vaccines),Most weeks,Most months,28,Female,NA,"Undergraduate degree (BSc, BA)",control,77,2,For,For
6,1659976151152,08/08/2022 16:29:11,1659976150454,1,08/08/2022 17:29:10,94826,3,task-net4,NA,23527700,6895805,NA,complete,NA,62f1393c1b6d62fa1dafe8c4,computer,Desktop or Laptop,Windows 10,Chrome 104.0.0.0,1366x768,1366x625,NA,ITT Ratings,2,for,8,NA,NA,NA,NA,NA,NA,ACCEPT,NA,NA,NA,batch8pro,batch8pro,37,4,1,Screen 1,continueButton,response_rating_scale_likert_active,5171.299999952316,NA,NA,Somewhat Agree,1,0,1,0,NA,NA,NA,NA,1,statements,I want to get back to normal,1,17/06/2021 12:57,17/06/2021 13:04,IP Address,For (I feel positively about the vaccines),Rarely,Most months,26,Male,NA,"Undergraduate degree (BSc, BA)",control,76,1,For,For
7,1659976158690,08/08/2022 16:29:18,1659976157893,1,08/08/2022 17:29:17,94826,3,task-net4,NA,23527700,6895805,NA,complete,NA,62f1393c1b6d62fa1dafe8c4,computer,Desktop or Laptop,Windows 10,Chrome 104.0.0.0,1366x768,1366x625,NA,ITT Ratings,2,for,8,NA,NA,NA,NA,NA,NA,ACCEPT,NA,NA,NA,batch8pro,batch8pro,32,5,1,Screen 1,continueButton,response_rating_scale_likert_active,7370.5,NA,NA,Somewhat Agree,1,0,1,0,NA,NA,NA,NA,1,statements,It is important to slow down the spread of the virus.,1,17/06/2021 12:53,17/06/2021 13:03,IP Address,For (I feel positively about the vaccines),Rarely,A few times a year,22,Female,NA,"Undergraduate degree (BSc, BA)",choice,75,2,For,For
8,1659976163647,08/08/2022 16:29:23,1659976162913,1,08/08/2022 17:29:22,94826,3,task-net4,NA,23527700,6895805,NA,complete,NA,62f1393c1b6d62fa1dafe8c4,computer,Desktop or Laptop,Windows 10,Chrome 104.0.0.0,1366x768,1366x625,NA,ITT Ratings,2,for,8,NA,NA,NA,NA,NA,NA,ACCEPT,NA,NA,NA,batch8pro,batch8pro,49,6,1,Screen 1,continueButton,response_rating_scale_likert_active,4944.199999809265,NA,NA,Somewhat Agree,1,0,1,0,NA,NA,NA,NA,1,statements,Get the world back to normal.,1,17/06/2021 12:57,17/06/2021 13:04,IP Address,For (I feel positively about the vaccines),Most weeks,Most weeks,30,Female,NA,A levels,choice,78,1,For,For
9,1659976173778,08/08/2022 16:29:33,1659976172950,1,08/08/2022 17:29:32,94826,3,task-net4,NA,23527700,6895805,NA,complete,NA,62f1393c1b6d62fa1dafe8c4,computer,Desktop or Laptop,Windows 10,Chrome 104.0.0.0,1366x768,1366x625,NA,ITT Ratings,2,for,8,NA,NA,NA,NA,NA,NA,ACCEPT,NA,NA,NA,batch8pro,batch8pro,4,7,1,Screen 1,continueButton,response_rating_scale_likert_active,9979.299999952316,NA,NA,Somewhat Agree,1,0,1,0,NA,NA,NA,NA,1,statements,"I am pregnant, and as such am overly cautious about any medical treatment I receive",1,17/06/2021 12:51,17/06/2021 13:02,IP Address,For (I feel positively about the vaccines),Most weeks,Most months,20,Male,NA,A levels,choice,71,1,For,Against
10,1659976179708,08/08/2022 16:29:39,1659976179004,1,08/08/2022 17:29:39,94826,3,task-net4,NA,23527700,6895805,NA,complete,NA,62f1393c1b6d62fa1dafe8c4,computer,Desktop or Laptop,Windows 10,Chrome 104.0.0.0,1366x768,1366x625,NA,ITT Ratings,2,for,8,NA,NA,NA,NA,NA,NA,ACCEPT,NA,NA,NA,batch8pro,batch8pro,14,8,1,Screen 1,continueButton,response_rating_scale_likert_active,5982.700000047684,NA,NA,Neither Agree nor Disagree,1,0,1,0,NA,NA,NA,NA,1,statements,I know people who suffer from long COVID.,1,17/06/2021 12:51,17/06/2021 13:03,IP Address,For (I feel positively about the vaccines),A few times a year,Most weeks,29,Female,NA,"Undergraduate degree (BSc, BA)",control,72,2,For,For
11,1659976183195,08/08/2022 16:29:43,1659976182490,1,08/08/2022 17:29:42,94826,3,task-net4,NA,23527700,6895805,NA,complete,NA,62f1393c1b6d62fa1dafe8c4,computer,Desktop or Laptop,Windows 10,Chrome 104.0.0.0,1366x768,1366x625,NA,ITT Ratings,2,for,8,NA,NA,NA,NA,NA,NA,ACCEPT,NA,NA,NA,batch8pro,batch8pro,50,9,1,Screen 1,continueButton,response_rating_scale_likert_active,3405.600000143051,NA,NA,Neither Agree nor Disagree,1,0,1,0,NA,NA,NA,NA,1,statements,Keep myself safe.,1,17/06/2021 12:57,17/06/2021 13:04,IP Address,For (I feel positively about the vaccines),Most weeks,Most weeks,30,Female,NA,A levels,choice,78,2,For,For
12,1659976189600,08/08/2022 16:29:49,1659976188778,1,08/08/2022 17:29:48,94826,3,task-net4,NA,23527700,6895805,NA,complete,NA,62f1393c1b6d62fa1dafe8c4,computer,Desktop or Laptop,Windows 10,Chrome 104.0.0.0,1366x768,1366x625,NA,ITT Ratings,2,for,8,NA,NA,NA,NA,NA,NA,ACCEPT,NA,NA,NA,batch8pro,batch8pro,9,10,1,Screen 1,continueButton,response_rating_scale_likert_active,6219,NA,NA,Somewhat Agree,1,0,1,0,NA,NA,NA,NA,1,statements,Mass vaccination eventually means the ending of lockdowns and the return to normal life,1,17/06/2021 12:51,17/06/2021 13:02,IP Address,For (I feel positively about the vaccines),Most weeks,Most months,20,Male,NA,A levels,choice,71,3,For,For
13,1659976206494,08/08/2022 16:30:06,1659976205542,1,08/08/2022 17:30:05,94826,3,task-net4,NA,23527700,6895805,NA,complete,NA,62f1393c1b6d62fa1dafe8c4,computer,Desktop or Laptop,Windows 10,Chrome 104.0.0.0,1366x768,1366x625,NA,ITT Ratings,2,for,8,NA,NA,NA,NA,NA,NA,ACCEPT,NA,NA,NA,batch8pro,batch8pro,7,11,1,Screen 1,continueButton,response_rating_scale_likert_active,16703.299999952316,NA,NA,Neither Agree nor Disagree,1,0,1,0,NA,NA,NA,NA,1,statements,It protects myself from getting seriously ill with Covid-19,1,17/06/2021 12:51,17/06/2021 13:02,IP Address,For (I feel positively about the vaccines),Most weeks,Most months,20,Male,NA,A levels,choice,71,1,For,For
14,1659976218613,08/08/2022 16:30:18,1659976217810,1,08/08/2022 17:30:17,94826,3,task-net4,NA,23527700,6895805,NA,complete,NA,62f1393c1b6d62fa1dafe8c4,computer,Desktop or Laptop,Windows 10,Chrome 104.0.0.0,1366x768,1366x625,NA,ITT Ratings,2,for,8,NA,NA,NA,NA,NA,NA,ACCEPT,NA,NA,NA,batch8pro,batch8pro,5,12,1,Screen 1,continueButton,response_rating_scale_likert_active,12193.700000047684,NA,NA,Somewhat Agree,1,0,1,0,NA,NA,NA,NA,1,statements,"I have concerns about the vaccine because I don't trust mainstream media sources, the government and/or major pharmaceutical companies",1,17/06/2021 12:51,17/06/2021 13:02,IP Address,For (I feel positively about the vaccines),Most weeks,Most months,20,Male,NA,A levels,choice,71,2,For,Against
15,1659976232175,08/08/2022 16:30:32,1659976231355,1,08/08/2022 17:30:31,94826,3,task-net4,NA,23527700,6895805,NA,complete,NA,62f1393c1b6d62fa1dafe8c4,computer,Desktop or Laptop,Windows 10,Chrome 104.0.0.0,1366x768,1366x625,NA,ITT Ratings,2,for,8,NA,NA,NA,NA,NA,NA,ACCEPT,NA,NA,NA,batch8pro,batch8pro,3,13,1,Screen 1,continueButton,response_rating_scale_likert_active,13480.200000047684,NA,NA,Somewhat Disagree,1,0,1,0,NA,NA,NA,NA,1,statements,We would like to check you are reading each argument carefully. Please select 'Somewhat Disagree' for this answer,1,NA,NA,NA,NA,NA,NA,NA,NA,NA,NA,NA,NA,check2,NA,NA
16,1659976239896,08/08/2022 16:30:39,1659976239097,1,08/08/2022 17:30:39,94826,3,task-net4,NA,23527700,6895805,NA,complete,NA,62f1393c1b6d62fa1dafe8c4,computer,Desktop or Laptop,Windows 10,Chrome 104.0.0.0,1366x768,1366x625,NA,ITT Ratings,2,for,8,NA,NA,NA,NA,NA,NA,ACCEPT,NA,NA,NA,batch8pro,batch8pro,18,14,1,Screen 1,continueButton,response_rating_scale_likert_active,7684.899999856949,NA,NA,Disagree,1,0,1,0,NA,NA,NA,NA,1,statements,"There's a microchip in the vaccine, wibble.",1,17/06/2021 12:46,17/06/2021 13:03,IP Address,For (I feel positively about the vaccines),Rarely,Rarely,49,Other,"my SEX (protected characteristic, please see EA 2010) is female. I don't have a gender",A levels,choice,73,3,For,Against
17,1659976243463,08/08/2022 16:30:43,1659976242765,1,08/08/2022 17:30:42,94826,3,task-net4,NA,23527700,6895805,NA,complete,NA,62f1393c1b6d62fa1dafe8c4,computer,Desktop or Laptop,Windows 10,Chrome 104.0.0.0,1366x768,1366x625,NA,ITT Ratings,2,for,8,NA,NA,NA,NA,NA,NA,ACCEPT,NA,NA,NA,batch8pro,batch8pro,26,15,1,Screen 1,continueButton,response_rating_scale_likert_active,3612.400000095367,NA,NA,Somewhat Agree,1,0,1,0,NA,NA,NA,NA,1,statements,To keep others safe and protected,1,17/06/2021 12:56,17/06/2021 13:03,IP Address,For (I feel positively about the vaccines),Rarely,Rarely,36,Female,NA,GCSEs,control,74,2,For,For
18,1659976246698,08/08/2022 16:30:46,1659976245925,1,08/08/2022 17:30:45,94826,3,task-net4,NA,23527700,6895805,NA,complete,NA,62f1393c1b6d62fa1dafe8c4,computer,Desktop or Laptop,Windows 10,Chrome 104.0.0.0,1366x768,1366x625,NA,ITT Ratings,2,for,8,NA,NA,NA,NA,NA,NA,ACCEPT,NA,NA,NA,batch8pro,batch8pro,25,16,1,Screen 1,continueButton,response_rating_scale_likert_active,3103,NA,NA,Somewhat Agree,1,0,1,0,NA,NA,NA,NA,1,statements,To be safe against the virus,1,17/06/2021 12:56,17/06/2021 13:03,IP Address,For (I feel positively about the vaccines),Rarely,Rarely,36,Female,NA,GCSEs,control,74,1,For,For
19,1659976257934,08/08/2022 16:30:57,1659976257131,1,08/08/2022 17:30:57,94826,3,task-net4,NA,23527700,6895805,NA,complete,NA,62f1393c1b6d62fa1dafe8c4,computer,Desktop or Laptop,Windows 10,Chrome 104.0.0.0,1366x768,1366x625,NA,ITT Ratings,2,for,8,NA,NA,NA,NA,NA,NA,ACCEPT,NA,NA,NA,batch8pro,batch8pro,8,17,1,Screen 1,continueButton,response_rating_scale_likert_active,11151.5,NA,NA,Somewhat Agree,1,0,1,0,NA,NA,NA,NA,1,statements,"It probably prevents me from spreading Covid-19 to other people as much as I would, had I not had the vaccine",1,17/06/2021 12:51,17/06/2021 13:02,IP Address,For (I feel positively about the vaccines),Most weeks,Most months,20,Male,NA,A levels,choice,71,2,For,For
20,1659976269325,08/08/2022 16:31:09,1659976268632,1,08/08/2022 17:31:08,94826,3,task-net4,NA,23527700,6895805,NA,complete,NA,62f1393c1b6d62fa1dafe8c4,computer,Desktop or Laptop,Windows 10,Chrome 104.0.0.0,1366x768,1366x625,NA,ITT Ratings,2,for,8,NA,NA,NA,NA,NA,NA,ACCEPT,NA,NA,NA,batch8pro,batch8pro,40,18,1,Screen 1,continueButton,response_rating_scale_likert_active,11440.900000095367,NA,NA,Somewhat Agree,1,0,1,0,NA,NA,NA,NA,1,statements,There has not been enough testing on the vaccine,1,17/06/2021 13:00,17/06/2021 13:04,IP Address,For (I feel positively about the vaccines),Most weeks,Most months,28,Female,NA,"Undergraduate degree (BSc, BA)",control,77,1,For,Against
21,1659976274368,08/08/2022 16:31:14,1659976273672,1,08/08/2022 17:31:13,94826,3,task-net4,NA,23527700,6895805,NA,complete,NA,62f1393c1b6d62fa1dafe8c4,computer,Desktop or Laptop,Windows 10,Chrome 104.0.0.0,1366x768,1366x625,NA,ITT Ratings,2,for,8,NA,NA,NA,NA,NA,NA,ACCEPT,NA,NA,NA,batch8pro,batch8pro,36,19,1,Screen 1,continueButton,response_rating_scale_likert_active,4982.099999904633,NA,NA,Somewhat Agree,1,0,1,0,NA,NA,NA,NA,1,statements,Its been produced to quickly,1,17/06/2021 12:57,17/06/2021 13:04,IP Address,For (I feel positively about the vaccines),Rarely,Most months,26,Male,NA,"Undergraduate degree (BSc, BA)",control,76,3,For,Against
22,1659976282134,08/08/2022 16:31:22,1659976281337,1,08/08/2022 17:31:21,94826,3,task-net4,NA,23527700,6895805,NA,complete,NA,62f1393c1b6d62fa1dafe8c4,computer,Desktop or Laptop,Windows 10,Chrome 104.0.0.0,1366x768,1366x625,NA,ITT Ratings,2,for,8,NA,NA,NA,NA,NA,NA,ACCEPT,NA,NA,NA,batch8pro,batch8pro,28,20,1,Screen 1,continueButton,response_rating_scale_likert_active,7607.200000047684,NA,NA,Somewhat Disagree,1,0,1,0,NA,NA,NA,NA,1,statements,It is a device for the government to monitor us.,1,17/06/2021 12:53,17/06/2021 13:03,IP Address,For (I feel positively about the vaccines),Rarely,A few times a year,22,Female,NA,"Undergraduate degree (BSc, BA)",choice,75,1,For,Against
23,1659976286636,08/08/2022 16:31:26,1659976285848,1,08/08/2022 17:31:25,94826,3,task-net4,NA,23527700,6895805,NA,complete,NA,62f1393c1b6d62fa1dafe8c4,computer,Desktop or Laptop,Windows 10,Chrome 104.0.0.0,1366x768,1366x625,NA,ITT Ratings,2,for,8,NA,NA,NA,NA,NA,NA,ACCEPT,NA,NA,NA,batch8pro,batch8pro,55,21,1,Screen 1,continueButton,response_rating_scale_likert_active,4446,NA,NA,Neither Agree nor Disagree,1,0,1,0,NA,NA,NA,NA,1,statements,I want to be as protected as possible.,1,17/06/2021 12:51,17/06/2021 13:05,IP Address,For (I feel positively about the vaccines),Rarely,Most months,37,Female,NA,"Undergraduate degree (BSc, BA)",control,79,1,For,For
24,1659976291618,08/08/2022 16:31:31,1659976290921,1,08/08/2022 17:31:30,94826,3,task-net4,NA,23527700,6895805,NA,complete,NA,62f1393c1b6d62fa1dafe8c4,computer,Desktop or Laptop,Windows 10,Chrome 104.0.0.0,1366x768,1366x625,NA,ITT Ratings,2,for,8,NA,NA,NA,NA,NA,NA,ACCEPT,NA,NA,NA,batch8pro,batch8pro,10,22,1,Screen 1,continueButton,response_rating_scale_likert_active,5011.699999809265,NA,NA,Somewhat Agree,1,0,1,0,NA,NA,NA,NA,1,statements,There isn't enough research on the vaccine.,1,17/06/2021 12:51,17/06/2021 13:03,IP Address,For (I feel positively about the vaccines),A few times a year,Most weeks,29,Female,NA,"Undergraduate degree (BSc, BA)",control,72,1,For,Against
25,1659976300853,08/08/2022 16:31:40,1659976300155,1,08/08/2022 17:31:40,94826,3,task-net4,NA,23527700,6895805,NA,complete,NA,62f1393c1b6d62fa1dafe8c4,computer,Desktop or Laptop,Windows 10,Chrome 104.0.0.0,1366x768,1366x625,NA,ITT Ratings,2,for,8,NA,NA,NA,NA,NA,NA,ACCEPT,NA,NA,NA,batch8pro,batch8pro,2,23,1,Screen 1,continueButton,response_rating_scale_likert_active,9176.400000095367,NA,NA,Somewhat Agree,1,0,1,0,NA,NA,NA,NA,1,statements,We would like to check you are reading each argument carefully. Please select 'Somewhat Agree' for this answer,1,NA,NA,NA,NA,NA,NA,NA,NA,NA,NA,NA,NA,check1,NA,NA
26,1659976306873,08/08/2022 16:31:46,1659976306079,1,08/08/2022 17:31:46,94826,3,task-net4,NA,23527700,6895805,NA,complete,NA,62f1393c1b6d62fa1dafe8c4,computer,Desktop or Laptop,Windows 10,Chrome 104.0.0.0,1366x768,1366x625,NA,ITT Ratings,2,for,8,NA,NA,NA,NA,NA,NA,ACCEPT,NA,NA,NA,batch8pro,batch8pro,53,24,1,Screen 1,continueButton,response_rating_scale_likert_active,5828.700000047684,NA,NA,Somewhat Disagree,1,0,1,0,NA,NA,NA,NA,1,statements,Vaccines are a way for the government to control us.,1,17/06/2021 12:51,17/06/2021 13:05,IP Address,For (I feel positively about the vaccines),Rarely,Most months,37,Female,NA,"Undergraduate degree (BSc, BA)",control,79,2,For,Against
27,1659976318632,08/08/2022 16:31:58,1659976317847,1,08/08/2022 17:31:57,94826,3,task-net4,NA,23527700,6895805,NA,complete,NA,62f1393c1b6d62fa1dafe8c4,computer,Desktop or Laptop,Windows 10,Chrome 104.0.0.0,1366x768,1366x625,NA,ITT Ratings,2,for,8,NA,NA,NA,NA,NA,NA,ACCEPT,NA,NA,NA,batch8pro,batch8pro,11,25,1,Screen 1,continueButton,response_rating_scale_likert_active,11715.599999904633,NA,NA,Somewhat Agree,1,0,1,0,NA,NA,NA,NA,1,statements,"I'll trust my immune system, that's what it is there for.",1,17/06/2021 12:51,17/06/2021 13:03,IP Address,For (I feel positively about the vaccines),A few times a year,Most weeks,29,Female,NA,"Undergraduate degree (BSc, BA)",control,72,2,For,Against
28,1659976323649,08/08/2022 16:32:03,1659976322951,1,08/08/2022 17:32:02,94826,3,task-net4,NA,23527700,6895805,NA,complete,NA,62f1393c1b6d62fa1dafe8c4,computer,Desktop or Laptop,Windows 10,Chrome 104.0.0.0,1366x768,1366x625,NA,ITT Ratings,2,for,8,NA,NA,NA,NA,NA,NA,ACCEPT,NA,NA,NA,batch8pro,batch8pro,31,26,1,Screen 1,continueButton,response_rating_scale_likert_active,5041.699999809265,NA,NA,Somewhat Agree,1,0,1,0,NA,NA,NA,NA,1,statements,The positive effects of the vaccine outweigh the negative effects.,1,17/06/2021 12:53,17/06/2021 13:03,IP Address,For (I feel positively about the vaccines),Rarely,A few times a year,22,Female,NA,"Undergraduate degree (BSc, BA)",choice,75,1,For,For
29,1659976325445,08/08/2022 16:32:05,1659976324649,1,08/08/2022 17:32:04,94826,3,task-net4,NA,23527700,6895805,NA,complete,NA,62f1393c1b6d62fa1dafe8c4,computer,Desktop or Laptop,Windows 10,Chrome 104.0.0.0,1366x768,1366x625,NA,ITT Ratings,2,for,8,NA,NA,NA,NA,NA,NA,ACCEPT,NA,NA,NA,batch8pro,batch8pro,51,27,1,Screen 1,continueButton,response_rating_scale_likert_active,1642.7999999523165,NA,NA,Somewhat Agree,1,0,1,0,NA,NA,NA,NA,1,statements,Keep my family safe.,1,17/06/2021 12:57,17/06/2021 13:04,IP Address,For (I feel positively about the vaccines),Most weeks,Most weeks,30,Female,NA,A levels,choice,78,3,For,For
30,1659976328982,08/08/2022 16:32:08,1659976328278,1,08/08/2022 17:32:08,94826,3,task-net4,NA,23527700,6895805,NA,complete,NA,62f1393c1b6d62fa1dafe8c4,computer,Desktop or Laptop,Windows 10,Chrome 104.0.0.0,1366x768,1366x625,NA,ITT Ratings,2,for,8,NA,NA,NA,NA,NA,NA,ACCEPT,NA,NA,NA,batch8pro,batch8pro,12,28,1,Screen 1,continueButton,response_rating_scale_likert_active,3581.7000000476837,NA,NA,Neither Agree nor Disagree,1,0,1,0,NA,NA,NA,NA,1,statements,It alters human DNA.,1,17/06/2021 12:51,17/06/2021 13:03,IP Address,For (I feel positively about the vaccines),A few times a year,Most weeks,29,Female,NA,"Undergraduate degree (BSc, BA)",control,72,3,For,Against
31,1659976334840,08/08/2022 16:32:14,1659976334146,1,08/08/2022 17:32:14,94826,3,task-net4,NA,23527700,6895805,NA,complete,NA,62f1393c1b6d62fa1dafe8c4,computer,Desktop or Laptop,Windows 10,Chrome 104.0.0.0,1366x768,1366x625,NA,ITT Ratings,2,for,8,NA,NA,NA,NA,NA,NA,ACCEPT,NA,NA,NA,batch8pro,batch8pro,57,29,1,Screen 1,continueButton,response_rating_scale_likert_active,5811,NA,NA,Somewhat Agree,1,0,1,0,NA,NA,NA,NA,1,statements,I want to be able to live freely again with restrictions lifted.,1,17/06/2021 12:51,17/06/2021 13:05,IP Address,For (I feel positively about the vaccines),Rarely,Most months,37,Female,NA,"Undergraduate degree (BSc, BA)",control,79,3,For,For
32,1659976339667,08/08/2022 16:32:19,1659976338479,1,08/08/2022 17:32:18,94826,3,task-net4,NA,23527700,6895805,NA,complete,NA,62f1393c1b6d62fa1dafe8c4,computer,Desktop or Laptop,Windows 10,Chrome 104.0.0.0,1366x768,1366x625,NA,ITT Ratings,2,for,8,NA,NA,NA,NA,NA,NA,ACCEPT,NA,NA,NA,batch8pro,batch8pro,27,30,1,Screen 1,continueButton,response_rating_scale_likert_active,4272,NA,NA,Somewhat Agree,1,0,1,0,NA,NA,NA,NA,1,statements,To be less at risk of catching the virus,1,17/06/2021 12:56,17/06/2021 13:03,IP Address,For (I feel positively about the vaccines),Rarely,Rarely,36,Female,NA,GCSEs,control,74,3,For,For
33,1659976343297,08/08/2022 16:32:23,1659976342601,1,08/08/2022 17:32:22,94826,3,task-net4,NA,23527700,6895805,NA,complete,NA,62f1393c1b6d62fa1dafe8c4,computer,Desktop or Laptop,Windows 10,Chrome 104.0.0.0,1366x768,1366x625,NA,ITT Ratings,2,for,8,NA,NA,NA,NA,NA,NA,ACCEPT,NA,NA,NA,batch8pro,batch8pro,42,31,1,Screen 1,continueButton,response_rating_scale_likert_active,4043.099999904633,NA,NA,Disagree,1,0,1,0,NA,NA,NA,NA,1,statements,I'm scared of needles,1,17/06/2021 13:00,17/06/2021 13:04,IP Address,For (I feel positively about the vaccines),Most weeks,Most months,28,Female,NA,"Undergraduate degree (BSc, BA)",control,77,3,For,Against
34,1659976355496,08/08/2022 16:32:35,1659976354610,1,08/08/2022 17:32:34,94826,3,task-net4,NA,23527700,6895805,NA,complete,NA,62f1393c1b6d62fa1dafe8c4,computer,Desktop or Laptop,Windows 10,Chrome 104.0.0.0,1366x768,1366x625,NA,ITT Ratings,2,for,8,NA,NA,NA,NA,NA,NA,ACCEPT,NA,NA,NA,batch8pro,batch8pro,62,32,1,Screen 1,continueButton,response_rating_scale_likert_active,11952.5,NA,NA,Somewhat Agree,1,0,1,0,NA,NA,NA,NA,1,statements,"Survival does not mean that COVID does not affect you, you may suffer from 'long-covid'.",1,17/06/2021 12:58,17/06/2021 13:05,IP Address,For (I feel positively about the vaccines),Once or twice a year,A few times a year,21,Male,NA,A levels,control,80,2,For,For
35,1659976358740,08/08/2022 16:32:38,1659976358036,1,08/08/2022 17:32:38,94826,3,task-net4,NA,23527700,6895805,NA,complete,NA,62f1393c1b6d62fa1dafe8c4,computer,Desktop or Laptop,Windows 10,Chrome 104.0.0.0,1366x768,1366x625,NA,ITT Ratings,2,for,8,NA,NA,NA,NA,NA,NA,ACCEPT,NA,NA,NA,batch8pro,batch8pro,17,33,1,Screen 1,continueButton,response_rating_scale_likert_active,3391.099999904633,NA,NA,Neither Agree nor Disagree,1,0,1,0,NA,NA,NA,NA,1,statements,The side effects are too risky.,1,17/06/2021 12:46,17/06/2021 13:03,IP Address,For (I feel positively about the vaccines),Rarely,Rarely,49,Other,"my SEX (protected characteristic, please see EA 2010) is female. I don't have a gender",A levels,choice,73,2,For,Against
36,1659976363072,08/08/2022 16:32:43,1659976362364,1,08/08/2022 17:32:42,94826,3,task-net4,NA,23527700,6895805,NA,complete,NA,62f1393c1b6d62fa1dafe8c4,computer,Desktop or Laptop,Windows 10,Chrome 104.0.0.0,1366x768,1366x625,NA,ITT Ratings,2,for,8,NA,NA,NA,NA,NA,NA,ACCEPT,NA,NA,NA,batch8pro,batch8pro,34,34,1,Screen 1,continueButton,response_rating_scale_likert_active,4271.400000095367,NA,NA,Neither Agree nor Disagree,1,0,1,0,NA,NA,NA,NA,1,statements,I don't trust whats in the vaccine,1,17/06/2021 12:57,17/06/2021 13:04,IP Address,For (I feel positively about the vaccines),Rarely,Most months,26,Male,NA,"Undergraduate degree (BSc, BA)",control,76,1,For,Against
37,1659976375765,08/08/2022 16:32:55,1659976374893,1,08/08/2022 17:32:54,94826,3,task-net4,NA,23527700,6895805,NA,complete,NA,62f1393c1b6d62fa1dafe8c4,computer,Desktop or Laptop,Windows 10,Chrome 104.0.0.0,1366x768,1366x625,NA,ITT Ratings,2,for,8,NA,NA,NA,NA,NA,NA,ACCEPT,NA,NA,NA,batch8pro,batch8pro,60,35,1,Screen 1,continueButton,response_rating_scale_likert_active,12464.700000047684,NA,NA,Neither Agree nor Disagree,1,0,1,0,NA,NA,NA,NA,1,statements,"COVID is no more deadly than flu and has a 99% survival rate. Therefore, we do not need to be vaccinated against it, we wouldn't do so with flu.",1,17/06/2021 12:58,17/06/2021 13:05,IP Address,For (I feel positively about the vaccines),Once or twice a year,A few times a year,21,Male,NA,A levels,control,80,3,For,Against
38,1659976378842,08/08/2022 16:32:58,1659976378144,1,08/08/2022 17:32:58,94826,3,task-net4,NA,23527700,6895805,NA,complete,NA,62f1393c1b6d62fa1dafe8c4,computer,Desktop or Laptop,Windows 10,Chrome 104.0.0.0,1366x768,1366x625,NA,ITT Ratings,2,for,8,NA,NA,NA,NA,NA,NA,ACCEPT,NA,NA,NA,batch8pro,batch8pro,38,36,1,Screen 1,continueButton,response_rating_scale_likert_active,3187.599999904633,NA,NA,Somewhat Agree,1,0,1,0,NA,NA,NA,NA,1,statements,To preserve the life of others,1,17/06/2021 12:57,17/06/2021 13:04,IP Address,For (I feel positively about the vaccines),Rarely,Most months,26,Male,NA,"Undergraduate degree (BSc, BA)",control,76,2,For,For
39,1659976385318,08/08/2022 16:33:05,1659976384534,1,08/08/2022 17:33:04,94826,3,task-net4,NA,23527700,6895805,NA,complete,NA,62f1393c1b6d62fa1dafe8c4,computer,Desktop or Laptop,Windows 10,Chrome 104.0.0.0,1366x768,1366x625,NA,ITT Ratings,2,for,8,NA,NA,NA,NA,NA,NA,ACCEPT,NA,NA,NA,batch8pro,batch8pro,21,37,1,Screen 1,continueButton,response_rating_scale_likert_active,6336.799999952316,NA,NA,Neither Agree nor Disagree,1,0,1,0,NA,NA,NA,NA,1,statements,"I'm clinically vulnerable, I would like to go out safely.",1,17/06/2021 12:46,17/06/2021 13:03,IP Address,For (I feel positively about the vaccines),Rarely,Rarely,49,Other,"my SEX (protected characteristic, please see EA 2010) is female. I don't have a gender",A levels,choice,73,3,For,For
40,1659976389394,08/08/2022 16:33:09,1659976388696,1,08/08/2022 17:33:08,94826,3,task-net4,NA,23527700,6895805,NA,complete,NA,62f1393c1b6d62fa1dafe8c4,computer,Desktop or Laptop,Windows 10,Chrome 104.0.0.0,1366x768,1366x625,NA,ITT Ratings,2,for,8,NA,NA,NA,NA,NA,NA,ACCEPT,NA,NA,NA,batch8pro,batch8pro,52,38,1,Screen 1,continueButton,response_rating_scale_likert_active,4102.299999952316,NA,NA,Somewhat Disagree,1,0,1,0,NA,NA,NA,NA,1,statements,Vaccines cause autism.,1,17/06/2021 12:51,17/06/2021 13:05,IP Address,For (I feel positively about the vaccines),Rarely,Most months,37,Female,NA,"Undergraduate degree (BSc, BA)",control,79,1,For,Against
41,1659976392838,08/08/2022 16:33:12,1659976392134,1,08/08/2022 17:33:12,94826,3,task-net4,NA,23527700,6895805,NA,complete,NA,62f1393c1b6d62fa1dafe8c4,computer,Desktop or Laptop,Windows 10,Chrome 104.0.0.0,1366x768,1366x625,NA,ITT Ratings,2,for,8,NA,NA,NA,NA,NA,NA,ACCEPT,NA,NA,NA,batch8pro,batch8pro,45,39,1,Screen 1,continueButton,response_rating_scale_likert_active,3375.099999904633,NA,NA,Somewhat Agree,1,0,1,0,NA,NA,NA,NA,1,statements,It's the right thing to do,1,17/06/2021 13:00,17/06/2021 13:04,IP Address,For (I feel positively about the vaccines),Most weeks,Most months,28,Female,NA,"Undergraduate degree (BSc, BA)",control,77,3,For,For
42,1659976396325,08/08/2022 16:33:16,1659976395532,1,08/08/2022 17:33:15,94826,3,task-net4,NA,23527700,6895805,NA,complete,NA,62f1393c1b6d62fa1dafe8c4,computer,Desktop or Laptop,Windows 10,Chrome 104.0.0.0,1366x768,1366x625,NA,ITT Ratings,2,for,8,NA,NA,NA,NA,NA,NA,ACCEPT,NA,NA,NA,batch8pro,batch8pro,35,40,1,Screen 1,continueButton,response_rating_scale_likert_active,3341,NA,NA,Neither Agree nor Disagree,1,0,1,0,NA,NA,NA,NA,1,statements,I think its a social experiment of control,1,17/06/2021 12:57,17/06/2021 13:04,IP Address,For (I feel positively about the vaccines),Rarely,Most months,26,Male,NA,"Undergraduate degree (BSc, BA)",control,76,2,For,Against
43,1659976402740,08/08/2022 16:33:22,1659976402036,1,08/08/2022 17:33:22,94826,3,task-net4,NA,23527700,6895805,NA,complete,NA,62f1393c1b6d62fa1dafe8c4,computer,Desktop or Laptop,Windows 10,Chrome 104.0.0.0,1366x768,1366x625,NA,ITT Ratings,2,for,8,NA,NA,NA,NA,NA,NA,ACCEPT,NA,NA,NA,batch8pro,batch8pro,33,41,1,Screen 1,continueButton,response_rating_scale_likert_active,6447,NA,NA,Somewhat Agree,1,0,1,0,NA,NA,NA,NA,1,statements,"I want to go back to my ""normal"" life pre-covid and the vaccine will enable me to do this freely.",1,17/06/2021 12:53,17/06/2021 13:03,IP Address,For (I feel positively about the vaccines),Rarely,A few times a year,22,Female,NA,"Undergraduate degree (BSc, BA)",choice,75,3,For,For
44,1659976409840,08/08/2022 16:33:29,1659976409045,1,08/08/2022 17:33:29,94826,3,task-net4,NA,23527700,6895805,NA,complete,NA,62f1393c1b6d62fa1dafe8c4,computer,Desktop or Laptop,Windows 10,Chrome 104.0.0.0,1366x768,1366x625,NA,ITT Ratings,2,for,8,NA,NA,NA,NA,NA,NA,ACCEPT,NA,NA,NA,batch8pro,batch8pro,22,42,1,Screen 1,continueButton,response_rating_scale_likert_active,6721.400000095367,NA,NA,Somewhat Agree,1,0,1,0,NA,NA,NA,NA,1,statements,I don’t want to be a guinea pig,1,17/06/2021 12:56,17/06/2021 13:03,IP Address,For (I feel positively about the vaccines),Rarely,Rarely,36,Female,NA,GCSEs,control,74,1,For,Against
45,1659976420756,08/08/2022 16:33:40,1659976420055,1,08/08/2022 17:33:40,94826,3,task-net4,NA,23527700,6895805,NA,complete,NA,62f1393c1b6d62fa1dafe8c4,computer,Desktop or Laptop,Windows 10,Chrome 104.0.0.0,1366x768,1366x625,NA,ITT Ratings,2,for,8,NA,NA,NA,NA,NA,NA,ACCEPT,NA,NA,NA,batch8pro,batch8pro,63,43,1,Screen 1,continueButton,response_rating_scale_likert_active,10945.300000190737,NA,NA,Neither Agree nor Disagree,1,0,1,0,NA,NA,NA,NA,1,statements,"It will do no harm to have the vaccine, even if COVID will not affect you, it will allow you do normal things again.",1,17/06/2021 12:58,17/06/2021 13:05,IP Address,For (I feel positively about the vaccines),Once or twice a year,A few times a year,21,Male,NA,A levels,control,80,3,For,For
46,1659976424299,08/08/2022 16:33:44,1659976423598,1,08/08/2022 17:33:43,94826,3,task-net4,NA,23527700,6895805,NA,complete,NA,62f1393c1b6d62fa1dafe8c4,computer,Desktop or Laptop,Windows 10,Chrome 104.0.0.0,1366x768,1366x625,NA,ITT Ratings,2,for,8,NA,NA,NA,NA,NA,NA,ACCEPT,NA,NA,NA,batch8pro,batch8pro,24,44,1,Screen 1,continueButton,response_rating_scale_likert_active,3482.2000000476837,NA,NA,Agree,1,0,1,0,NA,NA,NA,NA,1,statements,Scared because of news reports,1,17/06/2021 12:56,17/06/2021 13:03,IP Address,For (I feel positively about the vaccines),Rarely,Rarely,36,Female,NA,GCSEs,control,74,3,For,Against
47,1659976429793,08/08/2022 16:33:49,1659976428997,1,08/08/2022 17:33:48,94826,3,task-net4,NA,23527700,6895805,NA,complete,NA,62f1393c1b6d62fa1dafe8c4,computer,Desktop or Laptop,Windows 10,Chrome 104.0.0.0,1366x768,1366x625,NA,ITT Ratings,2,for,8,NA,NA,NA,NA,NA,NA,ACCEPT,NA,NA,NA,batch8pro,batch8pro,47,45,1,Screen 1,continueButton,response_rating_scale_likert_active,5347.400000095367,NA,NA,Somewhat Agree,1,0,1,0,NA,NA,NA,NA,1,statements,It hasn't been out long enough to realise long term effects.,1,17/06/2021 12:57,17/06/2021 13:04,IP Address,For (I feel positively about the vaccines),Most weeks,Most weeks,30,Female,NA,A levels,choice,78,2,For,Against
48,1659976431794,08/08/2022 16:33:51,1659976431089,1,08/08/2022 17:33:51,94826,3,task-net4,NA,23527700,6895805,NA,complete,NA,62f1393c1b6d62fa1dafe8c4,computer,Desktop or Laptop,Windows 10,Chrome 104.0.0.0,1366x768,1366x625,NA,ITT Ratings,2,for,8,NA,NA,NA,NA,NA,NA,ACCEPT,NA,NA,NA,batch8pro,batch8pro,13,46,1,Screen 1,continueButton,response_rating_scale_likert_active,2024.7999999523165,NA,NA,Somewhat Agree,1,0,1,0,NA,NA,NA,NA,1,statements,I want to protect myself.,1,17/06/2021 12:51,17/06/2021 13:03,IP Address,For (I feel positively about the vaccines),A few times a year,Most weeks,29,Female,NA,"Undergraduate degree (BSc, BA)",control,72,1,For,For
49,1659976439447,08/08/2022 16:33:59,1659976438640,1,08/08/2022 17:33:58,94826,3,task-net4,NA,23527700,6895805,NA,complete,NA,62f1393c1b6d62fa1dafe8c4,computer,Desktop or Laptop,Windows 10,Chrome 104.0.0.0,1366x768,1366x625,NA,ITT Ratings,2,for,8,NA,NA,NA,NA,NA,NA,ACCEPT,NA,NA,NA,batch8pro,batch8pro,58,47,1,Screen 1,continueButton,response_rating_scale_likert_active,7492.799999952316,NA,NA,Somewhat Agree,1,0,1,0,NA,NA,NA,NA,1,statements,There has not been enough time to safely develop vaccines as others take years and years to develop and test safely.,1,17/06/2021 12:58,17/06/2021 13:05,IP Address,For (I feel positively about the vaccines),Once or twice a year,A few times a year,21,Male,NA,A levels,control,80,1,For,Against
50,1659976446636,08/08/2022 16:34:06,1659976445828,1,08/08/2022 17:34:05,94826,3,task-net4,NA,23527700,6895805,NA,complete,NA,62f1393c1b6d62fa1dafe8c4,computer,Desktop or Laptop,Windows 10,Chrome 104.0.0.0,1366x768,1366x625,NA,ITT Ratings,2,for,8,NA,NA,NA,NA,NA,NA,ACCEPT,NA,NA,NA,batch8pro,batch8pro,30,48,1,Screen 1,continueButton,response_rating_scale_likert_active,7132,NA,NA,Somewhat Agree,1,0,1,0,NA,NA,NA,NA,1,statements,I am relying on herd immunity and others to be vaccinated so I get the protection too.,1,17/06/2021 12:53,17/06/2021 13:03,IP Address,For (I feel positively about the vaccines),Rarely,A few times a year,22,Female,NA,"Undergraduate degree (BSc, BA)",choice,75,3,For,Against
51,1659976450752,08/08/2022 16:34:10,1659976450043,1,08/08/2022 17:34:10,94826,3,task-net4,NA,23527700,6895805,NA,complete,NA,62f1393c1b6d62fa1dafe8c4,computer,Desktop or Laptop,Windows 10,Chrome 104.0.0.0,1366x768,1366x625,NA,ITT Ratings,2,for,8,NA,NA,NA,NA,NA,NA,ACCEPT,NA,NA,NA,batch8pro,batch8pro,29,49,1,Screen 1,continueButton,response_rating_scale_likert_active,4167.699999809265,NA,NA,Neither Agree nor Disagree,1,0,1,0,NA,NA,NA,NA,1,statements,The vaccine is not safe and has negative health effects.,1,17/06/2021 12:53,17/06/2021 13:03,IP Address,For (I feel positively about the vaccines),Rarely,A few times a year,22,Female,NA,"Undergraduate degree (BSc, BA)",choice,75,2,For,Against
52,1659976454759,08/08/2022 16:34:14,1659976454057,1,08/08/2022 17:34:14,94826,3,task-net4,NA,23527700,6895805,NA,complete,NA,62f1393c1b6d62fa1dafe8c4,computer,Desktop or Laptop,Windows 10,Chrome 104.0.0.0,1366x768,1366x625,NA,ITT Ratings,2,for,8,NA,NA,NA,NA,NA,NA,ACCEPT,NA,NA,NA,batch8pro,batch8pro,48,50,1,Screen 1,continueButton,response_rating_scale_likert_active,3945.899999856949,NA,NA,Somewhat Disagree,1,0,1,0,NA,NA,NA,NA,1,statements,The government are using it as population control.,1,17/06/2021 12:57,17/06/2021 13:04,IP Address,For (I feel positively about the vaccines),Most weeks,Most weeks,30,Female,NA,A levels,choice,78,3,For,Against
53,1659976461292,08/08/2022 16:34:21,1659976460473,1,08/08/2022 17:34:20,94826,3,task-net4,NA,23527700,6895805,NA,complete,NA,62f1393c1b6d62fa1dafe8c4,computer,Desktop or Laptop,Windows 10,Chrome 104.0.0.0,1366x768,1366x625,NA,ITT Ratings,2,for,8,NA,NA,NA,NA,NA,NA,ACCEPT,NA,NA,NA,batch8pro,batch8pro,23,51,1,Screen 1,continueButton,response_rating_scale_likert_active,6356.899999856949,NA,NA,Neither Agree nor Disagree,1,0,1,0,NA,NA,NA,NA,1,statements,It’s not developed enough yet,1,17/06/2021 12:56,17/06/2021 13:03,IP Address,For (I feel positively about the vaccines),Rarely,Rarely,36,Female,NA,GCSEs,control,74,2,For,Against
54,1659976464806,08/08/2022 16:34:24,1659976464107,1,08/08/2022 17:34:24,94826,3,task-net4,NA,23527700,6895805,NA,complete,NA,62f1393c1b6d62fa1dafe8c4,computer,Desktop or Laptop,Windows 10,Chrome 104.0.0.0,1366x768,1366x625,NA,ITT Ratings,2,for,8,NA,NA,NA,NA,NA,NA,ACCEPT,NA,NA,NA,batch8pro,batch8pro,16,52,1,Screen 1,continueButton,response_rating_scale_likert_active,3587.900000095367,NA,NA,Neither Agree nor Disagree,1,0,1,0,NA,NA,NA,NA,1,statements,It hasn't been tested enough.,1,17/06/2021 12:46,17/06/2021 13:03,IP Address,For (I feel positively about the vaccines),Rarely,Rarely,49,Other,"my SEX (protected characteristic, please see EA 2010) is female. I don't have a gender",A levels,choice,73,1,For,Against
55,1659976471745,08/08/2022 16:34:31,1659976470896,1,08/08/2022 17:34:30,94826,3,task-net4,NA,23527700,6895805,NA,complete,NA,62f1393c1b6d62fa1dafe8c4,computer,Desktop or Laptop,Windows 10,Chrome 104.0.0.0,1366x768,1366x625,NA,ITT Ratings,2,for,8,NA,NA,NA,NA,NA,NA,ACCEPT,NA,NA,NA,batch8pro,batch8pro,61,53,1,Screen 1,continueButton,response_rating_scale_likert_active,6699.100000143051,NA,NA,Somewhat Agree,1,0,1,0,NA,NA,NA,NA,1,statements,Vaccines reduce the spread of the virus to those that are vulnerable.,1,17/06/2021 12:58,17/06/2021 13:05,IP Address,For (I feel positively about the vaccines),Once or twice a year,A few times a year,21,Male,NA,A levels,control,80,1,For,For
56,1659976474225,08/08/2022 16:34:34,1659976473497,1,08/08/2022 17:34:33,94826,3,task-net4,NA,23527700,6895805,NA,complete,NA,62f1393c1b6d62fa1dafe8c4,computer,Desktop or Laptop,Windows 10,Chrome 104.0.0.0,1366x768,1366x625,NA,ITT Ratings,2,for,8,NA,NA,NA,NA,NA,NA,ACCEPT,NA,NA,NA,batch8pro,batch8pro,43,54,1,Screen 1,continueButton,response_rating_scale_likert_active,2542.800000190735,NA,NA,Somewhat Agree,1,0,1,0,NA,NA,NA,NA,1,statements,I want normal life to resume,1,17/06/2021 13:00,17/06/2021 13:04,IP Address,For (I feel positively about the vaccines),Most weeks,Most months,28,Female,NA,"Undergraduate degree (BSc, BA)",control,77,1,For,For
57,1659976478386,08/08/2022 16:34:38,1659976477695,1,08/08/2022 17:34:37,94826,3,task-net4,NA,23527700,6895805,NA,complete,NA,62f1393c1b6d62fa1dafe8c4,computer,Desktop or Laptop,Windows 10,Chrome 104.0.0.0,1366x768,1366x625,NA,ITT Ratings,2,for,8,NA,NA,NA,NA,NA,NA,ACCEPT,NA,NA,NA,batch8pro,batch8pro,56,55,1,Screen 1,continueButton,response_rating_scale_likert_active,4139.599999904633,NA,NA,Somewhat Agree,1,0,1,0,NA,NA,NA,NA,1,statements,I want to protect my loved ones and vulnerable people.,1,17/06/2021 12:51,17/06/2021 13:05,IP Address,For (I feel positively about the vaccines),Rarely,Most months,37,Female,NA,"Undergraduate degree (BSc, BA)",control,79,2,For,For
58,1659976482207,08/08/2022 16:34:42,1659976481505,1,08/08/2022 17:34:41,94826,3,task-net4,NA,23527700,6895805,NA,complete,NA,62f1393c1b6d62fa1dafe8c4,computer,Desktop or Laptop,Windows 10,Chrome 104.0.0.0,1366x768,1366x625,NA,ITT Ratings,2,for,8,NA,NA,NA,NA,NA,NA,ACCEPT,NA,NA,NA,batch8pro,batch8pro,41,56,1,Screen 1,continueButton,response_rating_scale_likert_active,3740.900000095367,NA,NA,Somewhat Disagree,1,0,1,0,NA,NA,NA,NA,1,statements,I do not think covid exists,1,17/06/2021 13:00,17/06/2021 13:04,IP Address,For (I feel positively about the vaccines),Most weeks,Most months,28,Female,NA,"Undergraduate degree (BSc, BA)",control,77,2,For,Against
59,1659976485287,08/08/2022 16:34:45,1659976484589,1,08/08/2022 17:34:44,94826,3,task-net4,NA,23527700,6895805,NA,complete,NA,62f1393c1b6d62fa1dafe8c4,computer,Desktop or Laptop,Windows 10,Chrome 104.0.0.0,1366x768,1366x625,NA,ITT Ratings,2,for,8,NA,NA,NA,NA,NA,NA,ACCEPT,NA,NA,NA,batch8pro,batch8pro,39,57,1,Screen 1,continueButton,response_rating_scale_likert_active,3021.7999999523163,NA,NA,Somewhat Agree,1,0,1,0,NA,NA,NA,NA,1,statements,To do my bit for the country,1,17/06/2021 12:57,17/06/2021 13:04,IP Address,For (I feel positively about the vaccines),Rarely,Most months,26,Male,NA,"Undergraduate degree (BSc, BA)",control,76,3,For,For
60,1659976489115,08/08/2022 16:34:49,1659976488420,1,08/08/2022 17:34:48,94826,3,task-net4,NA,23527700,6895805,NA,complete,NA,62f1393c1b6d62fa1dafe8c4,computer,Desktop or Laptop,Windows 10,Chrome 104.0.0.0,1366x768,1366x625,NA,ITT Ratings,2,for,8,NA,NA,NA,NA,NA,NA,ACCEPT,NA,NA,NA,batch8pro,batch8pro,46,58,1,Screen 1,continueButton,response_rating_scale_likert_active,3774.299999952316,NA,NA,Neither Agree nor Disagree,1,0,1,0,NA,NA,NA,NA,1,statements,It's not safe enough.,1,17/06/2021 12:57,17/06/2021 13:04,IP Address,For (I feel positively about the vaccines),Most weeks,Most weeks,30,Female,NA,A levels,choice,78,1,For,Against
61,1659976494631,08/08/2022 16:34:54,1659976493937,1,08/08/2022 17:34:53,94826,3,task-net4,NA,23527700,6895805,NA,complete,NA,62f1393c1b6d62fa1dafe8c4,computer,Desktop or Laptop,Windows 10,Chrome 104.0.0.0,1366x768,1366x625,NA,ITT Ratings,2,for,8,NA,NA,NA,NA,NA,NA,ACCEPT,NA,NA,NA,batch8pro,batch8pro,19,59,1,Screen 1,continueButton,response_rating_scale_likert_active,5462,NA,NA,Neither Agree nor Disagree,1,0,1,0,NA,NA,NA,NA,1,statements,"I work for the NHS, I know the vaccine is safe.",1,17/06/2021 12:46,17/06/2021 13:03,IP Address,For (I feel positively about the vaccines),Rarely,Rarely,49,Other,"my SEX (protected characteristic, please see EA 2010) is female. I don't have a gender",A levels,choice,73,1,For,For
62,1659976498781,08/08/2022 16:34:58,1659976498010,1,08/08/2022 17:34:58,94826,3,task-net4,NA,23527700,6895805,NA,complete,NA,62f1393c1b6d62fa1dafe8c4,computer,Desktop or Laptop,Windows 10,Chrome 104.0.0.0,1366x768,1366x625,NA,ITT Ratings,2,for,8,NA,NA,NA,NA,NA,NA,ACCEPT,NA,NA,NA,batch8pro,batch8pro,15,60,1,Screen 1,continueButton,response_rating_scale_likert_active,4013.400000095367,NA,NA,Somewhat Agree,1,0,1,0,NA,NA,NA,NA,1,statements,I just want life to get back to somewhat normal.,1,17/06/2021 12:51,17/06/2021 13:03,IP Address,For (I feel positively about the vaccines),A few times a year,Most weeks,29,Female,NA,"Undergraduate degree (BSc, BA)",control,72,3,For,For
63,1659976502423,08/08/2022 16:35:02,1659976501695,1,08/08/2022 17:35:01,94826,3,task-net4,NA,23527700,6895805,NA,complete,NA,62f1393c1b6d62fa1dafe8c4,computer,Desktop or Laptop,Windows 10,Chrome 104.0.0.0,1366x768,1366x625,NA,ITT Ratings,2,for,8,NA,NA,NA,NA,NA,NA,ACCEPT,NA,NA,NA,batch8pro,batch8pro,20,61,1,Screen 1,continueButton,response_rating_scale_likert_active,3634.900000095367,NA,NA,Neither Agree nor Disagree,1,0,1,0,NA,NA,NA,NA,1,statements,"I'm a carer, I want to protect my clients.",1,17/06/2021 12:46,17/06/2021 13:03,IP Address,For (I feel positively about the vaccines),Rarely,Rarely,49,Other,"my SEX (protected characteristic, please see EA 2010) is female. I don't have a gender",A levels,choice,73,2,For,For
64,1659976511542,08/08/2022 16:35:11,1659976510840,1,08/08/2022 17:35:10,94826,3,task-net4,NA,23527700,6895805,NA,complete,NA,62f1393c1b6d62fa1dafe8c4,computer,Desktop or Laptop,Windows 10,Chrome 104.0.0.0,1366x768,1366x625,NA,ITT Ratings,2,for,8,NA,NA,NA,NA,NA,NA,ACCEPT,NA,NA,NA,batch8pro,batch8pro,54,62,1,Screen 1,continueButton,response_rating_scale_likert_active,9099.300000190737,NA,NA,Somewhat Disagree,1,0,1,0,NA,NA,NA,NA,1,statements,Covid 19 is a conspiracy to make us go to a cashless society and a distraction while 5g was being rolled out.,1,17/06/2021 12:51,17/06/2021 13:05,IP Address,For (I feel positively about the vaccines),Rarely,Most months,37,Female,NA,"Undergraduate degree (BSc, BA)",control,79,3,For,Against
65,1659976511613,08/08/2022 16:35:11,1659976510872,1,08/08/2022 17:35:10,94826,3,task-net4,NA,23527700,6895805,NA,complete,NA,62f1393c1b6d62fa1dafe8c4,computer,Desktop or Laptop,Windows 10,Chrome 104.0.0.0,1366x768,1366x625,NA,ITT Ratings,2,for,8,NA,NA,NA,NA,NA,NA,ACCEPT,NA,NA,NA,batch8pro,NA,NA,END TASK,NA,NA,NA,NA,424983,NA,NA,NA,NA,0,1,0,NA,NA,NA,NA,NA,NA,NA,NA,NA,NA,NA,NA,NA,NA,NA,NA,NA,NA,NA,NA,NA,NA,NA
1,1659976115618,08/08/2022 16:28:35,1659976112865,1,08/08/2022 17:28:32,94826,3,task-net4,NA,23527714,6895824,NA,complete,NA,62f13995b78f32e505aa58b4,computer,Desktop or Laptop,Mac OS 10.15.7,Safari 15.5,1280x800,1280x636,NA,ITT Ratings,2,for,8,NA,NA,NA,NA,NA,NA,ACCEPT,NA,NA,NA,batch8pro,NA,NA,BEGIN TASK,NA,NA,NA,NA,NA,NA,NA,NA,NA,0,1,0,NA,NA,NA,NA,NA,NA,NA,NA,NA,NA,NA,NA,NA,NA,NA,NA,NA,NA,NA,NA,NA,NA,NA
2,1659976119128,08/08/2022 16:28:39,1659976116436,1,08/08/2022 17:28:36,94826,3,task-net4,NA,23527714,6895824,NA,complete,NA,62f13995b78f32e505aa58b4,computer,Desktop or Laptop,Mac OS 10.15.7,Safari 15.5,1280x800,1280x636,NA,ITT Ratings,2,for,8,NA,NA,NA,NA,NA,NA,ACCEPT,NA,NA,NA,batch8pro,batch8pro,1,1,1,Screen 1,advancementZone,continue_button,3532,NA,NA,NA,NA,0,1,0,NA,NA,NA,NA,NA,instructions,NA,NA,NA,NA,NA,NA,NA,NA,NA,NA,NA,NA,NA,NA,NA,NA,NA
3,1659976128771,08/08/2022 16:28:48,1659976126063,1,08/08/2022 17:28:46,94826,3,task-net4,NA,23527714,6895824,NA,complete,NA,62f13995b78f32e505aa58b4,computer,Desktop or Laptop,Mac OS 10.15.7,Safari 15.5,1280x800,1280x636,NA,ITT Ratings,2,for,8,NA,NA,NA,NA,NA,NA,ACCEPT,NA,NA,NA,batch8pro,batch8pro,23,1,1,Screen 1,continueButton,response_rating_scale_likert_active,9606,NA,NA,Somewhat Disagree,1,0,1,0,NA,NA,NA,NA,1,statements,It’s not developed enough yet,1,17/06/2021 12:56,17/06/2021 13:03,IP Address,For (I feel positively about the vaccines),Rarely,Rarely,36,Female,NA,GCSEs,control,74,2,For,Against
4,1659976133096,08/08/2022 16:28:53,1659976130384,1,08/08/2022 17:28:50,94826,3,task-net4,NA,23527714,6895824,NA,complete,NA,62f13995b78f32e505aa58b4,computer,Desktop or Laptop,Mac OS 10.15.7,Safari 15.5,1280x800,1280x636,NA,ITT Ratings,2,for,8,NA,NA,NA,NA,NA,NA,ACCEPT,NA,NA,NA,batch8pro,batch8pro,6,2,1,Screen 1,continueButton,response_rating_scale_likert_active,4307,NA,NA,Neither Agree nor Disagree,1,0,1,0,NA,NA,NA,NA,1,statements,I have a history of blood clots and are concerned about receiving the AstraZeneca/JJ vaccines as a result,1,17/06/2021 12:51,17/06/2021 13:02,IP Address,For (I feel positively about the vaccines),Most weeks,Most months,20,Male,NA,A levels,choice,71,3,For,Against
5,1659976135057,08/08/2022 16:28:55,1659976132361,1,08/08/2022 17:28:52,94826,3,task-net4,NA,23527714,6895824,NA,complete,NA,62f13995b78f32e505aa58b4,computer,Desktop or Laptop,Mac OS 10.15.7,Safari 15.5,1280x800,1280x636,NA,ITT Ratings,2,for,8,NA,NA,NA,NA,NA,NA,ACCEPT,NA,NA,NA,batch8pro,batch8pro,46,3,1,Screen 1,continueButton,response_rating_scale_likert_active,1963,NA,NA,Somewhat Disagree,1,0,1,0,NA,NA,NA,NA,1,statements,It's not safe enough.,1,17/06/2021 12:57,17/06/2021 13:04,IP Address,For (I feel positively about the vaccines),Most weeks,Most weeks,30,Female,NA,A levels,choice,78,1,For,Against
6,1659976138656,08/08/2022 16:28:58,1659976135922,1,08/08/2022 17:28:55,94826,3,task-net4,NA,23527714,6895824,NA,complete,NA,62f13995b78f32e505aa58b4,computer,Desktop or Laptop,Mac OS 10.15.7,Safari 15.5,1280x800,1280x636,NA,ITT Ratings,2,for,8,NA,NA,NA,NA,NA,NA,ACCEPT,NA,NA,NA,batch8pro,batch8pro,21,4,1,Screen 1,continueButton,response_rating_scale_likert_active,3545,NA,NA,Somewhat Agree,1,0,1,0,NA,NA,NA,NA,1,statements,"I'm clinically vulnerable, I would like to go out safely.",1,17/06/2021 12:46,17/06/2021 13:03,IP Address,For (I feel positively about the vaccines),Rarely,Rarely,49,Other,"my SEX (protected characteristic, please see EA 2010) is female. I don't have a gender",A levels,choice,73,3,For,For
7,1659976141438,08/08/2022 16:29:01,1659976138715,1,08/08/2022 17:28:58,94826,3,task-net4,NA,23527714,6895824,NA,complete,NA,62f13995b78f32e505aa58b4,computer,Desktop or Laptop,Mac OS 10.15.7,Safari 15.5,1280x800,1280x636,NA,ITT Ratings,2,for,8,NA,NA,NA,NA,NA,NA,ACCEPT,NA,NA,NA,batch8pro,batch8pro,61,5,1,Screen 1,continueButton,response_rating_scale_likert_active,2776,NA,NA,Strongly Agree,1,0,1,0,NA,NA,NA,NA,1,statements,Vaccines reduce the spread of the virus to those that are vulnerable.,1,17/06/2021 12:58,17/06/2021 13:05,IP Address,For (I feel positively about the vaccines),Once or twice a year,A few times a year,21,Male,NA,A levels,control,80,1,For,For
8,1659976142453,08/08/2022 16:29:02,1659976139758,1,08/08/2022 17:28:59,94826,3,task-net4,NA,23527714,6895824,NA,complete,NA,62f13995b78f32e505aa58b4,computer,Desktop or Laptop,Mac OS 10.15.7,Safari 15.5,1280x800,1280x636,NA,ITT Ratings,2,for,8,NA,NA,NA,NA,NA,NA,ACCEPT,NA,NA,NA,batch8pro,batch8pro,45,6,1,Screen 1,continueButton,response_rating_scale_likert_active,1029,NA,NA,Strongly Agree,1,0,1,0,NA,NA,NA,NA,1,statements,It's the right thing to do,1,17/06/2021 13:00,17/06/2021 13:04,IP Address,For (I feel positively about the vaccines),Most weeks,Most months,28,Female,NA,"Undergraduate degree (BSc, BA)",control,77,3,For,For
9,1659976145964,08/08/2022 16:29:05,1659976143276,1,08/08/2022 17:29:03,94826,3,task-net4,NA,23527714,6895824,NA,complete,NA,62f13995b78f32e505aa58b4,computer,Desktop or Laptop,Mac OS 10.15.7,Safari 15.5,1280x800,1280x636,NA,ITT Ratings,2,for,8,NA,NA,NA,NA,NA,NA,ACCEPT,NA,NA,NA,batch8pro,batch8pro,19,7,1,Screen 1,continueButton,response_rating_scale_likert_active,3503,NA,NA,Agree,1,0,1,0,NA,NA,NA,NA,1,statements,"I work for the NHS, I know the vaccine is safe.",1,17/06/2021 12:46,17/06/2021 13:03,IP Address,For (I feel positively about the vaccines),Rarely,Rarely,49,Other,"my SEX (protected characteristic, please see EA 2010) is female. I don't have a gender",A levels,choice,73,1,For,For
10,1659976147369,08/08/2022 16:29:07,1659976144656,1,08/08/2022 17:29:04,94826,3,task-net4,NA,23527714,6895824,NA,complete,NA,62f13995b78f32e505aa58b4,computer,Desktop or Laptop,Mac OS 10.15.7,Safari 15.5,1280x800,1280x636,NA,ITT Ratings,2,for,8,NA,NA,NA,NA,NA,NA,ACCEPT,NA,NA,NA,batch8pro,batch8pro,49,8,1,Screen 1,continueButton,response_rating_scale_likert_active,1364,NA,NA,Agree,1,0,1,0,NA,NA,NA,NA,1,statements,Get the world back to normal.,1,17/06/2021 12:57,17/06/2021 13:04,IP Address,For (I feel positively about the vaccines),Most weeks,Most weeks,30,Female,NA,A levels,choice,78,1,For,For
11,1659976149978,08/08/2022 16:29:09,1659976147266,1,08/08/2022 17:29:07,94826,3,task-net4,NA,23527714,6895824,NA,complete,NA,62f13995b78f32e505aa58b4,computer,Desktop or Laptop,Mac OS 10.15.7,Safari 15.5,1280x800,1280x636,NA,ITT Ratings,2,for,8,NA,NA,NA,NA,NA,NA,ACCEPT,NA,NA,NA,batch8pro,batch8pro,10,9,1,Screen 1,continueButton,response_rating_scale_likert_active,2595,NA,NA,Neither Agree nor Disagree,1,0,1,0,NA,NA,NA,NA,1,statements,There isn't enough research on the vaccine.,1,17/06/2021 12:51,17/06/2021 13:03,IP Address,For (I feel positively about the vaccines),A few times a year,Most weeks,29,Female,NA,"Undergraduate degree (BSc, BA)",control,72,1,For,Against
12,1659976151986,08/08/2022 16:29:11,1659976149243,1,08/08/2022 17:29:09,94826,3,task-net4,NA,23527714,6895824,NA,complete,NA,62f13995b78f32e505aa58b4,computer,Desktop or Laptop,Mac OS 10.15.7,Safari 15.5,1280x800,1280x636,NA,ITT Ratings,2,for,8,NA,NA,NA,NA,NA,NA,ACCEPT,NA,NA,NA,batch8pro,batch8pro,35,10,1,Screen 1,continueButton,response_rating_scale_likert_active,1966,NA,NA,Strongly Disagree,1,0,1,0,NA,NA,NA,NA,1,statements,I think its a social experiment of control,1,17/06/2021 12:57,17/06/2021 13:04,IP Address,For (I feel positively about the vaccines),Rarely,Most months,26,Male,NA,"Undergraduate degree (BSc, BA)",control,76,2,For,Against
13,1659976154185,08/08/2022 16:29:14,1659976151490,1,08/08/2022 17:29:11,94826,3,task-net4,NA,23527714,6895824,NA,complete,NA,62f13995b78f32e505aa58b4,computer,Desktop or Laptop,Mac OS 10.15.7,Safari 15.5,1280x800,1280x636,NA,ITT Ratings,2,for,8,NA,NA,NA,NA,NA,NA,ACCEPT,NA,NA,NA,batch8pro,batch8pro,17,11,1,Screen 1,continueButton,response_rating_scale_likert_active,2236,NA,NA,Disagree,1,0,1,0,NA,NA,NA,NA,1,statements,The side effects are too risky.,1,17/06/2021 12:46,17/06/2021 13:03,IP Address,For (I feel positively about the vaccines),Rarely,Rarely,49,Other,"my SEX (protected characteristic, please see EA 2010) is female. I don't have a gender",A levels,choice,73,2,For,Against
14,1659976156125,08/08/2022 16:29:16,1659976153407,1,08/08/2022 17:29:13,94826,3,task-net4,NA,23527714,6895824,NA,complete,NA,62f13995b78f32e505aa58b4,computer,Desktop or Laptop,Mac OS 10.15.7,Safari 15.5,1280x800,1280x636,NA,ITT Ratings,2,for,8,NA,NA,NA,NA,NA,NA,ACCEPT,NA,NA,NA,batch8pro,batch8pro,53,12,1,Screen 1,continueButton,response_rating_scale_likert_active,1903.0000000000073,NA,NA,Strongly Disagree,1,0,1,0,NA,NA,NA,NA,1,statements,Vaccines are a way for the government to control us.,1,17/06/2021 12:51,17/06/2021 13:05,IP Address,For (I feel positively about the vaccines),Rarely,Most months,37,Female,NA,"Undergraduate degree (BSc, BA)",control,79,2,For,Against
15,1659976160243,08/08/2022 16:29:20,1659976157556,1,08/08/2022 17:29:17,94826,3,task-net4,NA,23527714,6895824,NA,complete,NA,62f13995b78f32e505aa58b4,computer,Desktop or Laptop,Mac OS 10.15.7,Safari 15.5,1280x800,1280x636,NA,ITT Ratings,2,for,8,NA,NA,NA,NA,NA,NA,ACCEPT,NA,NA,NA,batch8pro,batch8pro,5,13,1,Screen 1,continueButton,response_rating_scale_likert_active,4135,NA,NA,Somewhat Disagree,1,0,1,0,NA,NA,NA,NA,1,statements,"I have concerns about the vaccine because I don't trust mainstream media sources, the government and/or major pharmaceutical companies",1,17/06/2021 12:51,17/06/2021 13:02,IP Address,For (I feel positively about the vaccines),Most weeks,Most months,20,Male,NA,A levels,choice,71,2,For,Against
16,1659976162172,08/08/2022 16:29:22,1659976159474,1,08/08/2022 17:29:19,94826,3,task-net4,NA,23527714,6895824,NA,complete,NA,62f13995b78f32e505aa58b4,computer,Desktop or Laptop,Mac OS 10.15.7,Safari 15.5,1280x800,1280x636,NA,ITT Ratings,2,for,8,NA,NA,NA,NA,NA,NA,ACCEPT,NA,NA,NA,batch8pro,batch8pro,34,14,1,Screen 1,continueButton,response_rating_scale_likert_active,1907,NA,NA,Disagree,1,0,1,0,NA,NA,NA,NA,1,statements,I don't trust whats in the vaccine,1,17/06/2021 12:57,17/06/2021 13:04,IP Address,For (I feel positively about the vaccines),Rarely,Most months,26,Male,NA,"Undergraduate degree (BSc, BA)",control,76,1,For,Against
17,1659976167468,08/08/2022 16:29:27,1659976164771,1,08/08/2022 17:29:24,94826,3,task-net4,NA,23527714,6895824,NA,complete,NA,62f13995b78f32e505aa58b4,computer,Desktop or Laptop,Mac OS 10.15.7,Safari 15.5,1280x800,1280x636,NA,ITT Ratings,2,for,8,NA,NA,NA,NA,NA,NA,ACCEPT,NA,NA,NA,batch8pro,batch8pro,63,15,1,Screen 1,continueButton,response_rating_scale_likert_active,5285,NA,NA,Agree,1,0,1,0,NA,NA,NA,NA,1,statements,"It will do no harm to have the vaccine, even if COVID will not affect you, it will allow you do normal things again.",1,17/06/2021 12:58,17/06/2021 13:05,IP Address,For (I feel positively about the vaccines),Once or twice a year,A few times a year,21,Male,NA,A levels,control,80,3,For,For
18,1659976168845,08/08/2022 16:29:28,1659976166005,1,08/08/2022 17:29:26,94826,3,task-net4,NA,23527714,6895824,NA,complete,NA,62f13995b78f32e505aa58b4,computer,Desktop or Laptop,Mac OS 10.15.7,Safari 15.5,1280x800,1280x636,NA,ITT Ratings,2,for,8,NA,NA,NA,NA,NA,NA,ACCEPT,NA,NA,NA,batch8pro,batch8pro,50,16,1,Screen 1,continueButton,response_rating_scale_likert_active,1218,NA,NA,Agree,1,0,1,0,NA,NA,NA,NA,1,statements,Keep myself safe.,1,17/06/2021 12:57,17/06/2021 13:04,IP Address,For (I feel positively about the vaccines),Most weeks,Most weeks,30,Female,NA,A levels,choice,78,2,For,For
19,1659976170592,08/08/2022 16:29:30,1659976167884,1,08/08/2022 17:29:27,94826,3,task-net4,NA,23527714,6895824,NA,complete,NA,62f13995b78f32e505aa58b4,computer,Desktop or Laptop,Mac OS 10.15.7,Safari 15.5,1280x800,1280x636,NA,ITT Ratings,2,for,8,NA,NA,NA,NA,NA,NA,ACCEPT,NA,NA,NA,batch8pro,batch8pro,11,17,1,Screen 1,continueButton,response_rating_scale_likert_active,1864,NA,NA,Agree,1,0,1,0,NA,NA,NA,NA,1,statements,"I'll trust my immune system, that's what it is there for.",1,17/06/2021 12:51,17/06/2021 13:03,IP Address,For (I feel positively about the vaccines),A few times a year,Most weeks,29,Female,NA,"Undergraduate degree (BSc, BA)",control,72,2,For,Against
20,1659976173516,08/08/2022 16:29:33,1659976170810,1,08/08/2022 17:29:30,94826,3,task-net4,NA,23527714,6895824,NA,complete,NA,62f13995b78f32e505aa58b4,computer,Desktop or Laptop,Mac OS 10.15.7,Safari 15.5,1280x800,1280x636,NA,ITT Ratings,2,for,8,NA,NA,NA,NA,NA,NA,ACCEPT,NA,NA,NA,batch8pro,batch8pro,60,18,1,Screen 1,continueButton,response_rating_scale_likert_active,2913,NA,NA,Disagree,1,0,1,0,NA,NA,NA,NA,1,statements,"COVID is no more deadly than flu and has a 99% survival rate. Therefore, we do not need to be vaccinated against it, we wouldn't do so with flu.",1,17/06/2021 12:58,17/06/2021 13:05,IP Address,For (I feel positively about the vaccines),Once or twice a year,A few times a year,21,Male,NA,A levels,control,80,3,For,Against
