Event.Index,UTC.Timestamp,UTC.Date,Local.Timestamp,Local.Timezone,Local.Date,Experiment.ID,Experiment.Version,Tree.Node.Key,Repeat.Key,Schedule.ID,Participant.Private.ID,Participant.Starting.Group,Participant.Status,Participant.Completion.Code,Participant.External.Session.ID,Participant.Device.Type,Participant.Device,Participant.OS,Participant.Browser,Participant.Monitor.Size,Participant.Viewport.Size,Checkpoint,Task.Name,Task.Version,branch.69an,randomiser.8vg2,quota.bqtt,quota.rycs,quota.wtfi,quota.usve,quota.zgic,quota.f3yz,quota.r9vy,quota.tfqq,quota.3dga,quota.dtj6,Spreadsheet,Spreadsheet.Name,Spreadsheet.Row,Trial.Number,Screen.Number,Screen.Name,Zone.Name,Zone.Type,Reaction.Time,Reaction.Onset,Response.Type,Response,Attempt,Correct,Incorrect,Dishonest,X.Coordinate,Y.Coordinate,Timed.Out,randomise_blocks,randomise_trials,display,Arguments,ShowProgressBar,StartDate,EndDate,Status,prolif_check,discuss_1,read_1,age,gender,gender_4_TEXT,edu,condition,ID,arg_ID,Position,Arg_Position
1,1659975401683,08/08/2022 16:16:41,1659975406929,1,08/08/2022 17:16:46,94826,3,task-lkrz,NA,23527420,6895718,NA,complete,NA,62f136b06586187809416a75,computer,Desktop or Laptop,Windows 10,Chrome 103.0.0.0,1280x720,1280x601,NA,ITT Ratings,2,for,2,ACCEPT,NA,NA,NA,NA,NA,NA,NA,NA,NA,batch2pro,NA,NA,BEGIN TASK,NA,NA,NA,NA,NA,NA,NA,NA,NA,0,1,0,NA,NA,NA,NA,NA,NA,NA,NA,NA,NA,NA,NA,NA,NA,NA,NA,NA,NA,NA,NA,NA,NA,NA
2,1659975404676,08/08/2022 16:16:44,1659975409919,1,08/08/2022 17:16:49,94826,3,task-lkrz,NA,23527420,6895718,NA,complete,NA,62f136b06586187809416a75,computer,Desktop or Laptop,Windows 10,Chrome 103.0.0.0,1280x720,1280x601,NA,ITT Ratings,2,for,2,ACCEPT,NA,NA,NA,NA,NA,NA,NA,NA,NA,batch2pro,batch2pro,1,1,1,Screen 1,advancementZone,continue_button,2907.7999997138977,NA,NA,NA,NA,0,1,0,NA,NA,NA,NA,NA,instructions,NA,NA,NA,NA,NA,NA,NA,NA,NA,NA,NA,NA,NA,NA,NA,NA,NA
3,1659975408058,08/08/2022 16:16:48,1659975413333,1,08/08/2022 17:16:53,94826,3,task-lkrz,NA,23527420,6895718,NA,complete,NA,62f136b06586187809416a75,computer,Desktop or Laptop,Windows 10,Chrome 103.0.0.0,1280x720,1280x601,NA,ITT Ratings,2,for,2,ACCEPT,NA,NA,NA,NA,NA,NA,NA,NA,NA,batch2pro,batch2pro,41,1,1,Screen 1,continueButton,response_rating_scale_likert_active,3320.900000095367,NA,NA,Strongly Disagree,1,0,1,0,NA,NA,NA,NA,1,statements,The government might impact a chip in me through the needle or change my dna,1,17/06/2021 12:32,17/06/2021 12:45,IP Address,For (I feel positively about the vaccines),A few times a year,A few times a year,20,Female,NA,A levels,choice,17,2,For,Against
4,1659975409657,08/08/2022 16:16:49,1659975414931,1,08/08/2022 17:16:54,94826,3,task-lkrz,NA,23527420,6895718,NA,complete,NA,62f136b06586187809416a75,computer,Desktop or Laptop,Windows 10,Chrome 103.0.0.0,1280x720,1280x601,NA,ITT Ratings,2,for,2,ACCEPT,NA,NA,NA,NA,NA,NA,NA,NA,NA,batch2pro,batch2pro,23,2,1,Screen 1,continueButton,response_rating_scale_likert_active,1547,NA,NA,Strongly Disagree,1,0,1,0,NA,NA,NA,NA,1,statements,Affects my fertility,1,17/06/2021 12:37,17/06/2021 12:45,IP Address,For (I feel positively about the vaccines),Most months,Most days,51,Female,NA,"Undergraduate degree (BSc, BA)",control,14,2,For,Against
5,1659975412746,08/08/2022 16:16:52,1659975417990,1,08/08/2022 17:16:57,94826,3,task-lkrz,NA,23527420,6895718,NA,complete,NA,62f136b06586187809416a75,computer,Desktop or Laptop,Windows 10,Chrome 103.0.0.0,1280x720,1280x601,NA,ITT Ratings,2,for,2,ACCEPT,NA,NA,NA,NA,NA,NA,NA,NA,NA,batch2pro,batch2pro,50,3,1,Screen 1,continueButton,response_rating_scale_likert_active,3016.400000095367,NA,NA,Strongly Agree,1,0,1,0,NA,NA,NA,NA,1,statements,"By getting the vaccine it means I'm contributing to achieving herd immunity, which keeps everyone safe",1,17/06/2021 12:39,17/06/2021 12:46,IP Address,For (I feel positively about the vaccines),A few times a year,Most weeks,22,Female,NA,"GCSEs,A levels,Undergraduate degree (BSc, BA)",choice,18,2,For,For
6,1659975415256,08/08/2022 16:16:55,1659975420519,1,08/08/2022 17:17:00,94826,3,task-lkrz,NA,23527420,6895718,NA,complete,NA,62f136b06586187809416a75,computer,Desktop or Laptop,Windows 10,Chrome 103.0.0.0,1280x720,1280x601,NA,ITT Ratings,2,for,2,ACCEPT,NA,NA,NA,NA,NA,NA,NA,NA,NA,batch2pro,batch2pro,4,4,1,Screen 1,continueButton,response_rating_scale_likert_active,2481,NA,NA,Disagree,1,0,1,0,NA,NA,NA,NA,1,statements,It was developed too quickly,1,17/06/2021 12:39,17/06/2021 12:44,IP Address,For (I feel positively about the vaccines),Most weeks,Once or twice a year,25,Female,NA,"Undergraduate degree (BSc, BA)",control,11,1,For,Against
7,1659975420473,08/08/2022 16:17:00,1659975425747,1,08/08/2022 17:17:05,94826,3,task-lkrz,NA,23527420,6895718,NA,complete,NA,62f136b06586187809416a75,computer,Desktop or Laptop,Windows 10,Chrome 103.0.0.0,1280x720,1280x601,NA,ITT Ratings,2,for,2,ACCEPT,NA,NA,NA,NA,NA,NA,NA,NA,NA,batch2pro,batch2pro,24,5,1,Screen 1,continueButton,response_rating_scale_likert_active,5175.800000190735,NA,NA,Somewhat Disagree,1,0,1,0,NA,NA,NA,NA,1,statements,It is painful and makes you feel unwell,1,17/06/2021 12:37,17/06/2021 12:45,IP Address,For (I feel positively about the vaccines),Most months,Most days,51,Female,NA,"Undergraduate degree (BSc, BA)",control,14,3,For,Against
8,1659975422867,08/08/2022 16:17:02,1659975428103,1,08/08/2022 17:17:08,94826,3,task-lkrz,NA,23527420,6895718,NA,complete,NA,62f136b06586187809416a75,computer,Desktop or Laptop,Windows 10,Chrome 103.0.0.0,1280x720,1280x601,NA,ITT Ratings,2,for,2,ACCEPT,NA,NA,NA,NA,NA,NA,NA,NA,NA,batch2pro,batch2pro,26,6,1,Screen 1,continueButton,response_rating_scale_likert_active,2287.099999904633,NA,NA,Strongly Agree,1,0,1,0,NA,NA,NA,NA,1,statements,It will help to keep others safe,1,17/06/2021 12:37,17/06/2021 12:45,IP Address,For (I feel positively about the vaccines),Most months,Most days,51,Female,NA,"Undergraduate degree (BSc, BA)",control,14,2,For,For
9,1659975424060,08/08/2022 16:17:04,1659975429337,1,08/08/2022 17:17:09,94826,3,task-lkrz,NA,23527420,6895718,NA,complete,NA,62f136b06586187809416a75,computer,Desktop or Laptop,Windows 10,Chrome 103.0.0.0,1280x720,1280x601,NA,ITT Ratings,2,for,2,ACCEPT,NA,NA,NA,NA,NA,NA,NA,NA,NA,batch2pro,batch2pro,32,7,1,Screen 1,continueButton,response_rating_scale_likert_active,1192.3000001907349,NA,NA,Strongly Agree,1,0,1,0,NA,NA,NA,NA,1,statements,Protect those around by reducing transmission,1,17/06/2021 12:39,17/06/2021 12:45,IP Address,For (I feel positively about the vaccines),Rarely,Rarely,35,Female,NA,"Undergraduate degree (BSc, BA)",choice,15,2,For,For
10,1659975430795,08/08/2022 16:17:10,1659975436044,1,08/08/2022 17:17:16,94826,3,task-lkrz,NA,23527420,6895718,NA,complete,NA,62f136b06586187809416a75,computer,Desktop or Laptop,Windows 10,Chrome 103.0.0.0,1280x720,1280x601,NA,ITT Ratings,2,for,2,ACCEPT,NA,NA,NA,NA,NA,NA,NA,NA,NA,batch2pro,batch2pro,21,8,1,Screen 1,continueButton,response_rating_scale_likert_active,6652.800000190735,NA,NA,Strongly Agree,1,0,1,0,NA,NA,NA,NA,1,statements,iv had all vaccines iv been offered previously so why is this different?,1,17/06/2021 12:37,17/06/2021 12:44,IP Address,For (I feel positively about the vaccines),Rarely,Rarely,33,Female,NA,A levels,choice,13,3,For,For
11,1659975431060,08/08/2022 16:17:11,1659975436334,1,08/08/2022 17:17:16,94826,3,task-lkrz,NA,23527420,6895718,NA,complete,NA,62f136b06586187809416a75,computer,Desktop or Laptop,Windows 10,Chrome 103.0.0.0,1280x720,1280x601,NA,ITT Ratings,2,for,2,ACCEPT,NA,NA,NA,NA,NA,NA,NA,NA,NA,batch2pro,batch2pro,36,9,1,Screen 1,continueButton,response_rating_scale_likert_active,49.5,NA,NA,Strongly Agree,1,0,1,0,NA,NA,NA,NA,1,statements,Am a very healthy person I don’t need this vaccine,1,17/06/2021 12:14,17/06/2021 12:45,IP Address,For (I feel positively about the vaccines),Rarely,Once or twice a year,48,Female,NA,GCSEs,choice,16,3,For,Against
12,1659975434461,08/08/2022 16:17:14,1659975439730,1,08/08/2022 17:17:19,94826,3,task-lkrz,NA,23527420,6895718,NA,complete,NA,62f136b06586187809416a75,computer,Desktop or Laptop,Windows 10,Chrome 103.0.0.0,1280x720,1280x601,NA,ITT Ratings,2,for,2,ACCEPT,NA,NA,NA,NA,NA,NA,NA,NA,NA,batch2pro,batch2pro,35,10,1,Screen 1,continueButton,response_rating_scale_likert_active,3370,NA,NA,Strongly Disagree,1,0,1,0,NA,NA,NA,NA,1,statements,Long time body problems that will effect me mantally and physically,1,17/06/2021 12:14,17/06/2021 12:45,IP Address,For (I feel positively about the vaccines),Rarely,Once or twice a year,48,Female,NA,GCSEs,choice,16,2,For,Against
13,1659975437247,08/08/2022 16:17:17,1659975442509,1,08/08/2022 17:17:22,94826,3,task-lkrz,NA,23527420,6895718,NA,complete,NA,62f136b06586187809416a75,computer,Desktop or Laptop,Windows 10,Chrome 103.0.0.0,1280x720,1280x601,NA,ITT Ratings,2,for,2,ACCEPT,NA,NA,NA,NA,NA,NA,NA,NA,NA,batch2pro,batch2pro,16,11,1,Screen 1,continueButton,response_rating_scale_likert_active,2728.300000190735,NA,NA,Disagree,1,0,1,0,NA,NA,NA,NA,1,statements,they havent had enough time to research it properly.,1,17/06/2021 12:37,17/06/2021 12:44,IP Address,For (I feel positively about the vaccines),Rarely,Rarely,33,Female,NA,A levels,choice,13,1,For,Against
14,1659975438579,08/08/2022 16:17:18,1659975443851,1,08/08/2022 17:17:23,94826,3,task-lkrz,NA,23527420,6895718,NA,complete,NA,62f136b06586187809416a75,computer,Desktop or Laptop,Windows 10,Chrome 103.0.0.0,1280x720,1280x601,NA,ITT Ratings,2,for,2,ACCEPT,NA,NA,NA,NA,NA,NA,NA,NA,NA,batch2pro,batch2pro,10,12,1,Screen 1,continueButton,response_rating_scale_likert_active,1301.3000001907349,NA,NA,Disagree,1,0,1,0,NA,NA,NA,NA,1,statements,I am worried about what is in it.,1,17/06/2021 12:36,17/06/2021 12:44,IP Address,For (I feel positively about the vaccines),Most months,Most months,24,Male,NA,"Undergraduate degree (BSc, BA)",control,12,1,For,Against
15,1659975440302,08/08/2022 16:17:20,1659975445578,1,08/08/2022 17:17:25,94826,3,task-lkrz,NA,23527420,6895718,NA,complete,NA,62f136b06586187809416a75,computer,Desktop or Laptop,Windows 10,Chrome 103.0.0.0,1280x720,1280x601,NA,ITT Ratings,2,for,2,ACCEPT,NA,NA,NA,NA,NA,NA,NA,NA,NA,batch2pro,batch2pro,8,13,1,Screen 1,continueButton,response_rating_scale_likert_active,1677.2999997138977,NA,NA,Strongly Agree,1,0,1,0,NA,NA,NA,NA,1,statements,Protection for close vulnerable family members,1,17/06/2021 12:39,17/06/2021 12:44,IP Address,For (I feel positively about the vaccines),Most weeks,Once or twice a year,25,Female,NA,"Undergraduate degree (BSc, BA)",control,11,2,For,For
16,1659975442408,08/08/2022 16:17:22,1659975447680,1,08/08/2022 17:17:27,94826,3,task-lkrz,NA,23527420,6895718,NA,complete,NA,62f136b06586187809416a75,computer,Desktop or Laptop,Windows 10,Chrome 103.0.0.0,1280x720,1280x601,NA,ITT Ratings,2,for,2,ACCEPT,NA,NA,NA,NA,NA,NA,NA,NA,NA,batch2pro,batch2pro,11,14,1,Screen 1,continueButton,response_rating_scale_likert_active,2051,NA,NA,Disagree,1,0,1,0,NA,NA,NA,NA,1,statements,They know people who have had bad side effects.,1,17/06/2021 12:36,17/06/2021 12:44,IP Address,For (I feel positively about the vaccines),Most months,Most months,24,Male,NA,"Undergraduate degree (BSc, BA)",control,12,2,For,Against
17,1659975444892,08/08/2022 16:17:24,1659975450150,1,08/08/2022 17:17:30,94826,3,task-lkrz,NA,23527420,6895718,NA,complete,NA,62f136b06586187809416a75,computer,Desktop or Laptop,Windows 10,Chrome 103.0.0.0,1280x720,1280x601,NA,ITT Ratings,2,for,2,ACCEPT,NA,NA,NA,NA,NA,NA,NA,NA,NA,batch2pro,batch2pro,49,15,1,Screen 1,continueButton,response_rating_scale_likert_active,2421.5,NA,NA,Strongly Agree,1,0,1,0,NA,NA,NA,NA,1,statements,"It will stop me from getting Covid-19. I do not want Covid-19 as it will make me sick, so this is obviously a good thing",1,17/06/2021 12:39,17/06/2021 12:46,IP Address,For (I feel positively about the vaccines),A few times a year,Most weeks,22,Female,NA,"GCSEs,A levels,Undergraduate degree (BSc, BA)",choice,18,1,For,For
18,1659975445768,08/08/2022 16:17:25,1659975451028,1,08/08/2022 17:17:31,94826,3,task-lkrz,NA,23527420,6895718,NA,complete,NA,62f136b06586187809416a75,computer,Desktop or Laptop,Windows 10,Chrome 103.0.0.0,1280x720,1280x601,NA,ITT Ratings,2,for,2,ACCEPT,NA,NA,NA,NA,NA,NA,NA,NA,NA,batch2pro,batch2pro,31,16,1,Screen 1,continueButton,response_rating_scale_likert_active,824.0999999046326,NA,NA,Strongly Agree,1,0,1,0,NA,NA,NA,NA,1,statements,Protect myself from Covid,1,17/06/2021 12:39,17/06/2021 12:45,IP Address,For (I feel positively about the vaccines),Rarely,Rarely,35,Female,NA,"Undergraduate degree (BSc, BA)",choice,15,1,For,For
19,1659975452387,08/08/2022 16:17:32,1659975457655,1,08/08/2022 17:17:37,94826,3,task-lkrz,NA,23527420,6895718,NA,complete,NA,62f136b06586187809416a75,computer,Desktop or Laptop,Windows 10,Chrome 103.0.0.0,1280x720,1280x601,NA,ITT Ratings,2,for,2,ACCEPT,NA,NA,NA,NA,NA,NA,NA,NA,NA,batch2pro,batch2pro,60,17,1,Screen 1,continueButton,response_rating_scale_likert_active,6581.799999713898,NA,NA,Agree,1,0,1,0,NA,NA,NA,NA,1,statements,I think some people are influenced against the vaccine by family or friends who believe the above reasons,1,17/06/2021 12:29,17/06/2021 12:46,IP Address,For (I feel positively about the vaccines),Never,A few times a year,57,Female,NA,"Undergraduate degree (BSc, BA)",choice,20,3,For,Against
20,1659975455767,08/08/2022 16:17:35,1659975461037,1,08/08/2022 17:17:41,94826,3,task-lkrz,NA,23527420,6895718,NA,complete,NA,62f136b06586187809416a75,computer,Desktop or Laptop,Windows 10,Chrome 103.0.0.0,1280x720,1280x601,NA,ITT Ratings,2,for,2,ACCEPT,NA,NA,NA,NA,NA,NA,NA,NA,NA,batch2pro,batch2pro,48,18,1,Screen 1,continueButton,response_rating_scale_likert_active,3336.599999904633,NA,NA,Strongly Disagree,1,0,1,0,NA,NA,NA,NA,1,statements,I'm getting microchipped by Big Pharma!,1,17/06/2021 12:39,17/06/2021 12:46,IP Address,For (I feel positively about the vaccines),A few times a year,Most weeks,22,Female,NA,"GCSEs,A levels,Undergraduate degree (BSc, BA)",choice,18,3,For,Against
21,1659975496469,08/08/2022 16:18:16,1659975501732,1,08/08/2022 17:18:21,94826,3,task-lkrz,NA,23527420,6895718,NA,complete,NA,62f136b06586187809416a75,computer,Desktop or Laptop,Windows 10,Chrome 103.0.0.0,1280x720,1280x601,NA,ITT Ratings,2,for,2,ACCEPT,NA,NA,NA,NA,NA,NA,NA,NA,NA,batch2pro,batch2pro,2,19,1,Screen 1,continueButton,response_rating_scale_likert_active,40654.09999990463,NA,NA,Somewhat Agree,1,0,1,0,NA,NA,NA,NA,1,statements,We would like to check you are reading each argument carefully. Please select 'Somewhat Agree' for this answer,1,NA,NA,NA,NA,NA,NA,NA,NA,NA,NA,NA,NA,check1,NA,NA
22,1659975499939,08/08/2022 16:18:19,1659975505203,1,08/08/2022 17:18:25,94826,3,task-lkrz,NA,23527420,6895718,NA,complete,NA,62f136b06586187809416a75,computer,Desktop or Laptop,Windows 10,Chrome 103.0.0.0,1280x720,1280x601,NA,ITT Ratings,2,for,2,ACCEPT,NA,NA,NA,NA,NA,NA,NA,NA,NA,batch2pro,batch2pro,30,20,1,Screen 1,continueButton,response_rating_scale_likert_active,3414.400000095367,NA,NA,Disagree,1,0,1,0,NA,NA,NA,NA,1,statements,Bad side effects mean they don't want to take it,1,17/06/2021 12:39,17/06/2021 12:45,IP Address,For (I feel positively about the vaccines),Rarely,Rarely,35,Female,NA,"Undergraduate degree (BSc, BA)",choice,15,3,For,Against
23,1659975501472,08/08/2022 16:18:21,1659975506751,1,08/08/2022 17:18:26,94826,3,task-lkrz,NA,23527420,6895718,NA,complete,NA,62f136b06586187809416a75,computer,Desktop or Laptop,Windows 10,Chrome 103.0.0.0,1280x720,1280x601,NA,ITT Ratings,2,for,2,ACCEPT,NA,NA,NA,NA,NA,NA,NA,NA,NA,batch2pro,batch2pro,28,21,1,Screen 1,continueButton,response_rating_scale_likert_active,1494.2000002861023,NA,NA,Strongly Disagree,1,0,1,0,NA,NA,NA,NA,1,statements,Not safe as it's been rushed,1,17/06/2021 12:39,17/06/2021 12:45,IP Address,For (I feel positively about the vaccines),Rarely,Rarely,35,Female,NA,"Undergraduate degree (BSc, BA)",choice,15,1,For,Against
24,1659975503306,08/08/2022 16:18:23,1659975508578,1,08/08/2022 17:18:28,94826,3,task-lkrz,NA,23527420,6895718,NA,complete,NA,62f136b06586187809416a75,computer,Desktop or Laptop,Windows 10,Chrome 103.0.0.0,1280x720,1280x601,NA,ITT Ratings,2,for,2,ACCEPT,NA,NA,NA,NA,NA,NA,NA,NA,NA,batch2pro,batch2pro,40,22,1,Screen 1,continueButton,response_rating_scale_likert_active,1810.0999999046328,NA,NA,Strongly Disagree,1,0,1,0,NA,NA,NA,NA,1,statements,Jesus protects me against all things and therefore I don't need a vaccine.,1,17/06/2021 12:32,17/06/2021 12:45,IP Address,For (I feel positively about the vaccines),A few times a year,A few times a year,20,Female,NA,A levels,choice,17,1,For,Against
25,1659975506648,08/08/2022 16:18:26,1659975511902,1,08/08/2022 17:18:31,94826,3,task-lkrz,NA,23527420,6895718,NA,complete,NA,62f136b06586187809416a75,computer,Desktop or Laptop,Windows 10,Chrome 103.0.0.0,1280x720,1280x601,NA,ITT Ratings,2,for,2,ACCEPT,NA,NA,NA,NA,NA,NA,NA,NA,NA,batch2pro,batch2pro,15,23,1,Screen 1,continueButton,response_rating_scale_likert_active,3277.599999904633,NA,NA,Agree,1,0,1,0,NA,NA,NA,NA,1,statements,They regularly come into contact with someone who is at high risk.,1,17/06/2021 12:36,17/06/2021 12:44,IP Address,For (I feel positively about the vaccines),Most months,Most months,24,Male,NA,"Undergraduate degree (BSc, BA)",control,12,3,For,For
26,1659975508734,08/08/2022 16:18:28,1659975514006,1,08/08/2022 17:18:34,94826,3,task-lkrz,NA,23527420,6895718,NA,complete,NA,62f136b06586187809416a75,computer,Desktop or Laptop,Windows 10,Chrome 103.0.0.0,1280x720,1280x601,NA,ITT Ratings,2,for,2,ACCEPT,NA,NA,NA,NA,NA,NA,NA,NA,NA,batch2pro,batch2pro,27,24,1,Screen 1,continueButton,response_rating_scale_likert_active,2057.2000002861023,NA,NA,Strongly Agree,1,0,1,0,NA,NA,NA,NA,1,statements,We will be able to come out of lock down,1,17/06/2021 12:37,17/06/2021 12:45,IP Address,For (I feel positively about the vaccines),Most months,Most days,51,Female,NA,"Undergraduate degree (BSc, BA)",control,14,3,For,For
27,1659975514946,08/08/2022 16:18:34,1659975520212,1,08/08/2022 17:18:40,94826,3,task-lkrz,NA,23527420,6895718,NA,complete,NA,62f136b06586187809416a75,computer,Desktop or Laptop,Windows 10,Chrome 103.0.0.0,1280x720,1280x601,NA,ITT Ratings,2,for,2,ACCEPT,NA,NA,NA,NA,NA,NA,NA,NA,NA,batch2pro,batch2pro,59,25,1,Screen 1,continueButton,response_rating_scale_likert_active,6158.400000095367,NA,NA,Strongly Disagree,1,0,1,0,NA,NA,NA,NA,1,statements,I have heard that some people believe the vaccine contains a microchip,1,17/06/2021 12:29,17/06/2021 12:46,IP Address,For (I feel positively about the vaccines),Never,A few times a year,57,Female,NA,"Undergraduate degree (BSc, BA)",choice,20,2,For,Against
28,1659975516359,08/08/2022 16:18:36,1659975521613,1,08/08/2022 17:18:41,94826,3,task-lkrz,NA,23527420,6895718,NA,complete,NA,62f136b06586187809416a75,computer,Desktop or Laptop,Windows 10,Chrome 103.0.0.0,1280x720,1280x601,NA,ITT Ratings,2,for,2,ACCEPT,NA,NA,NA,NA,NA,NA,NA,NA,NA,batch2pro,batch2pro,25,26,1,Screen 1,continueButton,response_rating_scale_likert_active,1353.8000001907349,NA,NA,Strongly Agree,1,0,1,0,NA,NA,NA,NA,1,statements,It will help to keep you safe,1,17/06/2021 12:37,17/06/2021 12:45,IP Address,For (I feel positively about the vaccines),Most months,Most days,51,Female,NA,"Undergraduate degree (BSc, BA)",control,14,1,For,For
29,1659975517148,08/08/2022 16:18:37,1659975522411,1,08/08/2022 17:18:42,94826,3,task-lkrz,NA,23527420,6895718,NA,complete,NA,62f136b06586187809416a75,computer,Desktop or Laptop,Windows 10,Chrome 103.0.0.0,1280x720,1280x601,NA,ITT Ratings,2,for,2,ACCEPT,NA,NA,NA,NA,NA,NA,NA,NA,NA,batch2pro,batch2pro,55,27,1,Screen 1,continueButton,response_rating_scale_likert_active,758.1999998092651,NA,NA,Strongly Agree,1,0,1,0,NA,NA,NA,NA,1,statements,It helps protect you against the virus,1,17/06/2021 12:31,17/06/2021 12:46,IP Address,For (I feel positively about the vaccines),A few times a year,Most months,21,Female,NA,A levels,choice,19,1,For,For
30,1659975520386,08/08/2022 16:18:40,1659975525655,1,08/08/2022 17:18:45,94826,3,task-lkrz,NA,23527420,6895718,NA,complete,NA,62f136b06586187809416a75,computer,Desktop or Laptop,Windows 10,Chrome 103.0.0.0,1280x720,1280x601,NA,ITT Ratings,2,for,2,ACCEPT,NA,NA,NA,NA,NA,NA,NA,NA,NA,batch2pro,batch2pro,5,28,1,Screen 1,continueButton,response_rating_scale_likert_active,3195.099999904633,NA,NA,Somewhat Disagree,1,0,1,0,NA,NA,NA,NA,1,statements,It's a money making scheme,1,17/06/2021 12:39,17/06/2021 12:44,IP Address,For (I feel positively about the vaccines),Most weeks,Once or twice a year,25,Female,NA,"Undergraduate degree (BSc, BA)",control,11,2,For,Against
31,1659975522281,08/08/2022 16:18:42,1659975527558,1,08/08/2022 17:18:47,94826,3,task-lkrz,NA,23527420,6895718,NA,complete,NA,62f136b06586187809416a75,computer,Desktop or Laptop,Windows 10,Chrome 103.0.0.0,1280x720,1280x601,NA,ITT Ratings,2,for,2,ACCEPT,NA,NA,NA,NA,NA,NA,NA,NA,NA,batch2pro,batch2pro,54,29,1,Screen 1,continueButton,response_rating_scale_likert_active,1859.5999999046328,NA,NA,Disagree,1,0,1,0,NA,NA,NA,NA,1,statements,It has been developed too fast to be effective and safe.,1,17/06/2021 12:31,17/06/2021 12:46,IP Address,For (I feel positively about the vaccines),A few times a year,Most months,21,Female,NA,A levels,choice,19,3,For,Against
32,1659975523875,08/08/2022 16:18:43,1659975529136,1,08/08/2022 17:18:49,94826,3,task-lkrz,NA,23527420,6895718,NA,complete,NA,62f136b06586187809416a75,computer,Desktop or Laptop,Windows 10,Chrome 103.0.0.0,1280x720,1280x601,NA,ITT Ratings,2,for,2,ACCEPT,NA,NA,NA,NA,NA,NA,NA,NA,NA,batch2pro,batch2pro,19,30,1,Screen 1,continueButton,response_rating_scale_likert_active,1531.8000001907349,NA,NA,Strongly Agree,1,0,1,0,NA,NA,NA,NA,1,statements,i dont want too die from covid 19,1,17/06/2021 12:37,17/06/2021 12:44,IP Address,For (I feel positively about the vaccines),Rarely,Rarely,33,Female,NA,A levels,choice,13,1,For,For
33,1659975526341,08/08/2022 16:18:46,1659975531609,1,08/08/2022 17:18:51,94826,3,task-lkrz,NA,23527420,6895718,NA,complete,NA,62f136b06586187809416a75,computer,Desktop or Laptop,Windows 10,Chrome 103.0.0.0,1280x720,1280x601,NA,ITT Ratings,2,for,2,ACCEPT,NA,NA,NA,NA,NA,NA,NA,NA,NA,batch2pro,batch2pro,17,31,1,Screen 1,continueButton,response_rating_scale_likert_active,2456.2000002861023,NA,NA,Disagree,1,0,1,0,NA,NA,NA,NA,1,statements,who knows what the long term effects will be from the vaccine.,1,17/06/2021 12:37,17/06/2021 12:44,IP Address,For (I feel positively about the vaccines),Rarely,Rarely,33,Female,NA,A levels,choice,13,2,For,Against
34,1659975527919,08/08/2022 16:18:47,1659975533175,1,08/08/2022 17:18:53,94826,3,task-lkrz,NA,23527420,6895718,NA,complete,NA,62f136b06586187809416a75,computer,Desktop or Laptop,Windows 10,Chrome 103.0.0.0,1280x720,1280x601,NA,ITT Ratings,2,for,2,ACCEPT,NA,NA,NA,NA,NA,NA,NA,NA,NA,batch2pro,batch2pro,61,32,1,Screen 1,continueButton,response_rating_scale_likert_active,1521.4000000953674,NA,NA,Strongly Agree,1,0,1,0,NA,NA,NA,NA,1,statements,Feel safer to go out with friends or to shops if vaccinated,1,17/06/2021 12:29,17/06/2021 12:46,IP Address,For (I feel positively about the vaccines),Never,A few times a year,57,Female,NA,"Undergraduate degree (BSc, BA)",choice,20,1,For,For
35,1659975529701,08/08/2022 16:18:49,1659975534970,1,08/08/2022 17:18:54,94826,3,task-lkrz,NA,23527420,6895718,NA,complete,NA,62f136b06586187809416a75,computer,Desktop or Laptop,Windows 10,Chrome 103.0.0.0,1280x720,1280x601,NA,ITT Ratings,2,for,2,ACCEPT,NA,NA,NA,NA,NA,NA,NA,NA,NA,batch2pro,batch2pro,38,33,1,Screen 1,continueButton,response_rating_scale_likert_active,1749.5,NA,NA,Strongly Agree,1,0,1,0,NA,NA,NA,NA,1,statements,When you go outside shopping for food or just chatting someone  you are protected,1,17/06/2021 12:14,17/06/2021 12:45,IP Address,For (I feel positively about the vaccines),Rarely,Once or twice a year,48,Female,NA,GCSEs,choice,16,2,For,For
36,1659975530601,08/08/2022 16:18:50,1659975535875,1,08/08/2022 17:18:55,94826,3,task-lkrz,NA,23527420,6895718,NA,complete,NA,62f136b06586187809416a75,computer,Desktop or Laptop,Windows 10,Chrome 103.0.0.0,1280x720,1280x601,NA,ITT Ratings,2,for,2,ACCEPT,NA,NA,NA,NA,NA,NA,NA,NA,NA,batch2pro,batch2pro,44,34,1,Screen 1,continueButton,response_rating_scale_likert_active,859.3000001907349,NA,NA,Strongly Agree,1,0,1,0,NA,NA,NA,NA,1,statements,Protecting myself.,1,17/06/2021 12:32,17/06/2021 12:45,IP Address,For (I feel positively about the vaccines),A few times a year,A few times a year,20,Female,NA,A levels,choice,17,2,For,For
37,1659975533056,08/08/2022 16:18:53,1659975538311,1,08/08/2022 17:18:58,94826,3,task-lkrz,NA,23527420,6895718,NA,complete,NA,62f136b06586187809416a75,computer,Desktop or Laptop,Windows 10,Chrome 103.0.0.0,1280x720,1280x601,NA,ITT Ratings,2,for,2,ACCEPT,NA,NA,NA,NA,NA,NA,NA,NA,NA,batch2pro,batch2pro,22,35,1,Screen 1,continueButton,response_rating_scale_likert_active,2388.800000190735,NA,NA,Disagree,1,0,1,0,NA,NA,NA,NA,1,statements,"It is not safe, and been tested properly 
",1,17/06/2021 12:37,17/06/2021 12:45,IP Address,For (I feel positively about the vaccines),Most months,Most days,51,Female,NA,"Undergraduate degree (BSc, BA)",control,14,1,For,Against
38,1659975534626,08/08/2022 16:18:54,1659975539898,1,08/08/2022 17:18:59,94826,3,task-lkrz,NA,23527420,6895718,NA,complete,NA,62f136b06586187809416a75,computer,Desktop or Laptop,Windows 10,Chrome 103.0.0.0,1280x720,1280x601,NA,ITT Ratings,2,for,2,ACCEPT,NA,NA,NA,NA,NA,NA,NA,NA,NA,batch2pro,batch2pro,14,36,1,Screen 1,continueButton,response_rating_scale_likert_active,1535.2000002861023,NA,NA,Strongly Agree,1,0,1,0,NA,NA,NA,NA,1,statements,They want to be able to travel.,1,17/06/2021 12:36,17/06/2021 12:44,IP Address,For (I feel positively about the vaccines),Most months,Most months,24,Male,NA,"Undergraduate degree (BSc, BA)",control,12,2,For,For
39,1659975536316,08/08/2022 16:18:56,1659975541577,1,08/08/2022 17:19:01,94826,3,task-lkrz,NA,23527420,6895718,NA,complete,NA,62f136b06586187809416a75,computer,Desktop or Laptop,Windows 10,Chrome 103.0.0.0,1280x720,1280x601,NA,ITT Ratings,2,for,2,ACCEPT,NA,NA,NA,NA,NA,NA,NA,NA,NA,batch2pro,batch2pro,9,37,1,Screen 1,continueButton,response_rating_scale_likert_active,1631.9000000953674,NA,NA,Strongly Agree,1,0,1,0,NA,NA,NA,NA,1,statements,Personal protection,1,17/06/2021 12:39,17/06/2021 12:44,IP Address,For (I feel positively about the vaccines),Most weeks,Once or twice a year,25,Female,NA,"Undergraduate degree (BSc, BA)",control,11,3,For,For
40,1659975620305,08/08/2022 16:20:20,1659975625560,1,08/08/2022 17:20:25,94826,3,task-lkrz,NA,23527420,6895718,NA,complete,NA,62f136b06586187809416a75,computer,Desktop or Laptop,Windows 10,Chrome 103.0.0.0,1280x720,1280x601,NA,ITT Ratings,2,for,2,ACCEPT,NA,NA,NA,NA,NA,NA,NA,NA,NA,batch2pro,batch2pro,7,38,1,Screen 1,continueButton,response_rating_scale_likert_active,83938.5,NA,NA,Strongly Agree,1,0,1,0,NA,NA,NA,NA,1,statements,Quicker lift of restrictions,1,17/06/2021 12:39,17/06/2021 12:44,IP Address,For (I feel positively about the vaccines),Most weeks,Once or twice a year,25,Female,NA,"Undergraduate degree (BSc, BA)",control,11,1,For,For
41,1659975621995,08/08/2022 16:20:21,1659975627239,1,08/08/2022 17:20:27,94826,3,task-lkrz,NA,23527420,6895718,NA,complete,NA,62f136b06586187809416a75,computer,Desktop or Laptop,Windows 10,Chrome 103.0.0.0,1280x720,1280x601,NA,ITT Ratings,2,for,2,ACCEPT,NA,NA,NA,NA,NA,NA,NA,NA,NA,batch2pro,batch2pro,52,39,1,Screen 1,continueButton,response_rating_scale_likert_active,1622.3000001907349,NA,NA,Disagree,1,0,1,0,NA,NA,NA,NA,1,statements,We have no information about long term side effects,1,17/06/2021 12:31,17/06/2021 12:46,IP Address,For (I feel positively about the vaccines),A few times a year,Most months,21,Female,NA,A levels,choice,19,1,For,Against
42,1659975624312,08/08/2022 16:20:24,1659975629557,1,08/08/2022 17:20:29,94826,3,task-lkrz,NA,23527420,6895718,NA,complete,NA,62f136b06586187809416a75,computer,Desktop or Laptop,Windows 10,Chrome 103.0.0.0,1280x720,1280x601,NA,ITT Ratings,2,for,2,ACCEPT,NA,NA,NA,NA,NA,NA,NA,NA,NA,batch2pro,batch2pro,12,40,1,Screen 1,continueButton,response_rating_scale_likert_active,2267.900000095367,NA,NA,Disagree,1,0,1,0,NA,NA,NA,NA,1,statements,They don't trust the companies that make it.,1,17/06/2021 12:36,17/06/2021 12:44,IP Address,For (I feel positively about the vaccines),Most months,Most months,24,Male,NA,"Undergraduate degree (BSc, BA)",control,12,3,For,Against
43,1659975626252,08/08/2022 16:20:26,1659975631504,1,08/08/2022 17:20:31,94826,3,task-lkrz,NA,23527420,6895718,NA,complete,NA,62f136b06586187809416a75,computer,Desktop or Laptop,Windows 10,Chrome 103.0.0.0,1280x720,1280x601,NA,ITT Ratings,2,for,2,ACCEPT,NA,NA,NA,NA,NA,NA,NA,NA,NA,batch2pro,batch2pro,47,41,1,Screen 1,continueButton,response_rating_scale_likert_active,1897.4000000953672,NA,NA,Disagree,1,0,1,0,NA,NA,NA,NA,1,statements,Worried about the side effects,1,17/06/2021 12:39,17/06/2021 12:46,IP Address,For (I feel positively about the vaccines),A few times a year,Most weeks,22,Female,NA,"GCSEs,A levels,Undergraduate degree (BSc, BA)",choice,18,2,For,Against
44,1659975627863,08/08/2022 16:20:27,1659975633120,1,08/08/2022 17:20:33,94826,3,task-lkrz,NA,23527420,6895718,NA,complete,NA,62f136b06586187809416a75,computer,Desktop or Laptop,Windows 10,Chrome 103.0.0.0,1280x720,1280x601,NA,ITT Ratings,2,for,2,ACCEPT,NA,NA,NA,NA,NA,NA,NA,NA,NA,batch2pro,batch2pro,42,42,1,Screen 1,continueButton,response_rating_scale_likert_active,1559.0999999046326,NA,NA,Disagree,1,0,1,0,NA,NA,NA,NA,1,statements,"The vaccine had been developed too quickly, theres not been enough testing.",1,17/06/2021 12:32,17/06/2021 12:45,IP Address,For (I feel positively about the vaccines),A few times a year,A few times a year,20,Female,NA,A levels,choice,17,3,For,Against
45,1659975629145,08/08/2022 16:20:29,1659975634407,1,08/08/2022 17:20:34,94826,3,task-lkrz,NA,23527420,6895718,NA,complete,NA,62f136b06586187809416a75,computer,Desktop or Laptop,Windows 10,Chrome 103.0.0.0,1280x720,1280x601,NA,ITT Ratings,2,for,2,ACCEPT,NA,NA,NA,NA,NA,NA,NA,NA,NA,batch2pro,batch2pro,53,43,1,Screen 1,continueButton,response_rating_scale_likert_active,1253.5999999046326,NA,NA,Disagree,1,0,1,0,NA,NA,NA,NA,1,statements,It is not 100% effective,1,17/06/2021 12:31,17/06/2021 12:46,IP Address,For (I feel positively about the vaccines),A few times a year,Most months,21,Female,NA,A levels,choice,19,2,For,Against
46,1659975629310,08/08/2022 16:20:29,1659975634563,1,08/08/2022 17:20:34,94826,3,task-lkrz,NA,23527420,6895718,NA,complete,NA,62f136b06586187809416a75,computer,Desktop or Laptop,Windows 10,Chrome 103.0.0.0,1280x720,1280x601,NA,ITT Ratings,2,for,2,ACCEPT,NA,NA,NA,NA,NA,NA,NA,NA,NA,batch2pro,batch2pro,43,44,1,Screen 1,continueButton,response_rating_scale_likert_active,110.69999980926514,NA,NA,Disagree,1,0,1,0,NA,NA,NA,NA,1,statements,Protecting those who are vulnerable around me.,1,17/06/2021 12:32,17/06/2021 12:45,IP Address,For (I feel positively about the vaccines),A few times a year,A few times a year,20,Female,NA,A levels,choice,17,1,For,For
47,1659975630605,08/08/2022 16:20:30,1659975635866,1,08/08/2022 17:20:35,94826,3,task-lkrz,NA,23527420,6895718,NA,complete,NA,62f136b06586187809416a75,computer,Desktop or Laptop,Windows 10,Chrome 103.0.0.0,1280x720,1280x601,NA,ITT Ratings,2,for,2,ACCEPT,NA,NA,NA,NA,NA,NA,NA,NA,NA,batch2pro,batch2pro,13,45,1,Screen 1,continueButton,response_rating_scale_likert_active,1258.8000001907349,NA,NA,Strongly Agree,1,0,1,0,NA,NA,NA,NA,1,statements,I am at high risk.,1,17/06/2021 12:36,17/06/2021 12:44,IP Address,For (I feel positively about the vaccines),Most months,Most months,24,Male,NA,"Undergraduate degree (BSc, BA)",control,12,1,For,For
48,1659975632906,08/08/2022 16:20:32,1659975638162,1,08/08/2022 17:20:38,94826,3,task-lkrz,NA,23527420,6895718,NA,complete,NA,62f136b06586187809416a75,computer,Desktop or Laptop,Windows 10,Chrome 103.0.0.0,1280x720,1280x601,NA,ITT Ratings,2,for,2,ACCEPT,NA,NA,NA,NA,NA,NA,NA,NA,NA,batch2pro,batch2pro,51,46,1,Screen 1,continueButton,response_rating_scale_likert_active,2249.2000002861023,NA,NA,Strongly Agree,1,0,1,0,NA,NA,NA,NA,1,statements,I want to safely see my family and friends again,1,17/06/2021 12:39,17/06/2021 12:46,IP Address,For (I feel positively about the vaccines),A few times a year,Most weeks,22,Female,NA,"GCSEs,A levels,Undergraduate degree (BSc, BA)",choice,18,3,For,For
49,1659975634504,08/08/2022 16:20:34,1659975639763,1,08/08/2022 17:20:39,94826,3,task-lkrz,NA,23527420,6895718,NA,complete,NA,62f136b06586187809416a75,computer,Desktop or Laptop,Windows 10,Chrome 103.0.0.0,1280x720,1280x601,NA,ITT Ratings,2,for,2,ACCEPT,NA,NA,NA,NA,NA,NA,NA,NA,NA,batch2pro,batch2pro,34,47,1,Screen 1,continueButton,response_rating_scale_likert_active,1554.4000000953674,NA,NA,Disagree,1,0,1,0,NA,NA,NA,NA,1,statements,Side effects that will make me ill badly,1,17/06/2021 12:14,17/06/2021 12:45,IP Address,For (I feel positively about the vaccines),Rarely,Once or twice a year,48,Female,NA,GCSEs,choice,16,1,For,Against
50,1659975638229,08/08/2022 16:20:38,1659975643496,1,08/08/2022 17:20:43,94826,3,task-lkrz,NA,23527420,6895718,NA,complete,NA,62f136b06586187809416a75,computer,Desktop or Laptop,Windows 10,Chrome 103.0.0.0,1280x720,1280x601,NA,ITT Ratings,2,for,2,ACCEPT,NA,NA,NA,NA,NA,NA,NA,NA,NA,batch2pro,batch2pro,20,48,1,Screen 1,continueButton,response_rating_scale_likert_active,3687.300000190735,NA,NA,Strongly Agree,1,0,1,0,NA,NA,NA,NA,1,statements,i want to protect the vulnerable people and people who cant have it,1,17/06/2021 12:37,17/06/2021 12:44,IP Address,For (I feel positively about the vaccines),Rarely,Rarely,33,Female,NA,A levels,choice,13,2,For,For
51,1659975639522,08/08/2022 16:20:39,1659975644777,1,08/08/2022 17:20:44,94826,3,task-lkrz,NA,23527420,6895718,NA,complete,NA,62f136b06586187809416a75,computer,Desktop or Laptop,Windows 10,Chrome 103.0.0.0,1280x720,1280x601,NA,ITT Ratings,2,for,2,ACCEPT,NA,NA,NA,NA,NA,NA,NA,NA,NA,batch2pro,batch2pro,37,49,1,Screen 1,continueButton,response_rating_scale_likert_active,1262.4000000953674,NA,NA,Strongly Agree,1,0,1,0,NA,NA,NA,NA,1,statements,It will protect you and your family,1,17/06/2021 12:14,17/06/2021 12:45,IP Address,For (I feel positively about the vaccines),Rarely,Once or twice a year,48,Female,NA,GCSEs,choice,16,1,For,For
52,1659975640601,08/08/2022 16:20:40,1659975645872,1,08/08/2022 17:20:45,94826,3,task-lkrz,NA,23527420,6895718,NA,complete,NA,62f136b06586187809416a75,computer,Desktop or Laptop,Windows 10,Chrome 103.0.0.0,1280x720,1280x601,NA,ITT Ratings,2,for,2,ACCEPT,NA,NA,NA,NA,NA,NA,NA,NA,NA,batch2pro,batch2pro,63,50,1,Screen 1,continueButton,response_rating_scale_likert_active,1045.9000000953674,NA,NA,Strongly Agree,1,0,1,0,NA,NA,NA,NA,1,statements,The more people who receive the vaccine the sooner we can get back to normal,1,17/06/2021 12:29,17/06/2021 12:46,IP Address,For (I feel positively about the vaccines),Never,A few times a year,57,Female,NA,"Undergraduate degree (BSc, BA)",choice,20,3,For,For
53,1659975641415,08/08/2022 16:20:41,1659975646678,1,08/08/2022 17:20:46,94826,3,task-lkrz,NA,23527420,6895718,NA,complete,NA,62f136b06586187809416a75,computer,Desktop or Laptop,Windows 10,Chrome 103.0.0.0,1280x720,1280x601,NA,ITT Ratings,2,for,2,ACCEPT,NA,NA,NA,NA,NA,NA,NA,NA,NA,batch2pro,batch2pro,33,51,1,Screen 1,continueButton,response_rating_scale_likert_active,790.5999999046326,NA,NA,Strongly Agree,1,0,1,0,NA,NA,NA,NA,1,statements,Get back to life without restrictions faster,1,17/06/2021 12:39,17/06/2021 12:45,IP Address,For (I feel positively about the vaccines),Rarely,Rarely,35,Female,NA,"Undergraduate degree (BSc, BA)",choice,15,3,For,For
54,1659975645772,08/08/2022 16:20:45,1659975651050,1,08/08/2022 17:20:51,94826,3,task-lkrz,NA,23527420,6895718,NA,complete,NA,62f136b06586187809416a75,computer,Desktop or Laptop,Windows 10,Chrome 103.0.0.0,1280x720,1280x601,NA,ITT Ratings,2,for,2,ACCEPT,NA,NA,NA,NA,NA,NA,NA,NA,NA,batch2pro,batch2pro,6,52,1,Screen 1,continueButton,response_rating_scale_likert_active,4318.900000095367,NA,NA,Strongly Disagree,1,0,1,0,NA,NA,NA,NA,1,statements,They've never had the flu jab and have never been badly affected by flu so don’t see the point,1,17/06/2021 12:39,17/06/2021 12:44,IP Address,For (I feel positively about the vaccines),Most weeks,Once or twice a year,25,Female,NA,"Undergraduate degree (BSc, BA)",control,11,3,For,Against
55,1659975685429,08/08/2022 16:21:25,1659975690694,1,08/08/2022 17:21:30,94826,3,task-lkrz,NA,23527420,6895718,NA,complete,NA,62f136b06586187809416a75,computer,Desktop or Laptop,Windows 10,Chrome 103.0.0.0,1280x720,1280x601,NA,ITT Ratings,2,for,2,ACCEPT,NA,NA,NA,NA,NA,NA,NA,NA,NA,batch2pro,batch2pro,57,53,1,Screen 1,continueButton,response_rating_scale_likert_active,39622.59999990463,NA,NA,Agree,1,0,1,0,NA,NA,NA,NA,1,statements,There have been extensive tests and funding ensuring the vaccine is safe and effective,1,17/06/2021 12:31,17/06/2021 12:46,IP Address,For (I feel positively about the vaccines),A few times a year,Most months,21,Female,NA,A levels,choice,19,3,For,For
56,1659975688834,08/08/2022 16:21:28,1659975694105,1,08/08/2022 17:21:34,94826,3,task-lkrz,NA,23527420,6895718,NA,complete,NA,62f136b06586187809416a75,computer,Desktop or Laptop,Windows 10,Chrome 103.0.0.0,1280x720,1280x601,NA,ITT Ratings,2,for,2,ACCEPT,NA,NA,NA,NA,NA,NA,NA,NA,NA,batch2pro,batch2pro,39,54,1,Screen 1,continueButton,response_rating_scale_likert_active,3357.800000190735,NA,NA,Strongly Agree,1,0,1,0,NA,NA,NA,NA,1,statements,With 2 does it will at least slow the spreading or hopefully stop,1,17/06/2021 12:14,17/06/2021 12:45,IP Address,For (I feel positively about the vaccines),Rarely,Once or twice a year,48,Female,NA,GCSEs,choice,16,3,For,For
57,1659975689842,08/08/2022 16:21:29,1659975695118,1,08/08/2022 17:21:35,94826,3,task-lkrz,NA,23527420,6895718,NA,complete,NA,62f136b06586187809416a75,computer,Desktop or Laptop,Windows 10,Chrome 103.0.0.0,1280x720,1280x601,NA,ITT Ratings,2,for,2,ACCEPT,NA,NA,NA,NA,NA,NA,NA,NA,NA,batch2pro,batch2pro,56,55,1,Screen 1,continueButton,response_rating_scale_likert_active,968.0999999046326,NA,NA,Strongly Agree,1,0,1,0,NA,NA,NA,NA,1,statements,"In getting it, we can help protect others too",1,17/06/2021 12:31,17/06/2021 12:46,IP Address,For (I feel positively about the vaccines),A few times a year,Most months,21,Female,NA,A levels,choice,19,2,For,For
58,1659975695602,08/08/2022 16:21:35,1659975700876,1,08/08/2022 17:21:40,94826,3,task-lkrz,NA,23527420,6895718,NA,complete,NA,62f136b06586187809416a75,computer,Desktop or Laptop,Windows 10,Chrome 103.0.0.0,1280x720,1280x601,NA,ITT Ratings,2,for,2,ACCEPT,NA,NA,NA,NA,NA,NA,NA,NA,NA,batch2pro,batch2pro,58,56,1,Screen 1,continueButton,response_rating_scale_likert_active,5712.400000095367,NA,NA,Agree,1,0,1,0,NA,NA,NA,NA,1,statements,I believe a lot of people are concerned about potential blood clots from the vaccine but I personally believe and the article I read confirmed that the risk is small.,1,17/06/2021 12:29,17/06/2021 12:46,IP Address,For (I feel positively about the vaccines),Never,A few times a year,57,Female,NA,"Undergraduate degree (BSc, BA)",choice,20,1,For,Against
59,1659975698440,08/08/2022 16:21:38,1659975703700,1,08/08/2022 17:21:43,94826,3,task-lkrz,NA,23527420,6895718,NA,complete,NA,62f136b06586187809416a75,computer,Desktop or Laptop,Windows 10,Chrome 103.0.0.0,1280x720,1280x601,NA,ITT Ratings,2,for,2,ACCEPT,NA,NA,NA,NA,NA,NA,NA,NA,NA,batch2pro,batch2pro,3,57,1,Screen 1,continueButton,response_rating_scale_likert_active,2772.7000002861023,NA,NA,Somewhat Disagree,1,0,1,0,NA,NA,NA,NA,1,statements,We would like to check you are reading each argument carefully. Please select 'Somewhat Disagree' for this answer,1,NA,NA,NA,NA,NA,NA,NA,NA,NA,NA,NA,NA,check2,NA,NA
60,1659975700094,08/08/2022 16:21:40,1659975705365,1,08/08/2022 17:21:45,94826,3,task-lkrz,NA,23527420,6895718,NA,complete,NA,62f136b06586187809416a75,computer,Desktop or Laptop,Windows 10,Chrome 103.0.0.0,1280x720,1280x601,NA,ITT Ratings,2,for,2,ACCEPT,NA,NA,NA,NA,NA,NA,NA,NA,NA,batch2pro,batch2pro,62,58,1,Screen 1,continueButton,response_rating_scale_likert_active,1620.6000003814695,NA,NA,Strongly Agree,1,0,1,0,NA,NA,NA,NA,1,statements,People in the at risk groups will feel safer going out,1,17/06/2021 12:29,17/06/2021 12:46,IP Address,For (I feel positively about the vaccines),Never,A few times a year,57,Female,NA,"Undergraduate degree (BSc, BA)",choice,20,2,For,For
61,1659975702518,08/08/2022 16:21:42,1659975707793,1,08/08/2022 17:21:47,94826,3,task-lkrz,NA,23527420,6895718,NA,complete,NA,62f136b06586187809416a75,computer,Desktop or Laptop,Windows 10,Chrome 103.0.0.0,1280x720,1280x601,NA,ITT Ratings,2,for,2,ACCEPT,NA,NA,NA,NA,NA,NA,NA,NA,NA,batch2pro,batch2pro,29,59,1,Screen 1,continueButton,response_rating_scale_likert_active,2381.1000003814697,NA,NA,Strongly Disagree,1,0,1,0,NA,NA,NA,NA,1,statements,Not necessary as I am not at personal risk,1,17/06/2021 12:39,17/06/2021 12:45,IP Address,For (I feel positively about the vaccines),Rarely,Rarely,35,Female,NA,"Undergraduate degree (BSc, BA)",choice,15,2,For,Against
62,1659975704351,08/08/2022 16:21:44,1659975709551,1,08/08/2022 17:21:49,94826,3,task-lkrz,NA,23527420,6895718,NA,complete,NA,62f136b06586187809416a75,computer,Desktop or Laptop,Windows 10,Chrome 103.0.0.0,1280x720,1280x601,NA,ITT Ratings,2,for,2,ACCEPT,NA,NA,NA,NA,NA,NA,NA,NA,NA,batch2pro,batch2pro,45,60,1,Screen 1,continueButton,response_rating_scale_likert_active,1704.8000001907349,NA,NA,Strongly Agree,1,0,1,0,NA,NA,NA,NA,1,statements,To give life the chance at being normal again.,1,17/06/2021 12:32,17/06/2021 12:45,IP Address,For (I feel positively about the vaccines),A few times a year,A few times a year,20,Female,NA,A levels,choice,17,3,For,For
63,1659975706000,08/08/2022 16:21:46,1659975711262,1,08/08/2022 17:21:51,94826,3,task-lkrz,NA,23527420,6895718,NA,complete,NA,62f136b06586187809416a75,computer,Desktop or Laptop,Windows 10,Chrome 103.0.0.0,1280x720,1280x601,NA,ITT Ratings,2,for,2,ACCEPT,NA,NA,NA,NA,NA,NA,NA,NA,NA,batch2pro,batch2pro,46,61,1,Screen 1,continueButton,response_rating_scale_likert_active,1669.8000001907349,NA,NA,Disagree,1,0,1,0,NA,NA,NA,NA,1,statements,It's not safe because the trials were rushed,1,17/06/2021 12:39,17/06/2021 12:46,IP Address,For (I feel positively about the vaccines),A few times a year,Most weeks,22,Female,NA,"GCSEs,A levels,Undergraduate degree (BSc, BA)",choice,18,1,For,Against
64,1659975707059,08/08/2022 16:21:47,1659975712332,1,08/08/2022 17:21:52,94826,3,task-lkrz,NA,23527420,6895718,NA,complete,NA,62f136b06586187809416a75,computer,Desktop or Laptop,Windows 10,Chrome 103.0.0.0,1280x720,1280x601,NA,ITT Ratings,2,for,2,ACCEPT,NA,NA,NA,NA,NA,NA,NA,NA,NA,batch2pro,batch2pro,18,62,1,Screen 1,continueButton,response_rating_scale_likert_active,1034.1999998092651,NA,NA,Disagree,1,0,1,0,NA,NA,NA,NA,1,statements,what if i have a reaction to it?,1,17/06/2021 12:37,17/06/2021 12:44,IP Address,For (I feel positively about the vaccines),Rarely,Rarely,33,Female,NA,A levels,choice,13,3,For,Against
65,1659975707144,08/08/2022 16:21:47,1659975712355,1,08/08/2022 17:21:52,94826,3,task-lkrz,NA,23527420,6895718,NA,complete,NA,62f136b06586187809416a75,computer,Desktop or Laptop,Windows 10,Chrome 103.0.0.0,1280x720,1280x601,NA,ITT Ratings,2,for,2,ACCEPT,NA,NA,NA,NA,NA,NA,NA,NA,NA,batch2pro,NA,NA,END TASK,NA,NA,NA,NA,305426,NA,NA,NA,NA,0,1,0,NA,NA,NA,NA,NA,NA,NA,NA,NA,NA,NA,NA,NA,NA,NA,NA,NA,NA,NA,NA,NA,NA,NA
1,1659975748279,08/08/2022 16:22:28,1659975754285,1,08/08/2022 17:22:34,94826,3,task-lkrz,NA,23527518,6895752,NA,complete,NA,62f138153d91436ed6ad7161,computer,Desktop or Laptop,Windows 10,Edge 103.0.1264.49,1280x720,1280x601,NA,ITT Ratings,2,for,2,ACCEPT,NA,NA,NA,NA,NA,NA,NA,NA,NA,batch2pro,NA,NA,BEGIN TASK,NA,NA,NA,NA,NA,NA,NA,NA,NA,0,1,0,NA,NA,NA,NA,NA,NA,NA,NA,NA,NA,NA,NA,NA,NA,NA,NA,NA,NA,NA,NA,NA,NA,NA
2,1659975755920,08/08/2022 16:22:35,1659975761943,1,08/08/2022 17:22:41,94826,3,task-lkrz,NA,23527518,6895752,NA,complete,NA,62f138153d91436ed6ad7161,computer,Desktop or Laptop,Windows 10,Edge 103.0.1264.49,1280x720,1280x601,NA,ITT Ratings,2,for,2,ACCEPT,NA,NA,NA,NA,NA,NA,NA,NA,NA,batch2pro,batch2pro,1,1,1,Screen 1,advancementZone,continue_button,7612.299999713898,NA,NA,NA,NA,0,1,0,NA,NA,NA,NA,NA,instructions,NA,NA,NA,NA,NA,NA,NA,NA,NA,NA,NA,NA,NA,NA,NA,NA,NA
3,1659975763581,08/08/2022 16:22:43,1659975769602,1,08/08/2022 17:22:49,94826,3,task-lkrz,NA,23527518,6895752,NA,complete,NA,62f138153d91436ed6ad7161,computer,Desktop or Laptop,Windows 10,Edge 103.0.1264.49,1280x720,1280x601,NA,ITT Ratings,2,for,2,ACCEPT,NA,NA,NA,NA,NA,NA,NA,NA,NA,batch2pro,batch2pro,2,1,1,Screen 1,continueButton,response_rating_scale_likert_active,7642.699999809265,NA,NA,Somewhat Agree,1,0,1,0,NA,NA,NA,NA,1,statements,We would like to check you are reading each argument carefully. Please select 'Somewhat Agree' for this answer,1,NA,NA,NA,NA,NA,NA,NA,NA,NA,NA,NA,NA,check1,NA,NA
4,1659975779555,08/08/2022 16:22:59,1659975785615,1,08/08/2022 17:23:05,94826,3,task-lkrz,NA,23527518,6895752,NA,complete,NA,62f138153d91436ed6ad7161,computer,Desktop or Laptop,Windows 10,Edge 103.0.1264.49,1280x720,1280x601,NA,ITT Ratings,2,for,2,ACCEPT,NA,NA,NA,NA,NA,NA,NA,NA,NA,batch2pro,batch2pro,60,2,1,Screen 1,continueButton,response_rating_scale_likert_active,15991.699999809263,NA,NA,Neither Agree nor Disagree,1,0,1,0,NA,NA,NA,NA,1,statements,I think some people are influenced against the vaccine by family or friends who believe the above reasons,1,17/06/2021 12:29,17/06/2021 12:46,IP Address,For (I feel positively about the vaccines),Never,A few times a year,57,Female,NA,"Undergraduate degree (BSc, BA)",choice,20,3,For,Against
5,1659975783540,08/08/2022 16:23:03,1659975789600,1,08/08/2022 17:23:09,94826,3,task-lkrz,NA,23527518,6895752,NA,complete,NA,62f138153d91436ed6ad7161,computer,Desktop or Laptop,Windows 10,Edge 103.0.1264.49,1280x720,1280x601,NA,ITT Ratings,2,for,2,ACCEPT,NA,NA,NA,NA,NA,NA,NA,NA,NA,batch2pro,batch2pro,46,3,1,Screen 1,continueButton,response_rating_scale_likert_active,3970,NA,NA,Strongly Disagree,1,0,1,0,NA,NA,NA,NA,1,statements,It's not safe because the trials were rushed,1,17/06/2021 12:39,17/06/2021 12:46,IP Address,For (I feel positively about the vaccines),A few times a year,Most weeks,22,Female,NA,"GCSEs,A levels,Undergraduate degree (BSc, BA)",choice,18,1,For,Against
6,1659975787865,08/08/2022 16:23:07,1659975793893,1,08/08/2022 17:23:13,94826,3,task-lkrz,NA,23527518,6895752,NA,complete,NA,62f138153d91436ed6ad7161,computer,Desktop or Laptop,Windows 10,Edge 103.0.1264.49,1280x720,1280x601,NA,ITT Ratings,2,for,2,ACCEPT,NA,NA,NA,NA,NA,NA,NA,NA,NA,batch2pro,batch2pro,53,4,1,Screen 1,continueButton,response_rating_scale_likert_active,4277.799999713898,NA,NA,Agree,1,0,1,0,NA,NA,NA,NA,1,statements,It is not 100% effective,1,17/06/2021 12:31,17/06/2021 12:46,IP Address,For (I feel positively about the vaccines),A few times a year,Most months,21,Female,NA,A levels,choice,19,2,For,Against
7,1659975791011,08/08/2022 16:23:11,1659975797071,1,08/08/2022 17:23:17,94826,3,task-lkrz,NA,23527518,6895752,NA,complete,NA,62f138153d91436ed6ad7161,computer,Desktop or Laptop,Windows 10,Edge 103.0.1264.49,1280x720,1280x601,NA,ITT Ratings,2,for,2,ACCEPT,NA,NA,NA,NA,NA,NA,NA,NA,NA,batch2pro,batch2pro,12,5,1,Screen 1,continueButton,response_rating_scale_likert_active,3161.699999809265,NA,NA,Strongly Disagree,1,0,1,0,NA,NA,NA,NA,1,statements,They don't trust the companies that make it.,1,17/06/2021 12:36,17/06/2021 12:44,IP Address,For (I feel positively about the vaccines),Most months,Most months,24,Male,NA,"Undergraduate degree (BSc, BA)",control,12,3,For,Against
8,1659975795790,08/08/2022 16:23:15,1659975801853,1,08/08/2022 17:23:21,94826,3,task-lkrz,NA,23527518,6895752,NA,complete,NA,62f138153d91436ed6ad7161,computer,Desktop or Laptop,Windows 10,Edge 103.0.1264.49,1280x720,1280x601,NA,ITT Ratings,2,for,2,ACCEPT,NA,NA,NA,NA,NA,NA,NA,NA,NA,batch2pro,batch2pro,56,6,1,Screen 1,continueButton,response_rating_scale_likert_active,4769.099999904633,NA,NA,Strongly Agree,1,0,1,0,NA,NA,NA,NA,1,statements,"In getting it, we can help protect others too",1,17/06/2021 12:31,17/06/2021 12:46,IP Address,For (I feel positively about the vaccines),A few times a year,Most months,21,Female,NA,A levels,choice,19,2,For,For
9,1659975798177,08/08/2022 16:23:18,1659975804236,1,08/08/2022 17:23:24,94826,3,task-lkrz,NA,23527518,6895752,NA,complete,NA,62f138153d91436ed6ad7161,computer,Desktop or Laptop,Windows 10,Edge 103.0.1264.49,1280x720,1280x601,NA,ITT Ratings,2,for,2,ACCEPT,NA,NA,NA,NA,NA,NA,NA,NA,NA,batch2pro,batch2pro,54,7,1,Screen 1,continueButton,response_rating_scale_likert_active,2375.099999904633,NA,NA,Strongly Disagree,1,0,1,0,NA,NA,NA,NA,1,statements,It has been developed too fast to be effective and safe.,1,17/06/2021 12:31,17/06/2021 12:46,IP Address,For (I feel positively about the vaccines),A few times a year,Most months,21,Female,NA,A levels,choice,19,3,For,Against
10,1659975800561,08/08/2022 16:23:20,1659975806604,1,08/08/2022 17:23:26,94826,3,task-lkrz,NA,23527518,6895752,NA,complete,NA,62f138153d91436ed6ad7161,computer,Desktop or Laptop,Windows 10,Edge 103.0.1264.49,1280x720,1280x601,NA,ITT Ratings,2,for,2,ACCEPT,NA,NA,NA,NA,NA,NA,NA,NA,NA,batch2pro,batch2pro,10,8,1,Screen 1,continueButton,response_rating_scale_likert_active,2356,NA,NA,Strongly Disagree,1,0,1,0,NA,NA,NA,NA,1,statements,I am worried about what is in it.,1,17/06/2021 12:36,17/06/2021 12:44,IP Address,For (I feel positively about the vaccines),Most months,Most months,24,Male,NA,"Undergraduate degree (BSc, BA)",control,12,1,For,Against
11,1659975811511,08/08/2022 16:23:31,1659975817542,1,08/08/2022 17:23:37,94826,3,task-lkrz,NA,23527518,6895752,NA,complete,NA,62f138153d91436ed6ad7161,computer,Desktop or Laptop,Windows 10,Edge 103.0.1264.49,1280x720,1280x601,NA,ITT Ratings,2,for,2,ACCEPT,NA,NA,NA,NA,NA,NA,NA,NA,NA,batch2pro,batch2pro,58,9,1,Screen 1,continueButton,response_rating_scale_likert_active,10924.400000095367,NA,NA,Strongly Agree,1,0,1,0,NA,NA,NA,NA,1,statements,I believe a lot of people are concerned about potential blood clots from the vaccine but I personally believe and the article I read confirmed that the risk is small.,1,17/06/2021 12:29,17/06/2021 12:46,IP Address,For (I feel positively about the vaccines),Never,A few times a year,57,Female,NA,"Undergraduate degree (BSc, BA)",choice,20,1,For,Against
12,1659975815668,08/08/2022 16:23:35,1659975821726,1,08/08/2022 17:23:41,94826,3,task-lkrz,NA,23527518,6895752,NA,complete,NA,62f138153d91436ed6ad7161,computer,Desktop or Laptop,Windows 10,Edge 103.0.1264.49,1280x720,1280x601,NA,ITT Ratings,2,for,2,ACCEPT,NA,NA,NA,NA,NA,NA,NA,NA,NA,batch2pro,batch2pro,11,10,1,Screen 1,continueButton,response_rating_scale_likert_active,4170.199999809265,NA,NA,Neither Agree nor Disagree,1,0,1,0,NA,NA,NA,NA,1,statements,They know people who have had bad side effects.,1,17/06/2021 12:36,17/06/2021 12:44,IP Address,For (I feel positively about the vaccines),Most months,Most months,24,Male,NA,"Undergraduate degree (BSc, BA)",control,12,2,For,Against
13,1659975820389,08/08/2022 16:23:40,1659975826405,1,08/08/2022 17:23:46,94826,3,task-lkrz,NA,23527518,6895752,NA,complete,NA,62f138153d91436ed6ad7161,computer,Desktop or Laptop,Windows 10,Edge 103.0.1264.49,1280x720,1280x601,NA,ITT Ratings,2,for,2,ACCEPT,NA,NA,NA,NA,NA,NA,NA,NA,NA,batch2pro,batch2pro,7,11,1,Screen 1,continueButton,response_rating_scale_likert_active,4667.5,NA,NA,Strongly Agree,1,0,1,0,NA,NA,NA,NA,1,statements,Quicker lift of restrictions,1,17/06/2021 12:39,17/06/2021 12:44,IP Address,For (I feel positively about the vaccines),Most weeks,Once or twice a year,25,Female,NA,"Undergraduate degree (BSc, BA)",control,11,1,For,For
14,1659975825164,08/08/2022 16:23:45,1659975831209,1,08/08/2022 17:23:51,94826,3,task-lkrz,NA,23527518,6895752,NA,complete,NA,62f138153d91436ed6ad7161,computer,Desktop or Laptop,Windows 10,Edge 103.0.1264.49,1280x720,1280x601,NA,ITT Ratings,2,for,2,ACCEPT,NA,NA,NA,NA,NA,NA,NA,NA,NA,batch2pro,batch2pro,32,12,1,Screen 1,continueButton,response_rating_scale_likert_active,4790.099999904633,NA,NA,Disagree,1,0,1,0,NA,NA,NA,NA,1,statements,Protect those around by reducing transmission,1,17/06/2021 12:39,17/06/2021 12:45,IP Address,For (I feel positively about the vaccines),Rarely,Rarely,35,Female,NA,"Undergraduate degree (BSc, BA)",choice,15,2,For,For
15,1659975828060,08/08/2022 16:23:48,1659975834121,1,08/08/2022 17:23:54,94826,3,task-lkrz,NA,23527518,6895752,NA,complete,NA,62f138153d91436ed6ad7161,computer,Desktop or Laptop,Windows 10,Edge 103.0.1264.49,1280x720,1280x601,NA,ITT Ratings,2,for,2,ACCEPT,NA,NA,NA,NA,NA,NA,NA,NA,NA,batch2pro,batch2pro,44,13,1,Screen 1,continueButton,response_rating_scale_likert_active,2901.599999904633,NA,NA,Agree,1,0,1,0,NA,NA,NA,NA,1,statements,Protecting myself.,1,17/06/2021 12:32,17/06/2021 12:45,IP Address,For (I feel positively about the vaccines),A few times a year,A few times a year,20,Female,NA,A levels,choice,17,2,For,For
16,1659975839391,08/08/2022 16:23:59,1659975845436,1,08/08/2022 17:24:05,94826,3,task-lkrz,NA,23527518,6895752,NA,complete,NA,62f138153d91436ed6ad7161,computer,Desktop or Laptop,Windows 10,Edge 103.0.1264.49,1280x720,1280x601,NA,ITT Ratings,2,for,2,ACCEPT,NA,NA,NA,NA,NA,NA,NA,NA,NA,batch2pro,batch2pro,6,14,1,Screen 1,continueButton,response_rating_scale_likert_active,11253.400000095367,NA,NA,Disagree,1,0,1,0,NA,NA,NA,NA,1,statements,They've never had the flu jab and have never been badly affected by flu so don’t see the point,1,17/06/2021 12:39,17/06/2021 12:44,IP Address,For (I feel positively about the vaccines),Most weeks,Once or twice a year,25,Female,NA,"Undergraduate degree (BSc, BA)",control,11,3,For,Against
17,1659975841603,08/08/2022 16:24:01,1659975847649,1,08/08/2022 17:24:07,94826,3,task-lkrz,NA,23527518,6895752,NA,complete,NA,62f138153d91436ed6ad7161,computer,Desktop or Laptop,Windows 10,Edge 103.0.1264.49,1280x720,1280x601,NA,ITT Ratings,2,for,2,ACCEPT,NA,NA,NA,NA,NA,NA,NA,NA,NA,batch2pro,batch2pro,13,15,1,Screen 1,continueButton,response_rating_scale_likert_active,2199,NA,NA,Strongly Disagree,1,0,1,0,NA,NA,NA,NA,1,statements,I am at high risk.,1,17/06/2021 12:36,17/06/2021 12:44,IP Address,For (I feel positively about the vaccines),Most months,Most months,24,Male,NA,"Undergraduate degree (BSc, BA)",control,12,1,For,For
18,1659975845077,08/08/2022 16:24:05,1659975851118,1,08/08/2022 17:24:11,94826,3,task-lkrz,NA,23527518,6895752,NA,complete,NA,62f138153d91436ed6ad7161,computer,Desktop or Laptop,Windows 10,Edge 103.0.1264.49,1280x720,1280x601,NA,ITT Ratings,2,for,2,ACCEPT,NA,NA,NA,NA,NA,NA,NA,NA,NA,batch2pro,batch2pro,17,16,1,Screen 1,continueButton,response_rating_scale_likert_active,3456.900000095367,NA,NA,Somewhat Agree,1,0,1,0,NA,NA,NA,NA,1,statements,who knows what the long term effects will be from the vaccine.,1,17/06/2021 12:37,17/06/2021 12:44,IP Address,For (I feel positively about the vaccines),Rarely,Rarely,33,Female,NA,A levels,choice,13,2,For,Against
19,1659975848449,08/08/2022 16:24:08,1659975854496,1,08/08/2022 17:24:14,94826,3,task-lkrz,NA,23527518,6895752,NA,complete,NA,62f138153d91436ed6ad7161,computer,Desktop or Laptop,Windows 10,Edge 103.0.1264.49,1280x720,1280x601,NA,ITT Ratings,2,for,2,ACCEPT,NA,NA,NA,NA,NA,NA,NA,NA,NA,batch2pro,batch2pro,36,17,1,Screen 1,continueButton,response_rating_scale_likert_active,3363.900000095367,NA,NA,Strongly Disagree,1,0,1,0,NA,NA,NA,NA,1,statements,Am a very healthy person I don’t need this vaccine,1,17/06/2021 12:14,17/06/2021 12:45,IP Address,For (I feel positively about the vaccines),Rarely,Once or twice a year,48,Female,NA,GCSEs,choice,16,3,For,Against
20,1659975850620,08/08/2022 16:24:10,1659975856668,1,08/08/2022 17:24:16,94826,3,task-lkrz,NA,23527518,6895752,NA,complete,NA,62f138153d91436ed6ad7161,computer,Desktop or Laptop,Windows 10,Edge 103.0.1264.49,1280x720,1280x601,NA,ITT Ratings,2,for,2,ACCEPT,NA,NA,NA,NA,NA,NA,NA,NA,NA,batch2pro,batch2pro,14,18,1,Screen 1,continueButton,response_rating_scale_likert_active,2161.1000003814697,NA,NA,Strongly Disagree,1,0,1,0,NA,NA,NA,NA,1,statements,They want to be able to travel.,1,17/06/2021 12:36,17/06/2021 12:44,IP Address,For (I feel positively about the vaccines),Most months,Most months,24,Male,NA,"Undergraduate degree (BSc, BA)",control,12,2,For,For
21,1659975854233,08/08/2022 16:24:14,1659975860294,1,08/08/2022 17:24:20,94826,3,task-lkrz,NA,23527518,6895752,NA,complete,NA,62f138153d91436ed6ad7161,computer,Desktop or Laptop,Windows 10,Edge 103.0.1264.49,1280x720,1280x601,NA,ITT Ratings,2,for,2,ACCEPT,NA,NA,NA,NA,NA,NA,NA,NA,NA,batch2pro,batch2pro,61,19,1,Screen 1,continueButton,response_rating_scale_likert_active,3612,NA,NA,Disagree,1,0,1,0,NA,NA,NA,NA,1,statements,Feel safer to go out with friends or to shops if vaccinated,1,17/06/2021 12:29,17/06/2021 12:46,IP Address,For (I feel positively about the vaccines),Never,A few times a year,57,Female,NA,"Undergraduate degree (BSc, BA)",choice,20,1,For,For
22,1659975862038,08/08/2022 16:24:22,1659975868087,1,08/08/2022 17:24:28,94826,3,task-lkrz,NA,23527518,6895752,NA,complete,NA,62f138153d91436ed6ad7161,computer,Desktop or Laptop,Windows 10,Edge 103.0.1264.49,1280x720,1280x601,NA,ITT Ratings,2,for,2,ACCEPT,NA,NA,NA,NA,NA,NA,NA,NA,NA,batch2pro,batch2pro,30,20,1,Screen 1,continueButton,response_rating_scale_likert_active,7778.900000095367,NA,NA,Neither Agree nor Disagree,1,0,1,0,NA,NA,NA,NA,1,statements,Bad side effects mean they don't want to take it,1,17/06/2021 12:39,17/06/2021 12:45,IP Address,For (I feel positively about the vaccines),Rarely,Rarely,35,Female,NA,"Undergraduate degree (BSc, BA)",choice,15,3,For,Against
23,1659975864227,08/08/2022 16:24:24,1659975870230,1,08/08/2022 17:24:30,94826,3,task-lkrz,NA,23527518,6895752,NA,complete,NA,62f138153d91436ed6ad7161,computer,Desktop or Laptop,Windows 10,Edge 103.0.1264.49,1280x720,1280x601,NA,ITT Ratings,2,for,2,ACCEPT,NA,NA,NA,NA,NA,NA,NA,NA,NA,batch2pro,batch2pro,55,21,1,Screen 1,continueButton,response_rating_scale_likert_active,2130.300000190735,NA,NA,Strongly Agree,1,0,1,0,NA,NA,NA,NA,1,statements,It helps protect you against the virus,1,17/06/2021 12:31,17/06/2021 12:46,IP Address,For (I feel positively about the vaccines),A few times a year,Most months,21,Female,NA,A levels,choice,19,1,For,For
24,1659975866495,08/08/2022 16:24:26,1659975872558,1,08/08/2022 17:24:32,94826,3,task-lkrz,NA,23527518,6895752,NA,complete,NA,62f138153d91436ed6ad7161,computer,Desktop or Laptop,Windows 10,Edge 103.0.1264.49,1280x720,1280x601,NA,ITT Ratings,2,for,2,ACCEPT,NA,NA,NA,NA,NA,NA,NA,NA,NA,batch2pro,batch2pro,51,22,1,Screen 1,continueButton,response_rating_scale_likert_active,2313.7000002861023,NA,NA,Strongly Agree,1,0,1,0,NA,NA,NA,NA,1,statements,I want to safely see my family and friends again,1,17/06/2021 12:39,17/06/2021 12:46,IP Address,For (I feel positively about the vaccines),A few times a year,Most weeks,22,Female,NA,"GCSEs,A levels,Undergraduate degree (BSc, BA)",choice,18,3,For,For
25,1659975869606,08/08/2022 16:24:29,1659975875653,1,08/08/2022 17:24:35,94826,3,task-lkrz,NA,23527518,6895752,NA,complete,NA,62f138153d91436ed6ad7161,computer,Desktop or Laptop,Windows 10,Edge 103.0.1264.49,1280x720,1280x601,NA,ITT Ratings,2,for,2,ACCEPT,NA,NA,NA,NA,NA,NA,NA,NA,NA,batch2pro,batch2pro,20,23,1,Screen 1,continueButton,response_rating_scale_likert_active,3085.7000002861023,NA,NA,Somewhat Agree,1,0,1,0,NA,NA,NA,NA,1,statements,i want to protect the vulnerable people and people who cant have it,1,17/06/2021 12:37,17/06/2021 12:44,IP Address,For (I feel positively about the vaccines),Rarely,Rarely,33,Female,NA,A levels,choice,13,2,For,For
26,1659975874033,08/08/2022 16:24:34,1659975880079,1,08/08/2022 17:24:40,94826,3,task-lkrz,NA,23527518,6895752,NA,complete,NA,62f138153d91436ed6ad7161,computer,Desktop or Laptop,Windows 10,Edge 103.0.1264.49,1280x720,1280x601,NA,ITT Ratings,2,for,2,ACCEPT,NA,NA,NA,NA,NA,NA,NA,NA,NA,batch2pro,batch2pro,45,24,1,Screen 1,continueButton,response_rating_scale_likert_active,4413.299999713898,NA,NA,Somewhat Agree,1,0,1,0,NA,NA,NA,NA,1,statements,To give life the chance at being normal again.,1,17/06/2021 12:32,17/06/2021 12:45,IP Address,For (I feel positively about the vaccines),A few times a year,A few times a year,20,Female,NA,A levels,choice,17,3,For,For
27,1659975876667,08/08/2022 16:24:36,1659975882726,1,08/08/2022 17:24:42,94826,3,task-lkrz,NA,23527518,6895752,NA,complete,NA,62f138153d91436ed6ad7161,computer,Desktop or Laptop,Windows 10,Edge 103.0.1264.49,1280x720,1280x601,NA,ITT Ratings,2,for,2,ACCEPT,NA,NA,NA,NA,NA,NA,NA,NA,NA,batch2pro,batch2pro,9,25,1,Screen 1,continueButton,response_rating_scale_likert_active,2631.400000095367,NA,NA,Somewhat Agree,1,0,1,0,NA,NA,NA,NA,1,statements,Personal protection,1,17/06/2021 12:39,17/06/2021 12:44,IP Address,For (I feel positively about the vaccines),Most weeks,Once or twice a year,25,Female,NA,"Undergraduate degree (BSc, BA)",control,11,3,For,For
28,1659975881165,08/08/2022 16:24:41,1659975887218,1,08/08/2022 17:24:47,94826,3,task-lkrz,NA,23527518,6895752,NA,complete,NA,62f138153d91436ed6ad7161,computer,Desktop or Laptop,Windows 10,Edge 103.0.1264.49,1280x720,1280x601,NA,ITT Ratings,2,for,2,ACCEPT,NA,NA,NA,NA,NA,NA,NA,NA,NA,batch2pro,batch2pro,52,26,1,Screen 1,continueButton,response_rating_scale_likert_active,4478.800000190735,NA,NA,Neither Agree nor Disagree,1,0,1,0,NA,NA,NA,NA,1,statements,We have no information about long term side effects,1,17/06/2021 12:31,17/06/2021 12:46,IP Address,For (I feel positively about the vaccines),A few times a year,Most months,21,Female,NA,A levels,choice,19,1,For,Against
29,1659975884293,08/08/2022 16:24:44,1659975890291,1,08/08/2022 17:24:50,94826,3,task-lkrz,NA,23527518,6895752,NA,complete,NA,62f138153d91436ed6ad7161,computer,Desktop or Laptop,Windows 10,Edge 103.0.1264.49,1280x720,1280x601,NA,ITT Ratings,2,for,2,ACCEPT,NA,NA,NA,NA,NA,NA,NA,NA,NA,batch2pro,batch2pro,8,27,1,Screen 1,continueButton,response_rating_scale_likert_active,3060.7999997138977,NA,NA,Somewhat Agree,1,0,1,0,NA,NA,NA,NA,1,statements,Protection for close vulnerable family members,1,17/06/2021 12:39,17/06/2021 12:44,IP Address,For (I feel positively about the vaccines),Most weeks,Once or twice a year,25,Female,NA,"Undergraduate degree (BSc, BA)",control,11,2,For,For
30,1659975885911,08/08/2022 16:24:45,1659975891963,1,08/08/2022 17:24:51,94826,3,task-lkrz,NA,23527518,6895752,NA,complete,NA,62f138153d91436ed6ad7161,computer,Desktop or Laptop,Windows 10,Edge 103.0.1264.49,1280x720,1280x601,NA,ITT Ratings,2,for,2,ACCEPT,NA,NA,NA,NA,NA,NA,NA,NA,NA,batch2pro,batch2pro,43,28,1,Screen 1,continueButton,response_rating_scale_likert_active,1660.7999997138977,NA,NA,Somewhat Agree,1,0,1,0,NA,NA,NA,NA,1,statements,Protecting those who are vulnerable around me.,1,17/06/2021 12:32,17/06/2021 12:45,IP Address,For (I feel positively about the vaccines),A few times a year,A few times a year,20,Female,NA,A levels,choice,17,1,For,For
31,1659975889739,08/08/2022 16:24:49,1659975895790,1,08/08/2022 17:24:55,94826,3,task-lkrz,NA,23527518,6895752,NA,complete,NA,62f138153d91436ed6ad7161,computer,Desktop or Laptop,Windows 10,Edge 103.0.1264.49,1280x720,1280x601,NA,ITT Ratings,2,for,2,ACCEPT,NA,NA,NA,NA,NA,NA,NA,NA,NA,batch2pro,batch2pro,33,29,1,Screen 1,continueButton,response_rating_scale_likert_active,3812.5,NA,NA,Strongly Agree,1,0,1,0,NA,NA,NA,NA,1,statements,Get back to life without restrictions faster,1,17/06/2021 12:39,17/06/2021 12:45,IP Address,For (I feel positively about the vaccines),Rarely,Rarely,35,Female,NA,"Undergraduate degree (BSc, BA)",choice,15,3,For,For
32,1659975891530,08/08/2022 16:24:51,1659975897587,1,08/08/2022 17:24:57,94826,3,task-lkrz,NA,23527518,6895752,NA,complete,NA,62f138153d91436ed6ad7161,computer,Desktop or Laptop,Windows 10,Edge 103.0.1264.49,1280x720,1280x601,NA,ITT Ratings,2,for,2,ACCEPT,NA,NA,NA,NA,NA,NA,NA,NA,NA,batch2pro,batch2pro,47,30,1,Screen 1,continueButton,response_rating_scale_likert_active,1783.6999998092651,NA,NA,Disagree,1,0,1,0,NA,NA,NA,NA,1,statements,Worried about the side effects,1,17/06/2021 12:39,17/06/2021 12:46,IP Address,For (I feel positively about the vaccines),A few times a year,Most weeks,22,Female,NA,"GCSEs,A levels,Undergraduate degree (BSc, BA)",choice,18,2,For,Against
33,1659975893832,08/08/2022 16:24:53,1659975899880,1,08/08/2022 17:24:59,94826,3,task-lkrz,NA,23527518,6895752,NA,complete,NA,62f138153d91436ed6ad7161,computer,Desktop or Laptop,Windows 10,Edge 103.0.1264.49,1280x720,1280x601,NA,ITT Ratings,2,for,2,ACCEPT,NA,NA,NA,NA,NA,NA,NA,NA,NA,batch2pro,batch2pro,28,31,1,Screen 1,continueButton,response_rating_scale_likert_active,2282.099999904633,NA,NA,Strongly Disagree,1,0,1,0,NA,NA,NA,NA,1,statements,Not safe as it's been rushed,1,17/06/2021 12:39,17/06/2021 12:45,IP Address,For (I feel positively about the vaccines),Rarely,Rarely,35,Female,NA,"Undergraduate degree (BSc, BA)",choice,15,1,For,Against
34,1659975899549,08/08/2022 16:24:59,1659975905598,1,08/08/2022 17:25:05,94826,3,task-lkrz,NA,23527518,6895752,NA,complete,NA,62f138153d91436ed6ad7161,computer,Desktop or Laptop,Windows 10,Edge 103.0.1264.49,1280x720,1280x601,NA,ITT Ratings,2,for,2,ACCEPT,NA,NA,NA,NA,NA,NA,NA,NA,NA,batch2pro,batch2pro,19,32,1,Screen 1,continueButton,response_rating_scale_likert_active,5705.200000286102,NA,NA,Somewhat Agree,1,0,1,0,NA,NA,NA,NA,1,statements,i dont want too die from covid 19,1,17/06/2021 12:37,17/06/2021 12:44,IP Address,For (I feel positively about the vaccines),Rarely,Rarely,33,Female,NA,A levels,choice,13,1,For,For
35,1659975902154,08/08/2022 16:25:02,1659975908209,1,08/08/2022 17:25:08,94826,3,task-lkrz,NA,23527518,6895752,NA,complete,NA,62f138153d91436ed6ad7161,computer,Desktop or Laptop,Windows 10,Edge 103.0.1264.49,1280x720,1280x601,NA,ITT Ratings,2,for,2,ACCEPT,NA,NA,NA,NA,NA,NA,NA,NA,NA,batch2pro,batch2pro,34,33,1,Screen 1,continueButton,response_rating_scale_likert_active,2598.1000003814697,NA,NA,Strongly Disagree,1,0,1,0,NA,NA,NA,NA,1,statements,Side effects that will make me ill badly,1,17/06/2021 12:14,17/06/2021 12:45,IP Address,For (I feel positively about the vaccines),Rarely,Once or twice a year,48,Female,NA,GCSEs,choice,16,1,For,Against
36,1659975906157,08/08/2022 16:25:06,1659975912206,1,08/08/2022 17:25:12,94826,3,task-lkrz,NA,23527518,6895752,NA,complete,NA,62f138153d91436ed6ad7161,computer,Desktop or Laptop,Windows 10,Edge 103.0.1264.49,1280x720,1280x601,NA,ITT Ratings,2,for,2,ACCEPT,NA,NA,NA,NA,NA,NA,NA,NA,NA,batch2pro,batch2pro,29,34,1,Screen 1,continueButton,response_rating_scale_likert_active,3985.099999904633,NA,NA,Strongly Disagree,1,0,1,0,NA,NA,NA,NA,1,statements,Not necessary as I am not at personal risk,1,17/06/2021 12:39,17/06/2021 12:45,IP Address,For (I feel positively about the vaccines),Rarely,Rarely,35,Female,NA,"Undergraduate degree (BSc, BA)",choice,15,2,For,Against
37,1659975925812,08/08/2022 16:25:25,1659975931867,1,08/08/2022 17:25:31,94826,3,task-lkrz,NA,23527518,6895752,NA,complete,NA,62f138153d91436ed6ad7161,computer,Desktop or Laptop,Windows 10,Edge 103.0.1264.49,1280x720,1280x601,NA,ITT Ratings,2,for,2,ACCEPT,NA,NA,NA,NA,NA,NA,NA,NA,NA,batch2pro,batch2pro,39,35,1,Screen 1,continueButton,response_rating_scale_likert_active,19646.300000190735,NA,NA,Somewhat Disagree,1,0,1,0,NA,NA,NA,NA,1,statements,With 2 does it will at least slow the spreading or hopefully stop,1,17/06/2021 12:14,17/06/2021 12:45,IP Address,For (I feel positively about the vaccines),Rarely,Once or twice a year,48,Female,NA,GCSEs,choice,16,3,For,For
38,1659975931347,08/08/2022 16:25:31,1659975937396,1,08/08/2022 17:25:37,94826,3,task-lkrz,NA,23527518,6895752,NA,complete,NA,62f138153d91436ed6ad7161,computer,Desktop or Laptop,Windows 10,Edge 103.0.1264.49,1280x720,1280x601,NA,ITT Ratings,2,for,2,ACCEPT,NA,NA,NA,NA,NA,NA,NA,NA,NA,batch2pro,batch2pro,21,36,1,Screen 1,continueButton,response_rating_scale_likert_active,5514.199999809265,NA,NA,Somewhat Disagree,1,0,1,0,NA,NA,NA,NA,1,statements,iv had all vaccines iv been offered previously so why is this different?,1,17/06/2021 12:37,17/06/2021 12:44,IP Address,For (I feel positively about the vaccines),Rarely,Rarely,33,Female,NA,A levels,choice,13,3,For,For
39,1659975933003,08/08/2022 16:25:33,1659975939054,1,08/08/2022 17:25:39,94826,3,task-lkrz,NA,23527518,6895752,NA,complete,NA,62f138153d91436ed6ad7161,computer,Desktop or Laptop,Windows 10,Edge 103.0.1264.49,1280x720,1280x601,NA,ITT Ratings,2,for,2,ACCEPT,NA,NA,NA,NA,NA,NA,NA,NA,NA,batch2pro,batch2pro,5,37,1,Screen 1,continueButton,response_rating_scale_likert_active,1645.5,NA,NA,Strongly Disagree,1,0,1,0,NA,NA,NA,NA,1,statements,It's a money making scheme,1,17/06/2021 12:39,17/06/2021 12:44,IP Address,For (I feel positively about the vaccines),Most weeks,Once or twice a year,25,Female,NA,"Undergraduate degree (BSc, BA)",control,11,2,For,Against
40,1659975935101,08/08/2022 16:25:35,1659975941146,1,08/08/2022 17:25:41,94826,3,task-lkrz,NA,23527518,6895752,NA,complete,NA,62f138153d91436ed6ad7161,computer,Desktop or Laptop,Windows 10,Edge 103.0.1264.49,1280x720,1280x601,NA,ITT Ratings,2,for,2,ACCEPT,NA,NA,NA,NA,NA,NA,NA,NA,NA,batch2pro,batch2pro,37,38,1,Screen 1,continueButton,response_rating_scale_likert_active,2078.3999996185303,NA,NA,Strongly Agree,1,0,1,0,NA,NA,NA,NA,1,statements,It will protect you and your family,1,17/06/2021 12:14,17/06/2021 12:45,IP Address,For (I feel positively about the vaccines),Rarely,Once or twice a year,48,Female,NA,GCSEs,choice,16,1,For,For
41,1659975936851,08/08/2022 16:25:36,1659975942907,1,08/08/2022 17:25:42,94826,3,task-lkrz,NA,23527518,6895752,NA,complete,NA,62f138153d91436ed6ad7161,computer,Desktop or Laptop,Windows 10,Edge 103.0.1264.49,1280x720,1280x601,NA,ITT Ratings,2,for,2,ACCEPT,NA,NA,NA,NA,NA,NA,NA,NA,NA,batch2pro,batch2pro,25,39,1,Screen 1,continueButton,response_rating_scale_likert_active,1748.5,NA,NA,Strongly Agree,1,0,1,0,NA,NA,NA,NA,1,statements,It will help to keep you safe,1,17/06/2021 12:37,17/06/2021 12:45,IP Address,For (I feel positively about the vaccines),Most months,Most days,51,Female,NA,"Undergraduate degree (BSc, BA)",control,14,1,For,For
42,1659975943650,08/08/2022 16:25:43,1659975949702,1,08/08/2022 17:25:49,94826,3,task-lkrz,NA,23527518,6895752,NA,complete,NA,62f138153d91436ed6ad7161,computer,Desktop or Laptop,Windows 10,Edge 103.0.1264.49,1280x720,1280x601,NA,ITT Ratings,2,for,2,ACCEPT,NA,NA,NA,NA,NA,NA,NA,NA,NA,batch2pro,batch2pro,3,40,1,Screen 1,continueButton,response_rating_scale_likert_active,6782.099999904633,NA,NA,Somewhat Disagree,1,0,1,0,NA,NA,NA,NA,1,statements,We would like to check you are reading each argument carefully. Please select 'Somewhat Disagree' for this answer,1,NA,NA,NA,NA,NA,NA,NA,NA,NA,NA,NA,NA,check2,NA,NA
43,1659975945797,08/08/2022 16:25:45,1659975951832,1,08/08/2022 17:25:51,94826,3,task-lkrz,NA,23527518,6895752,NA,complete,NA,62f138153d91436ed6ad7161,computer,Desktop or Laptop,Windows 10,Edge 103.0.1264.49,1280x720,1280x601,NA,ITT Ratings,2,for,2,ACCEPT,NA,NA,NA,NA,NA,NA,NA,NA,NA,batch2pro,batch2pro,23,41,1,Screen 1,continueButton,response_rating_scale_likert_active,2119,NA,NA,Strongly Disagree,1,0,1,0,NA,NA,NA,NA,1,statements,Affects my fertility,1,17/06/2021 12:37,17/06/2021 12:45,IP Address,For (I feel positively about the vaccines),Most months,Most days,51,Female,NA,"Undergraduate degree (BSc, BA)",control,14,2,For,Against
44,1659975951159,08/08/2022 16:25:51,1659975957209,1,08/08/2022 17:25:57,94826,3,task-lkrz,NA,23527518,6895752,NA,complete,NA,62f138153d91436ed6ad7161,computer,Desktop or Laptop,Windows 10,Edge 103.0.1264.49,1280x720,1280x601,NA,ITT Ratings,2,for,2,ACCEPT,NA,NA,NA,NA,NA,NA,NA,NA,NA,batch2pro,batch2pro,49,42,1,Screen 1,continueButton,response_rating_scale_likert_active,5366.10000038147,NA,NA,Disagree,1,0,1,0,NA,NA,NA,NA,1,statements,"It will stop me from getting Covid-19. I do not want Covid-19 as it will make me sick, so this is obviously a good thing",1,17/06/2021 12:39,17/06/2021 12:46,IP Address,For (I feel positively about the vaccines),A few times a year,Most weeks,22,Female,NA,"GCSEs,A levels,Undergraduate degree (BSc, BA)",choice,18,1,For,For
45,1659975953463,08/08/2022 16:25:53,1659975959515,1,08/08/2022 17:25:59,94826,3,task-lkrz,NA,23527518,6895752,NA,complete,NA,62f138153d91436ed6ad7161,computer,Desktop or Laptop,Windows 10,Edge 103.0.1264.49,1280x720,1280x601,NA,ITT Ratings,2,for,2,ACCEPT,NA,NA,NA,NA,NA,NA,NA,NA,NA,batch2pro,batch2pro,31,43,1,Screen 1,continueButton,response_rating_scale_likert_active,2291.800000190735,NA,NA,Strongly Agree,1,0,1,0,NA,NA,NA,NA,1,statements,Protect myself from Covid,1,17/06/2021 12:39,17/06/2021 12:45,IP Address,For (I feel positively about the vaccines),Rarely,Rarely,35,Female,NA,"Undergraduate degree (BSc, BA)",choice,15,1,For,For
46,1659975957005,08/08/2022 16:25:57,1659975963045,1,08/08/2022 17:26:03,94826,3,task-lkrz,NA,23527518,6895752,NA,complete,NA,62f138153d91436ed6ad7161,computer,Desktop or Laptop,Windows 10,Edge 103.0.1264.49,1280x720,1280x601,NA,ITT Ratings,2,for,2,ACCEPT,NA,NA,NA,NA,NA,NA,NA,NA,NA,batch2pro,batch2pro,62,44,1,Screen 1,continueButton,response_rating_scale_likert_active,3520.7000002861023,NA,NA,Strongly Agree,1,0,1,0,NA,NA,NA,NA,1,statements,People in the at risk groups will feel safer going out,1,17/06/2021 12:29,17/06/2021 12:46,IP Address,For (I feel positively about the vaccines),Never,A few times a year,57,Female,NA,"Undergraduate degree (BSc, BA)",choice,20,2,For,For
47,1659975960125,08/08/2022 16:26:00,1659975966145,1,08/08/2022 17:26:06,94826,3,task-lkrz,NA,23527518,6895752,NA,complete,NA,62f138153d91436ed6ad7161,computer,Desktop or Laptop,Windows 10,Edge 103.0.1264.49,1280x720,1280x601,NA,ITT Ratings,2,for,2,ACCEPT,NA,NA,NA,NA,NA,NA,NA,NA,NA,batch2pro,batch2pro,16,45,1,Screen 1,continueButton,response_rating_scale_likert_active,3086.800000190735,NA,NA,Strongly Disagree,1,0,1,0,NA,NA,NA,NA,1,statements,they havent had enough time to research it properly.,1,17/06/2021 12:37,17/06/2021 12:44,IP Address,For (I feel positively about the vaccines),Rarely,Rarely,33,Female,NA,A levels,choice,13,1,For,Against
48,1659975963931,08/08/2022 16:26:03,1659975969972,1,08/08/2022 17:26:09,94826,3,task-lkrz,NA,23527518,6895752,NA,complete,NA,62f138153d91436ed6ad7161,computer,Desktop or Laptop,Windows 10,Edge 103.0.1264.49,1280x720,1280x601,NA,ITT Ratings,2,for,2,ACCEPT,NA,NA,NA,NA,NA,NA,NA,NA,NA,batch2pro,batch2pro,27,46,1,Screen 1,continueButton,response_rating_scale_likert_active,3814.5,NA,NA,Strongly Agree,1,0,1,0,NA,NA,NA,NA,1,statements,We will be able to come out of lock down,1,17/06/2021 12:37,17/06/2021 12:45,IP Address,For (I feel positively about the vaccines),Most months,Most days,51,Female,NA,"Undergraduate degree (BSc, BA)",control,14,3,For,For
49,1659975966107,08/08/2022 16:26:06,1659975972148,1,08/08/2022 17:26:12,94826,3,task-lkrz,NA,23527518,6895752,NA,complete,NA,62f138153d91436ed6ad7161,computer,Desktop or Laptop,Windows 10,Edge 103.0.1264.49,1280x720,1280x601,NA,ITT Ratings,2,for,2,ACCEPT,NA,NA,NA,NA,NA,NA,NA,NA,NA,batch2pro,batch2pro,4,47,1,Screen 1,continueButton,response_rating_scale_likert_active,2162.800000190735,NA,NA,Strongly Disagree,1,0,1,0,NA,NA,NA,NA,1,statements,It was developed too quickly,1,17/06/2021 12:39,17/06/2021 12:44,IP Address,For (I feel positively about the vaccines),Most weeks,Once or twice a year,25,Female,NA,"Undergraduate degree (BSc, BA)",control,11,1,For,Against
50,1659975968673,08/08/2022 16:26:08,1659975974710,1,08/08/2022 17:26:14,94826,3,task-lkrz,NA,23527518,6895752,NA,complete,NA,62f138153d91436ed6ad7161,computer,Desktop or Laptop,Windows 10,Edge 103.0.1264.49,1280x720,1280x601,NA,ITT Ratings,2,for,2,ACCEPT,NA,NA,NA,NA,NA,NA,NA,NA,NA,batch2pro,batch2pro,26,48,1,Screen 1,continueButton,response_rating_scale_likert_active,2548.1000003814697,NA,NA,Strongly Agree,1,0,1,0,NA,NA,NA,NA,1,statements,It will help to keep others safe,1,17/06/2021 12:37,17/06/2021 12:45,IP Address,For (I feel positively about the vaccines),Most months,Most days,51,Female,NA,"Undergraduate degree (BSc, BA)",control,14,2,For,For
51,1659975973464,08/08/2022 16:26:13,1659975979477,1,08/08/2022 17:26:19,94826,3,task-lkrz,NA,23527518,6895752,NA,complete,NA,62f138153d91436ed6ad7161,computer,Desktop or Laptop,Windows 10,Edge 103.0.1264.49,1280x720,1280x601,NA,ITT Ratings,2,for,2,ACCEPT,NA,NA,NA,NA,NA,NA,NA,NA,NA,batch2pro,batch2pro,38,49,1,Screen 1,continueButton,response_rating_scale_likert_active,4753,NA,NA,Disagree,1,0,1,0,NA,NA,NA,NA,1,statements,When you go outside shopping for food or just chatting someone  you are protected,1,17/06/2021 12:14,17/06/2021 12:45,IP Address,For (I feel positively about the vaccines),Rarely,Once or twice a year,48,Female,NA,GCSEs,choice,16,2,For,For
52,1659975976535,08/08/2022 16:26:16,1659975982591,1,08/08/2022 17:26:22,94826,3,task-lkrz,NA,23527518,6895752,NA,complete,NA,62f138153d91436ed6ad7161,computer,Desktop or Laptop,Windows 10,Edge 103.0.1264.49,1280x720,1280x601,NA,ITT Ratings,2,for,2,ACCEPT,NA,NA,NA,NA,NA,NA,NA,NA,NA,batch2pro,batch2pro,63,50,1,Screen 1,continueButton,response_rating_scale_likert_active,3099.300000190735,NA,NA,Somewhat Agree,1,0,1,0,NA,NA,NA,NA,1,statements,The more people who receive the vaccine the sooner we can get back to normal,1,17/06/2021 12:29,17/06/2021 12:46,IP Address,For (I feel positively about the vaccines),Never,A few times a year,57,Female,NA,"Undergraduate degree (BSc, BA)",choice,20,3,For,For
53,1659975979733,08/08/2022 16:26:19,1659975985750,1,08/08/2022 17:26:25,94826,3,task-lkrz,NA,23527518,6895752,NA,complete,NA,62f138153d91436ed6ad7161,computer,Desktop or Laptop,Windows 10,Edge 103.0.1264.49,1280x720,1280x601,NA,ITT Ratings,2,for,2,ACCEPT,NA,NA,NA,NA,NA,NA,NA,NA,NA,batch2pro,batch2pro,40,51,1,Screen 1,continueButton,response_rating_scale_likert_active,3145,NA,NA,Strongly Disagree,1,0,1,0,NA,NA,NA,NA,1,statements,Jesus protects me against all things and therefore I don't need a vaccine.,1,17/06/2021 12:32,17/06/2021 12:45,IP Address,For (I feel positively about the vaccines),A few times a year,A few times a year,20,Female,NA,A levels,choice,17,1,For,Against
54,1659975985541,08/08/2022 16:26:25,1659975991594,1,08/08/2022 17:26:31,94826,3,task-lkrz,NA,23527518,6895752,NA,complete,NA,62f138153d91436ed6ad7161,computer,Desktop or Laptop,Windows 10,Edge 103.0.1264.49,1280x720,1280x601,NA,ITT Ratings,2,for,2,ACCEPT,NA,NA,NA,NA,NA,NA,NA,NA,NA,batch2pro,batch2pro,18,52,1,Screen 1,continueButton,response_rating_scale_likert_active,5829.299999713898,NA,NA,Somewhat Disagree,1,0,1,0,NA,NA,NA,NA,1,statements,what if i have a reaction to it?,1,17/06/2021 12:37,17/06/2021 12:44,IP Address,For (I feel positively about the vaccines),Rarely,Rarely,33,Female,NA,A levels,choice,13,3,For,Against
55,1659975990571,08/08/2022 16:26:30,1659975996614,1,08/08/2022 17:26:36,94826,3,task-lkrz,NA,23527518,6895752,NA,complete,NA,62f138153d91436ed6ad7161,computer,Desktop or Laptop,Windows 10,Edge 103.0.1264.49,1280x720,1280x601,NA,ITT Ratings,2,for,2,ACCEPT,NA,NA,NA,NA,NA,NA,NA,NA,NA,batch2pro,batch2pro,59,53,1,Screen 1,continueButton,response_rating_scale_likert_active,5006.800000190735,NA,NA,Somewhat Agree,1,0,1,0,NA,NA,NA,NA,1,statements,I have heard that some people believe the vaccine contains a microchip,1,17/06/2021 12:29,17/06/2021 12:46,IP Address,For (I feel positively about the vaccines),Never,A few times a year,57,Female,NA,"Undergraduate degree (BSc, BA)",choice,20,2,For,Against
56,1659975993340,08/08/2022 16:26:33,1659975999395,1,08/08/2022 17:26:39,94826,3,task-lkrz,NA,23527518,6895752,NA,complete,NA,62f138153d91436ed6ad7161,computer,Desktop or Laptop,Windows 10,Edge 103.0.1264.49,1280x720,1280x601,NA,ITT Ratings,2,for,2,ACCEPT,NA,NA,NA,NA,NA,NA,NA,NA,NA,batch2pro,batch2pro,48,54,1,Screen 1,continueButton,response_rating_scale_likert_active,2772.900000095367,NA,NA,Strongly Disagree,1,0,1,0,NA,NA,NA,NA,1,statements,I'm getting microchipped by Big Pharma!,1,17/06/2021 12:39,17/06/2021 12:46,IP Address,For (I feel positively about the vaccines),A few times a year,Most weeks,22,Female,NA,"GCSEs,A levels,Undergraduate degree (BSc, BA)",choice,18,3,For,Against
57,1659975997407,08/08/2022 16:26:37,1659976003460,1,08/08/2022 17:26:43,94826,3,task-lkrz,NA,23527518,6895752,NA,complete,NA,62f138153d91436ed6ad7161,computer,Desktop or Laptop,Windows 10,Edge 103.0.1264.49,1280x720,1280x601,NA,ITT Ratings,2,for,2,ACCEPT,NA,NA,NA,NA,NA,NA,NA,NA,NA,batch2pro,batch2pro,57,55,1,Screen 1,continueButton,response_rating_scale_likert_active,4051.7000002861023,NA,NA,Agree,1,0,1,0,NA,NA,NA,NA,1,statements,There have been extensive tests and funding ensuring the vaccine is safe and effective,1,17/06/2021 12:31,17/06/2021 12:46,IP Address,For (I feel positively about the vaccines),A few times a year,Most months,21,Female,NA,A levels,choice,19,3,For,For
58,1659976000702,08/08/2022 16:26:40,1659976006757,1,08/08/2022 17:26:46,94826,3,task-lkrz,NA,23527518,6895752,NA,complete,NA,62f138153d91436ed6ad7161,computer,Desktop or Laptop,Windows 10,Edge 103.0.1264.49,1280x720,1280x601,NA,ITT Ratings,2,for,2,ACCEPT,NA,NA,NA,NA,NA,NA,NA,NA,NA,batch2pro,batch2pro,50,56,1,Screen 1,continueButton,response_rating_scale_likert_active,3284,NA,NA,Agree,1,0,1,0,NA,NA,NA,NA,1,statements,"By getting the vaccine it means I'm contributing to achieving herd immunity, which keeps everyone safe",1,17/06/2021 12:39,17/06/2021 12:46,IP Address,For (I feel positively about the vaccines),A few times a year,Most weeks,22,Female,NA,"GCSEs,A levels,Undergraduate degree (BSc, BA)",choice,18,2,For,For
59,1659976003480,08/08/2022 16:26:43,1659976009535,1,08/08/2022 17:26:49,94826,3,task-lkrz,NA,23527518,6895752,NA,complete,NA,62f138153d91436ed6ad7161,computer,Desktop or Laptop,Windows 10,Edge 103.0.1264.49,1280x720,1280x601,NA,ITT Ratings,2,for,2,ACCEPT,NA,NA,NA,NA,NA,NA,NA,NA,NA,batch2pro,batch2pro,42,57,1,Screen 1,continueButton,response_rating_scale_likert_active,2763.5,NA,NA,Strongly Disagree,1,0,1,0,NA,NA,NA,NA,1,statements,"The vaccine had been developed too quickly, theres not been enough testing.",1,17/06/2021 12:32,17/06/2021 12:45,IP Address,For (I feel positively about the vaccines),A few times a year,A few times a year,20,Female,NA,A levels,choice,17,3,For,Against
60,1659976007927,08/08/2022 16:26:47,1659976013972,1,08/08/2022 17:26:53,94826,3,task-lkrz,NA,23527518,6895752,NA,complete,NA,62f138153d91436ed6ad7161,computer,Desktop or Laptop,Windows 10,Edge 103.0.1264.49,1280x720,1280x601,NA,ITT Ratings,2,for,2,ACCEPT,NA,NA,NA,NA,NA,NA,NA,NA,NA,batch2pro,batch2pro,35,58,1,Screen 1,continueButton,response_rating_scale_likert_active,4418.200000286102,NA,NA,Strongly Disagree,1,0,1,0,NA,NA,NA,NA,1,statements,Long time body problems that will effect me mantally and physically,1,17/06/2021 12:14,17/06/2021 12:45,IP Address,For (I feel positively about the vaccines),Rarely,Once or twice a year,48,Female,NA,GCSEs,choice,16,2,For,Against
61,1659976010558,08/08/2022 16:26:50,1659976016617,1,08/08/2022 17:26:56,94826,3,task-lkrz,NA,23527518,6895752,NA,complete,NA,62f138153d91436ed6ad7161,computer,Desktop or Laptop,Windows 10,Edge 103.0.1264.49,1280x720,1280x601,NA,ITT Ratings,2,for,2,ACCEPT,NA,NA,NA,NA,NA,NA,NA,NA,NA,batch2pro,batch2pro,41,59,1,Screen 1,continueButton,response_rating_scale_likert_active,2631.599999904633,NA,NA,Strongly Disagree,1,0,1,0,NA,NA,NA,NA,1,statements,The government might impact a chip in me through the needle or change my dna,1,17/06/2021 12:32,17/06/2021 12:45,IP Address,For (I feel positively about the vaccines),A few times a year,A few times a year,20,Female,NA,A levels,choice,17,2,For,Against
62,1659976013501,08/08/2022 16:26:53,1659976019558,1,08/08/2022 17:26:59,94826,3,task-lkrz,NA,23527518,6895752,NA,complete,NA,62f138153d91436ed6ad7161,computer,Desktop or Laptop,Windows 10,Edge 103.0.1264.49,1280x720,1280x601,NA,ITT Ratings,2,for,2,ACCEPT,NA,NA,NA,NA,NA,NA,NA,NA,NA,batch2pro,batch2pro,24,60,1,Screen 1,continueButton,response_rating_scale_likert_active,2927.5,NA,NA,Somewhat Disagree,1,0,1,0,NA,NA,NA,NA,1,statements,It is painful and makes you feel unwell,1,17/06/2021 12:37,17/06/2021 12:45,IP Address,For (I feel positively about the vaccines),Most months,Most days,51,Female,NA,"Undergraduate degree (BSc, BA)",control,14,3,For,Against
63,1659976016207,08/08/2022 16:26:56,1659976022251,1,08/08/2022 17:27:02,94826,3,task-lkrz,NA,23527518,6895752,NA,complete,NA,62f138153d91436ed6ad7161,computer,Desktop or Laptop,Windows 10,Edge 103.0.1264.49,1280x720,1280x601,NA,ITT Ratings,2,for,2,ACCEPT,NA,NA,NA,NA,NA,NA,NA,NA,NA,batch2pro,batch2pro,22,61,1,Screen 1,continueButton,response_rating_scale_likert_active,2681.1000003814697,NA,NA,Strongly Disagree,1,0,1,0,NA,NA,NA,NA,1,statements,"It is not safe, and been tested properly 
",1,17/06/2021 12:37,17/06/2021 12:45,IP Address,For (I feel positively about the vaccines),Most months,Most days,51,Female,NA,"Undergraduate degree (BSc, BA)",control,14,1,For,Against
64,1659976019935,08/08/2022 16:26:59,1659976025992,1,08/08/2022 17:27:05,94826,3,task-lkrz,NA,23527518,6895752,NA,complete,NA,62f138153d91436ed6ad7161,computer,Desktop or Laptop,Windows 10,Edge 103.0.1264.49,1280x720,1280x601,NA,ITT Ratings,2,for,2,ACCEPT,NA,NA,NA,NA,NA,NA,NA,NA,NA,batch2pro,batch2pro,15,62,1,Screen 1,continueButton,response_rating_scale_likert_active,3729.6000003814697,NA,NA,Somewhat Disagree,1,0,1,0,NA,NA,NA,NA,1,statements,They regularly come into contact with someone who is at high risk.,1,17/06/2021 12:36,17/06/2021 12:44,IP Address,For (I feel positively about the vaccines),Most months,Most months,24,Male,NA,"Undergraduate degree (BSc, BA)",control,12,3,For,For
65,1659976020004,08/08/2022 16:27:00,1659976026001,1,08/08/2022 17:27:06,94826,3,task-lkrz,NA,23527518,6895752,NA,complete,NA,62f138153d91436ed6ad7161,computer,Desktop or Laptop,Windows 10,Edge 103.0.1264.49,1280x720,1280x601,NA,ITT Ratings,2,for,2,ACCEPT,NA,NA,NA,NA,NA,NA,NA,NA,NA,batch2pro,NA,NA,END TASK,NA,NA,NA,NA,271716,NA,NA,NA,NA,0,1,0,NA,NA,NA,NA,NA,NA,NA,NA,NA,NA,NA,NA,NA,NA,NA,NA,NA,NA,NA,NA,NA,NA,NA
1,1659975861116,08/08/2022 16:24:21,1659975861361,1,08/08/2022 17:24:21,94826,3,task-lkrz,NA,23527576,6895770,NA,complete,NA,62f138707ce7d48a95b816ec,computer,Desktop or Laptop,Windows 10,Chrome 103.0.0.0,1366x768,1335x583,NA,ITT Ratings,2,for,2,ACCEPT,NA,NA,NA,NA,NA,NA,NA,NA,NA,batch2pro,NA,NA,BEGIN TASK,NA,NA,NA,NA,NA,NA,NA,NA,NA,0,1,0,NA,NA,NA,NA,NA,NA,NA,NA,NA,NA,NA,NA,NA,NA,NA,NA,NA,NA,NA,NA,NA,NA,NA
2,1659975870818,08/08/2022 16:24:30,1659975871120,1,08/08/2022 17:24:31,94826,3,task-lkrz,NA,23527576,6895770,NA,complete,NA,62f138707ce7d48a95b816ec,computer,Desktop or Laptop,Windows 10,Chrome 103.0.0.0,1366x768,1335x583,NA,ITT Ratings,2,for,2,ACCEPT,NA,NA,NA,NA,NA,NA,NA,NA,NA,batch2pro,batch2pro,1,1,1,Screen 1,advancementZone,continue_button,9709.700000047684,NA,NA,NA,NA,0,1,0,NA,NA,NA,NA,NA,instructions,NA,NA,NA,NA,NA,NA,NA,NA,NA,NA,NA,NA,NA,NA,NA,NA,NA
3,1659975891100,08/08/2022 16:24:51,1659975891383,1,08/08/2022 17:24:51,94826,3,task-lkrz,NA,23527576,6895770,NA,complete,NA,62f138707ce7d48a95b816ec,computer,Desktop or Laptop,Windows 10,Chrome 103.0.0.0,1366x768,1335x583,NA,ITT Ratings,2,for,2,ACCEPT,NA,NA,NA,NA,NA,NA,NA,NA,NA,batch2pro,batch2pro,55,1,1,Screen 1,continueButton,response_rating_scale_likert_active,20241.699999809265,NA,NA,Somewhat Disagree,1,0,1,0,NA,NA,NA,NA,1,statements,It helps protect you against the virus,1,17/06/2021 12:31,17/06/2021 12:46,IP Address,For (I feel positively about the vaccines),A few times a year,Most months,21,Female,NA,A levels,choice,19,1,For,For
4,1659975897037,08/08/2022 16:24:57,1659975897329,1,08/08/2022 17:24:57,94826,3,task-lkrz,NA,23527576,6895770,NA,complete,NA,62f138707ce7d48a95b816ec,computer,Desktop or Laptop,Windows 10,Chrome 103.0.0.0,1366x768,1335x583,NA,ITT Ratings,2,for,2,ACCEPT,NA,NA,NA,NA,NA,NA,NA,NA,NA,batch2pro,batch2pro,27,2,1,Screen 1,continueButton,response_rating_scale_likert_active,5914.899999856949,NA,NA,Agree,1,0,1,0,NA,NA,NA,NA,1,statements,We will be able to come out of lock down,1,17/06/2021 12:37,17/06/2021 12:45,IP Address,For (I feel positively about the vaccines),Most months,Most days,51,Female,NA,"Undergraduate degree (BSc, BA)",control,14,3,For,For
5,1659975904820,08/08/2022 16:25:04,1659975905116,1,08/08/2022 17:25:05,94826,3,task-lkrz,NA,23527576,6895770,NA,complete,NA,62f138707ce7d48a95b816ec,computer,Desktop or Laptop,Windows 10,Chrome 103.0.0.0,1366x768,1335x583,NA,ITT Ratings,2,for,2,ACCEPT,NA,NA,NA,NA,NA,NA,NA,NA,NA,batch2pro,batch2pro,62,3,1,Screen 1,continueButton,response_rating_scale_likert_active,7761.299999952316,NA,NA,Strongly Agree,1,0,1,0,NA,NA,NA,NA,1,statements,People in the at risk groups will feel safer going out,1,17/06/2021 12:29,17/06/2021 12:46,IP Address,For (I feel positively about the vaccines),Never,A few times a year,57,Female,NA,"Undergraduate degree (BSc, BA)",choice,20,2,For,For
6,1659975909176,08/08/2022 16:25:09,1659975909470,1,08/08/2022 17:25:09,94826,3,task-lkrz,NA,23527576,6895770,NA,complete,NA,62f138707ce7d48a95b816ec,computer,Desktop or Laptop,Windows 10,Chrome 103.0.0.0,1366x768,1335x583,NA,ITT Ratings,2,for,2,ACCEPT,NA,NA,NA,NA,NA,NA,NA,NA,NA,batch2pro,batch2pro,46,4,1,Screen 1,continueButton,response_rating_scale_likert_active,4331.800000190735,NA,NA,Somewhat Disagree,1,0,1,0,NA,NA,NA,NA,1,statements,It's not safe because the trials were rushed,1,17/06/2021 12:39,17/06/2021 12:46,IP Address,For (I feel positively about the vaccines),A few times a year,Most weeks,22,Female,NA,"GCSEs,A levels,Undergraduate degree (BSc, BA)",choice,18,1,For,Against
7,1659975913075,08/08/2022 16:25:13,1659975913379,1,08/08/2022 17:25:13,94826,3,task-lkrz,NA,23527576,6895770,NA,complete,NA,62f138707ce7d48a95b816ec,computer,Desktop or Laptop,Windows 10,Chrome 103.0.0.0,1366x768,1335x583,NA,ITT Ratings,2,for,2,ACCEPT,NA,NA,NA,NA,NA,NA,NA,NA,NA,batch2pro,batch2pro,9,5,1,Screen 1,continueButton,response_rating_scale_likert_active,3888.900000095367,NA,NA,Agree,1,0,1,0,NA,NA,NA,NA,1,statements,Personal protection,1,17/06/2021 12:39,17/06/2021 12:44,IP Address,For (I feel positively about the vaccines),Most weeks,Once or twice a year,25,Female,NA,"Undergraduate degree (BSc, BA)",control,11,3,For,For
8,1659975918328,08/08/2022 16:25:18,1659975918634,1,08/08/2022 17:25:18,94826,3,task-lkrz,NA,23527576,6895770,NA,complete,NA,62f138707ce7d48a95b816ec,computer,Desktop or Laptop,Windows 10,Chrome 103.0.0.0,1366x768,1335x583,NA,ITT Ratings,2,for,2,ACCEPT,NA,NA,NA,NA,NA,NA,NA,NA,NA,batch2pro,batch2pro,14,6,1,Screen 1,continueButton,response_rating_scale_likert_active,5240.400000095367,NA,NA,Agree,1,0,1,0,NA,NA,NA,NA,1,statements,They want to be able to travel.,1,17/06/2021 12:36,17/06/2021 12:44,IP Address,For (I feel positively about the vaccines),Most months,Most months,24,Male,NA,"Undergraduate degree (BSc, BA)",control,12,2,For,For
9,1659975923288,08/08/2022 16:25:23,1659975923595,1,08/08/2022 17:25:23,94826,3,task-lkrz,NA,23527576,6895770,NA,complete,NA,62f138707ce7d48a95b816ec,computer,Desktop or Laptop,Windows 10,Chrome 103.0.0.0,1366x768,1335x583,NA,ITT Ratings,2,for,2,ACCEPT,NA,NA,NA,NA,NA,NA,NA,NA,NA,batch2pro,batch2pro,31,7,1,Screen 1,continueButton,response_rating_scale_likert_active,4940.299999952316,NA,NA,Neither Agree nor Disagree,1,0,1,0,NA,NA,NA,NA,1,statements,Protect myself from Covid,1,17/06/2021 12:39,17/06/2021 12:45,IP Address,For (I feel positively about the vaccines),Rarely,Rarely,35,Female,NA,"Undergraduate degree (BSc, BA)",choice,15,1,For,For
10,1659975929719,08/08/2022 16:25:29,1659975930021,1,08/08/2022 17:25:30,94826,3,task-lkrz,NA,23527576,6895770,NA,complete,NA,62f138707ce7d48a95b816ec,computer,Desktop or Laptop,Windows 10,Chrome 103.0.0.0,1366x768,1335x583,NA,ITT Ratings,2,for,2,ACCEPT,NA,NA,NA,NA,NA,NA,NA,NA,NA,batch2pro,batch2pro,61,8,1,Screen 1,continueButton,response_rating_scale_likert_active,6412.099999904633,NA,NA,Somewhat Agree,1,0,1,0,NA,NA,NA,NA,1,statements,Feel safer to go out with friends or to shops if vaccinated,1,17/06/2021 12:29,17/06/2021 12:46,IP Address,For (I feel positively about the vaccines),Never,A few times a year,57,Female,NA,"Undergraduate degree (BSc, BA)",choice,20,1,For,For
11,1659975938928,08/08/2022 16:25:38,1659975939223,1,08/08/2022 17:25:39,94826,3,task-lkrz,NA,23527576,6895770,NA,complete,NA,62f138707ce7d48a95b816ec,computer,Desktop or Laptop,Windows 10,Chrome 103.0.0.0,1366x768,1335x583,NA,ITT Ratings,2,for,2,ACCEPT,NA,NA,NA,NA,NA,NA,NA,NA,NA,batch2pro,batch2pro,21,9,1,Screen 1,continueButton,response_rating_scale_likert_active,9185.099999904633,NA,NA,Disagree,1,0,1,0,NA,NA,NA,NA,1,statements,iv had all vaccines iv been offered previously so why is this different?,1,17/06/2021 12:37,17/06/2021 12:44,IP Address,For (I feel positively about the vaccines),Rarely,Rarely,33,Female,NA,A levels,choice,13,3,For,For
12,1659975951225,08/08/2022 16:25:51,1659975951535,1,08/08/2022 17:25:51,94826,3,task-lkrz,NA,23527576,6895770,NA,complete,NA,62f138707ce7d48a95b816ec,computer,Desktop or Laptop,Windows 10,Chrome 103.0.0.0,1366x768,1335x583,NA,ITT Ratings,2,for,2,ACCEPT,NA,NA,NA,NA,NA,NA,NA,NA,NA,batch2pro,batch2pro,58,10,1,Screen 1,continueButton,response_rating_scale_likert_active,12299,NA,NA,Strongly Agree,1,0,1,0,NA,NA,NA,NA,1,statements,I believe a lot of people are concerned about potential blood clots from the vaccine but I personally believe and the article I read confirmed that the risk is small.,1,17/06/2021 12:29,17/06/2021 12:46,IP Address,For (I feel positively about the vaccines),Never,A few times a year,57,Female,NA,"Undergraduate degree (BSc, BA)",choice,20,1,For,Against
13,1659975956872,08/08/2022 16:25:56,1659975957176,1,08/08/2022 17:25:57,94826,3,task-lkrz,NA,23527576,6895770,NA,complete,NA,62f138707ce7d48a95b816ec,computer,Desktop or Laptop,Windows 10,Chrome 103.0.0.0,1366x768,1335x583,NA,ITT Ratings,2,for,2,ACCEPT,NA,NA,NA,NA,NA,NA,NA,NA,NA,batch2pro,batch2pro,56,11,1,Screen 1,continueButton,response_rating_scale_likert_active,5623,NA,NA,Agree,1,0,1,0,NA,NA,NA,NA,1,statements,"In getting it, we can help protect others too",1,17/06/2021 12:31,17/06/2021 12:46,IP Address,For (I feel positively about the vaccines),A few times a year,Most months,21,Female,NA,A levels,choice,19,2,For,For
14,1659975962625,08/08/2022 16:26:02,1659975962936,1,08/08/2022 17:26:02,94826,3,task-lkrz,NA,23527576,6895770,NA,complete,NA,62f138707ce7d48a95b816ec,computer,Desktop or Laptop,Windows 10,Chrome 103.0.0.0,1366x768,1335x583,NA,ITT Ratings,2,for,2,ACCEPT,NA,NA,NA,NA,NA,NA,NA,NA,NA,batch2pro,batch2pro,15,12,1,Screen 1,continueButton,response_rating_scale_likert_active,5744.899999856949,NA,NA,Strongly Agree,1,0,1,0,NA,NA,NA,NA,1,statements,They regularly come into contact with someone who is at high risk.,1,17/06/2021 12:36,17/06/2021 12:44,IP Address,For (I feel positively about the vaccines),Most months,Most months,24,Male,NA,"Undergraduate degree (BSc, BA)",control,12,3,For,For
15,1659975967648,08/08/2022 16:26:07,1659975967945,1,08/08/2022 17:26:07,94826,3,task-lkrz,NA,23527576,6895770,NA,complete,NA,62f138707ce7d48a95b816ec,computer,Desktop or Laptop,Windows 10,Chrome 103.0.0.0,1366x768,1335x583,NA,ITT Ratings,2,for,2,ACCEPT,NA,NA,NA,NA,NA,NA,NA,NA,NA,batch2pro,batch2pro,3,13,1,Screen 1,continueButton,response_rating_scale_likert_active,4995.5,NA,NA,Somewhat Disagree,1,0,1,0,NA,NA,NA,NA,1,statements,We would like to check you are reading each argument carefully. Please select 'Somewhat Disagree' for this answer,1,NA,NA,NA,NA,NA,NA,NA,NA,NA,NA,NA,NA,check2,NA,NA
16,1659975971898,08/08/2022 16:26:11,1659975972193,1,08/08/2022 17:26:12,94826,3,task-lkrz,NA,23527576,6895770,NA,complete,NA,62f138707ce7d48a95b816ec,computer,Desktop or Laptop,Windows 10,Chrome 103.0.0.0,1366x768,1335x583,NA,ITT Ratings,2,for,2,ACCEPT,NA,NA,NA,NA,NA,NA,NA,NA,NA,batch2pro,batch2pro,41,14,1,Screen 1,continueButton,response_rating_scale_likert_active,4231.900000095367,NA,NA,Strongly Disagree,1,0,1,0,NA,NA,NA,NA,1,statements,The government might impact a chip in me through the needle or change my dna,1,17/06/2021 12:32,17/06/2021 12:45,IP Address,For (I feel positively about the vaccines),A few times a year,A few times a year,20,Female,NA,A levels,choice,17,2,For,Against
17,1659975983484,08/08/2022 16:26:23,1659975983793,1,08/08/2022 17:26:23,94826,3,task-lkrz,NA,23527576,6895770,NA,complete,NA,62f138707ce7d48a95b816ec,computer,Desktop or Laptop,Windows 10,Chrome 103.0.0.0,1366x768,1335x583,NA,ITT Ratings,2,for,2,ACCEPT,NA,NA,NA,NA,NA,NA,NA,NA,NA,batch2pro,batch2pro,30,15,1,Screen 1,continueButton,response_rating_scale_likert_active,11584,NA,NA,Somewhat Disagree,1,0,1,0,NA,NA,NA,NA,1,statements,Bad side effects mean they don't want to take it,1,17/06/2021 12:39,17/06/2021 12:45,IP Address,For (I feel positively about the vaccines),Rarely,Rarely,35,Female,NA,"Undergraduate degree (BSc, BA)",choice,15,3,For,Against
18,1659975987202,08/08/2022 16:26:27,1659975987498,1,08/08/2022 17:26:27,94826,3,task-lkrz,NA,23527576,6895770,NA,complete,NA,62f138707ce7d48a95b816ec,computer,Desktop or Laptop,Windows 10,Chrome 103.0.0.0,1366x768,1335x583,NA,ITT Ratings,2,for,2,ACCEPT,NA,NA,NA,NA,NA,NA,NA,NA,NA,batch2pro,batch2pro,44,16,1,Screen 1,continueButton,response_rating_scale_likert_active,3690.200000047684,NA,NA,Somewhat Agree,1,0,1,0,NA,NA,NA,NA,1,statements,Protecting myself.,1,17/06/2021 12:32,17/06/2021 12:45,IP Address,For (I feel positively about the vaccines),A few times a year,A few times a year,20,Female,NA,A levels,choice,17,2,For,For
19,1659975989359,08/08/2022 16:26:29,1659975989658,1,08/08/2022 17:26:29,94826,3,task-lkrz,NA,23527576,6895770,NA,complete,NA,62f138707ce7d48a95b816ec,computer,Desktop or Laptop,Windows 10,Chrome 103.0.0.0,1366x768,1335x583,NA,ITT Ratings,2,for,2,ACCEPT,NA,NA,NA,NA,NA,NA,NA,NA,NA,batch2pro,batch2pro,48,17,1,Screen 1,continueButton,response_rating_scale_likert_active,2147,NA,NA,Strongly Disagree,1,0,1,0,NA,NA,NA,NA,1,statements,I'm getting microchipped by Big Pharma!,1,17/06/2021 12:39,17/06/2021 12:46,IP Address,For (I feel positively about the vaccines),A few times a year,Most weeks,22,Female,NA,"GCSEs,A levels,Undergraduate degree (BSc, BA)",choice,18,3,For,Against
20,1659976004401,08/08/2022 16:26:44,1659976004692,1,08/08/2022 17:26:44,94826,3,task-lkrz,NA,23527576,6895770,NA,complete,NA,62f138707ce7d48a95b816ec,computer,Desktop or Laptop,Windows 10,Chrome 103.0.0.0,1366x768,1335x583,NA,ITT Ratings,2,for,2,ACCEPT,NA,NA,NA,NA,NA,NA,NA,NA,NA,batch2pro,batch2pro,49,18,1,Screen 1,continueButton,response_rating_scale_likert_active,15022.299999952316,NA,NA,Somewhat Agree,1,0,1,0,NA,NA,NA,NA,1,statements,"It will stop me from getting Covid-19. I do not want Covid-19 as it will make me sick, so this is obviously a good thing",1,17/06/2021 12:39,17/06/2021 12:46,IP Address,For (I feel positively about the vaccines),A few times a year,Most weeks,22,Female,NA,"GCSEs,A levels,Undergraduate degree (BSc, BA)",choice,18,1,For,For
21,1659976007269,08/08/2022 16:26:47,1659976007565,1,08/08/2022 17:26:47,94826,3,task-lkrz,NA,23527576,6895770,NA,complete,NA,62f138707ce7d48a95b816ec,computer,Desktop or Laptop,Windows 10,Chrome 103.0.0.0,1366x768,1335x583,NA,ITT Ratings,2,for,2,ACCEPT,NA,NA,NA,NA,NA,NA,NA,NA,NA,batch2pro,batch2pro,22,19,1,Screen 1,continueButton,response_rating_scale_likert_active,2855.7000000476837,NA,NA,Disagree,1,0,1,0,NA,NA,NA,NA,1,statements,"It is not safe, and been tested properly 
",1,17/06/2021 12:37,17/06/2021 12:45,IP Address,For (I feel positively about the vaccines),Most months,Most days,51,Female,NA,"Undergraduate degree (BSc, BA)",control,14,1,For,Against
