Event.Index,UTC.Timestamp,UTC.Date,Local.Timestamp,Local.Timezone,Local.Date,Experiment.ID,Experiment.Version,Tree.Node.Key,Repeat.Key,Schedule.ID,Participant.Private.ID,Participant.Starting.Group,Participant.Status,Participant.Completion.Code,Participant.External.Session.ID,Participant.Device.Type,Participant.Device,Participant.OS,Participant.Browser,Participant.Monitor.Size,Participant.Viewport.Size,Checkpoint,Task.Name,Task.Version,branch.69an,randomiser.8vg2,quota.bqtt,quota.rycs,quota.wtfi,quota.usve,quota.zgic,quota.f3yz,quota.r9vy,quota.tfqq,quota.3dga,quota.dtj6,Spreadsheet,Spreadsheet.Name,Spreadsheet.Row,Trial.Number,Screen.Number,Screen.Name,Zone.Name,Zone.Type,Reaction.Time,Reaction.Onset,Response.Type,Response,Attempt,Correct,Incorrect,Dishonest,X.Coordinate,Y.Coordinate,Timed.Out,randomise_blocks,randomise_trials,display,Arguments,ShowProgressBar,StartDate,EndDate,Status,prolif_check,discuss_1,read_1,age,gender,gender_4_TEXT,edu,condition,ID,arg_ID,Position,Arg_Position
1,1660063748102,09/08/2022 16:49:08,1660063747264,1,09/08/2022 17:49:07,94826,4,task-j4ag,NA,23543919,6899839,NA,complete,NA,62f28ff1156e7cf8632c1917,computer,Desktop or Laptop,Windows 10,Chrome 104.0.0.0,2560x1440,2560x1297,NA,ITT Ratings,2,for,5,NA,NA,NA,ACCEPT,NA,NA,NA,NA,NA,NA,batch5pro,NA,NA,BEGIN TASK,NA,NA,NA,NA,NA,NA,NA,NA,NA,0,1,0,NA,NA,NA,NA,NA,NA,NA,NA,NA,NA,NA,NA,NA,NA,NA,NA,NA,NA,NA,NA,NA,NA,NA
2,1660063752413,09/08/2022 16:49:12,1660063751601,1,09/08/2022 17:49:11,94826,4,task-j4ag,NA,23543919,6899839,NA,complete,NA,62f28ff1156e7cf8632c1917,computer,Desktop or Laptop,Windows 10,Chrome 104.0.0.0,2560x1440,2560x1297,NA,ITT Ratings,2,for,5,NA,NA,NA,ACCEPT,NA,NA,NA,NA,NA,NA,batch5pro,batch5pro,1,1,1,Screen 1,advancementZone,continue_button,4310.399999976158,NA,NA,NA,NA,0,1,0,NA,NA,NA,NA,NA,instructions,NA,NA,NA,NA,NA,NA,NA,NA,NA,NA,NA,NA,NA,NA,NA,NA,NA
3,1660063755559,09/08/2022 16:49:15,1660063754749,1,09/08/2022 17:49:14,94826,4,task-j4ag,NA,23543919,6899839,NA,complete,NA,62f28ff1156e7cf8632c1917,computer,Desktop or Laptop,Windows 10,Chrome 104.0.0.0,2560x1440,2560x1297,NA,ITT Ratings,2,for,5,NA,NA,NA,ACCEPT,NA,NA,NA,NA,NA,NA,batch5pro,batch5pro,61,1,1,Screen 1,continueButton,response_rating_scale_likert_active,3136,NA,NA,Agree,1,0,1,0,NA,NA,NA,NA,1,statements,That the vaccine is safe,1,17/06/2021 12:52,17/06/2021 12:57,IP Address,For (I feel positively about the vaccines),Most months,Most months,29,Female,NA,"Undergraduate degree (BSc, BA)",control,50,1,For,For
4,1660063763325,09/08/2022 16:49:23,1660063762530,1,09/08/2022 17:49:22,94826,4,task-j4ag,NA,23543919,6899839,NA,complete,NA,62f28ff1156e7cf8632c1917,computer,Desktop or Laptop,Windows 10,Chrome 104.0.0.0,2560x1440,2560x1297,NA,ITT Ratings,2,for,5,NA,NA,NA,ACCEPT,NA,NA,NA,NA,NA,NA,batch5pro,batch5pro,29,2,1,Screen 1,continueButton,response_rating_scale_likert_active,7772.600000023842,NA,NA,Somewhat Disagree,1,0,1,0,NA,NA,NA,NA,1,statements,I feel the vaccine has been developed too quickly and not tested rigorously enough to the sure that it is safe.,1,17/06/2021 12:44,17/06/2021 12:56,IP Address,For (I feel positively about the vaccines),Rarely,Rarely,40,Female,NA,"Undergraduate degree (BSc, BA)",choice,45,2,For,Against
5,1660063766711,09/08/2022 16:49:26,1660063765923,1,09/08/2022 17:49:25,94826,4,task-j4ag,NA,23543919,6899839,NA,complete,NA,62f28ff1156e7cf8632c1917,computer,Desktop or Laptop,Windows 10,Chrome 104.0.0.0,2560x1440,2560x1297,NA,ITT Ratings,2,for,5,NA,NA,NA,ACCEPT,NA,NA,NA,NA,NA,NA,batch5pro,batch5pro,13,3,1,Screen 1,continueButton,response_rating_scale_likert_active,3385.600000023842,NA,NA,Somewhat Agree,1,0,1,0,NA,NA,NA,NA,1,statements,It could protect others around me as well as myself,1,17/06/2021 12:31,17/06/2021 12:55,IP Address,For (I feel positively about the vaccines),Most days,Most weeks,23,Female,NA,"Undergraduate degree (BSc, BA)",choice,42,1,For,For
6,1660063770491,09/08/2022 16:49:30,1660063769704,1,09/08/2022 17:49:29,94826,4,task-j4ag,NA,23543919,6899839,NA,complete,NA,62f28ff1156e7cf8632c1917,computer,Desktop or Laptop,Windows 10,Chrome 104.0.0.0,2560x1440,2560x1297,NA,ITT Ratings,2,for,5,NA,NA,NA,ACCEPT,NA,NA,NA,NA,NA,NA,batch5pro,batch5pro,62,4,1,Screen 1,continueButton,response_rating_scale_likert_active,3775.100000023842,NA,NA,Somewhat Agree,1,0,1,0,NA,NA,NA,NA,1,statements,The vaccine is helping to het the Country back to a nee normal,1,17/06/2021 12:52,17/06/2021 12:57,IP Address,For (I feel positively about the vaccines),Most months,Most months,29,Female,NA,"Undergraduate degree (BSc, BA)",control,50,2,For,For
7,1660063774191,09/08/2022 16:49:34,1660063773369,1,09/08/2022 17:49:33,94826,4,task-j4ag,NA,23543919,6899839,NA,complete,NA,62f28ff1156e7cf8632c1917,computer,Desktop or Laptop,Windows 10,Chrome 104.0.0.0,2560x1440,2560x1297,NA,ITT Ratings,2,for,5,NA,NA,NA,ACCEPT,NA,NA,NA,NA,NA,NA,batch5pro,batch5pro,53,5,1,Screen 1,continueButton,response_rating_scale_likert_active,3658.200000047684,NA,NA,Somewhat Disagree,1,0,1,0,NA,NA,NA,NA,1,statements,Don't know what's in them and who created them,1,17/06/2021 12:49,17/06/2021 12:57,IP Address,For (I feel positively about the vaccines),Rarely,A few times a year,38,Male,NA,GCSEs,control,49,2,For,Against
8,1660063776993,09/08/2022 16:49:36,1660063776193,1,09/08/2022 17:49:36,94826,4,task-j4ag,NA,23543919,6899839,NA,complete,NA,62f28ff1156e7cf8632c1917,computer,Desktop or Laptop,Windows 10,Chrome 104.0.0.0,2560x1440,2560x1297,NA,ITT Ratings,2,for,5,NA,NA,NA,ACCEPT,NA,NA,NA,NA,NA,NA,batch5pro,batch5pro,39,6,1,Screen 1,continueButton,response_rating_scale_likert_active,2817,NA,NA,Somewhat Agree,1,0,1,0,NA,NA,NA,NA,1,statements,to be able to socialise and go on holiday,1,17/06/2021 12:46,17/06/2021 12:56,IP Address,For (I feel positively about the vaccines),A few times a year,A few times a year,53,Female,NA,Vocational Training / Apprenticeship,control,46,3,For,For
9,1660063780618,09/08/2022 16:49:40,1660063779830,1,09/08/2022 17:49:39,94826,4,task-j4ag,NA,23543919,6899839,NA,complete,NA,62f28ff1156e7cf8632c1917,computer,Desktop or Laptop,Windows 10,Chrome 104.0.0.0,2560x1440,2560x1297,NA,ITT Ratings,2,for,5,NA,NA,NA,ACCEPT,NA,NA,NA,NA,NA,NA,batch5pro,batch5pro,10,7,1,Screen 1,continueButton,response_rating_scale_likert_active,3630.299999952316,NA,NA,Somewhat Disagree,1,0,1,0,NA,NA,NA,NA,1,statements,They haven't had enough time to create the vaccine,1,17/06/2021 12:31,17/06/2021 12:55,IP Address,For (I feel positively about the vaccines),Most days,Most weeks,23,Female,NA,"Undergraduate degree (BSc, BA)",choice,42,1,For,Against
10,1660063783790,09/08/2022 16:49:43,1660063782989,1,09/08/2022 17:49:42,94826,4,task-j4ag,NA,23543919,6899839,NA,complete,NA,62f28ff1156e7cf8632c1917,computer,Desktop or Laptop,Windows 10,Chrome 104.0.0.0,2560x1440,2560x1297,NA,ITT Ratings,2,for,5,NA,NA,NA,ACCEPT,NA,NA,NA,NA,NA,NA,batch5pro,batch5pro,24,8,1,Screen 1,continueButton,response_rating_scale_likert_active,3152.400000095367,NA,NA,Somewhat Disagree,1,0,1,0,NA,NA,NA,NA,1,statements,The vaccine may contain something that we have not been told about.,1,17/06/2021 12:41,17/06/2021 12:56,IP Address,For (I feel positively about the vaccines),Most weeks,Most weeks,23,Male,NA,"Undergraduate degree (BSc, BA)",control,44,3,For,Against
11,1660063786079,09/08/2022 16:49:46,1660063785279,1,09/08/2022 17:49:45,94826,4,task-j4ag,NA,23543919,6899839,NA,complete,NA,62f28ff1156e7cf8632c1917,computer,Desktop or Laptop,Windows 10,Chrome 104.0.0.0,2560x1440,2560x1297,NA,ITT Ratings,2,for,5,NA,NA,NA,ACCEPT,NA,NA,NA,NA,NA,NA,batch5pro,batch5pro,8,9,1,Screen 1,continueButton,response_rating_scale_likert_active,2283.100000023842,NA,NA,Somewhat Agree,1,0,1,0,NA,NA,NA,NA,1,statements,I don't want friends or family to get sick.,1,17/06/2021 12:39,17/06/2021 12:54,IP Address,For (I feel positively about the vaccines),Rarely,Most months,38,Male,NA,"Undergraduate degree (BSc, BA)",choice,41,2,For,For
12,1660063797965,09/08/2022 16:49:57,1660063797183,1,09/08/2022 17:49:57,94826,4,task-j4ag,NA,23543919,6899839,NA,complete,NA,62f28ff1156e7cf8632c1917,computer,Desktop or Laptop,Windows 10,Chrome 104.0.0.0,2560x1440,2560x1297,NA,ITT Ratings,2,for,5,NA,NA,NA,ACCEPT,NA,NA,NA,NA,NA,NA,batch5pro,batch5pro,38,10,1,Screen 1,continueButton,response_rating_scale_likert_active,11898.5,NA,NA,Somewhat Agree,1,0,1,0,NA,NA,NA,NA,1,statements,the evidence and information relating to the vaccine is positive,1,17/06/2021 12:46,17/06/2021 12:56,IP Address,For (I feel positively about the vaccines),A few times a year,A few times a year,53,Female,NA,Vocational Training / Apprenticeship,control,46,2,For,For
13,1660063800149,09/08/2022 16:50:00,1660063799363,1,09/08/2022 17:49:59,94826,4,task-j4ag,NA,23543919,6899839,NA,complete,NA,62f28ff1156e7cf8632c1917,computer,Desktop or Laptop,Windows 10,Chrome 104.0.0.0,2560x1440,2560x1297,NA,ITT Ratings,2,for,5,NA,NA,NA,ACCEPT,NA,NA,NA,NA,NA,NA,batch5pro,batch5pro,45,11,1,Screen 1,continueButton,response_rating_scale_likert_active,2172.7999999523163,NA,NA,Agree,1,0,1,0,NA,NA,NA,NA,1,statements,"It will help protect the general population, and stop the spread of COVID-19",1,17/06/2021 12:45,17/06/2021 12:57,IP Address,For (I feel positively about the vaccines),Never,Most months,22,Female,NA,"Postgraduate degree (MSc, MA, MPhil)",control,47,3,For,For
14,1660063801581,09/08/2022 16:50:01,1660063800787,1,09/08/2022 17:50:00,94826,4,task-j4ag,NA,23543919,6899839,NA,complete,NA,62f28ff1156e7cf8632c1917,computer,Desktop or Laptop,Windows 10,Chrome 104.0.0.0,2560x1440,2560x1297,NA,ITT Ratings,2,for,5,NA,NA,NA,ACCEPT,NA,NA,NA,NA,NA,NA,batch5pro,batch5pro,26,12,1,Screen 1,continueButton,response_rating_scale_likert_active,1417.7999999523165,NA,NA,Strongly Agree,1,0,1,0,NA,NA,NA,NA,1,statements,So I can see my family and friends without fear of contracting the virus.,1,17/06/2021 12:41,17/06/2021 12:56,IP Address,For (I feel positively about the vaccines),Most weeks,Most weeks,23,Male,NA,"Undergraduate degree (BSc, BA)",control,44,2,For,For
15,1660063807176,09/08/2022 16:50:07,1660063806387,1,09/08/2022 17:50:06,94826,4,task-j4ag,NA,23543919,6899839,NA,complete,NA,62f28ff1156e7cf8632c1917,computer,Desktop or Laptop,Windows 10,Chrome 104.0.0.0,2560x1440,2560x1297,NA,ITT Ratings,2,for,5,NA,NA,NA,ACCEPT,NA,NA,NA,NA,NA,NA,batch5pro,batch5pro,23,13,1,Screen 1,continueButton,response_rating_scale_likert_active,5594.600000023842,NA,NA,Disagree,1,0,1,0,NA,NA,NA,NA,1,statements,The side-effects of taking the vaccine are not worth the hassle of receiving a vaccine.,1,17/06/2021 12:41,17/06/2021 12:56,IP Address,For (I feel positively about the vaccines),Most weeks,Most weeks,23,Male,NA,"Undergraduate degree (BSc, BA)",control,44,2,For,Against
16,1660063809920,09/08/2022 16:50:09,1660063809130,1,09/08/2022 17:50:09,94826,4,task-j4ag,NA,23543919,6899839,NA,complete,NA,62f28ff1156e7cf8632c1917,computer,Desktop or Laptop,Windows 10,Chrome 104.0.0.0,2560x1440,2560x1297,NA,ITT Ratings,2,for,5,NA,NA,NA,ACCEPT,NA,NA,NA,NA,NA,NA,batch5pro,batch5pro,22,14,1,Screen 1,continueButton,response_rating_scale_likert_active,2737,NA,NA,Disagree,1,0,1,0,NA,NA,NA,NA,1,statements,"The vaccines were rushed into distribution, and as a result of that, they may be dangerous or ineffective.",1,17/06/2021 12:41,17/06/2021 12:56,IP Address,For (I feel positively about the vaccines),Most weeks,Most weeks,23,Male,NA,"Undergraduate degree (BSc, BA)",control,44,1,For,Against
17,1660063813209,09/08/2022 16:50:13,1660063812418,1,09/08/2022 17:50:12,94826,4,task-j4ag,NA,23543919,6899839,NA,complete,NA,62f28ff1156e7cf8632c1917,computer,Desktop or Laptop,Windows 10,Chrome 104.0.0.0,2560x1440,2560x1297,NA,ITT Ratings,2,for,5,NA,NA,NA,ACCEPT,NA,NA,NA,NA,NA,NA,batch5pro,batch5pro,58,15,1,Screen 1,continueButton,response_rating_scale_likert_active,3282.2000000476837,NA,NA,Strongly Disagree,1,0,1,0,NA,NA,NA,NA,1,statements,That the vaccine isn't safe,1,17/06/2021 12:52,17/06/2021 12:57,IP Address,For (I feel positively about the vaccines),Most months,Most months,29,Female,NA,"Undergraduate degree (BSc, BA)",control,50,1,For,Against
18,1660063816347,09/08/2022 16:50:16,1660063815555,1,09/08/2022 17:50:15,94826,4,task-j4ag,NA,23543919,6899839,NA,complete,NA,62f28ff1156e7cf8632c1917,computer,Desktop or Laptop,Windows 10,Chrome 104.0.0.0,2560x1440,2560x1297,NA,ITT Ratings,2,for,5,NA,NA,NA,ACCEPT,NA,NA,NA,NA,NA,NA,batch5pro,batch5pro,12,16,1,Screen 1,continueButton,response_rating_scale_likert_active,3131.2000000476837,NA,NA,Strongly Disagree,1,0,1,0,NA,NA,NA,NA,1,statements,I could become more ill,1,17/06/2021 12:31,17/06/2021 12:55,IP Address,For (I feel positively about the vaccines),Most days,Most weeks,23,Female,NA,"Undergraduate degree (BSc, BA)",choice,42,3,For,Against
19,1660063818492,09/08/2022 16:50:18,1660063817707,1,09/08/2022 17:50:17,94826,4,task-j4ag,NA,23543919,6899839,NA,complete,NA,62f28ff1156e7cf8632c1917,computer,Desktop or Laptop,Windows 10,Chrome 104.0.0.0,2560x1440,2560x1297,NA,ITT Ratings,2,for,5,NA,NA,NA,ACCEPT,NA,NA,NA,NA,NA,NA,batch5pro,batch5pro,49,17,1,Screen 1,continueButton,response_rating_scale_likert_active,2146.2000000476837,NA,NA,Agree,1,0,1,0,NA,NA,NA,NA,1,statements,I want to be safe against covid,1,17/06/2021 12:48,17/06/2021 12:57,IP Address,For (I feel positively about the vaccines),Rarely,Most months,25,Female,NA,A levels,choice,48,1,For,For
20,1660063821703,09/08/2022 16:50:21,1660063820914,1,09/08/2022 17:50:20,94826,4,task-j4ag,NA,23543919,6899839,NA,complete,NA,62f28ff1156e7cf8632c1917,computer,Desktop or Laptop,Windows 10,Chrome 104.0.0.0,2560x1440,2560x1297,NA,ITT Ratings,2,for,5,NA,NA,NA,ACCEPT,NA,NA,NA,NA,NA,NA,batch5pro,batch5pro,50,18,1,Screen 1,continueButton,response_rating_scale_likert_active,3201.1999999284744,NA,NA,Agree,1,0,1,0,NA,NA,NA,NA,1,statements,I want to help keep other people safe from covid,1,17/06/2021 12:48,17/06/2021 12:57,IP Address,For (I feel positively about the vaccines),Rarely,Most months,25,Female,NA,A levels,choice,48,2,For,For
21,1660063824126,09/08/2022 16:50:24,1660063823315,1,09/08/2022 17:50:23,94826,4,task-j4ag,NA,23543919,6899839,NA,complete,NA,62f28ff1156e7cf8632c1917,computer,Desktop or Laptop,Windows 10,Chrome 104.0.0.0,2560x1440,2560x1297,NA,ITT Ratings,2,for,5,NA,NA,NA,ACCEPT,NA,NA,NA,NA,NA,NA,batch5pro,batch5pro,15,19,1,Screen 1,continueButton,response_rating_scale_likert_active,2395.2000000476837,NA,NA,Strongly Agree,1,0,1,0,NA,NA,NA,NA,1,statements,I could meet my family again,1,17/06/2021 12:31,17/06/2021 12:55,IP Address,For (I feel positively about the vaccines),Most days,Most weeks,23,Female,NA,"Undergraduate degree (BSc, BA)",choice,42,3,For,For
22,1660063869433,09/08/2022 16:51:09,1660063868635,1,09/08/2022 17:51:08,94826,4,task-j4ag,NA,23543919,6899839,NA,complete,NA,62f28ff1156e7cf8632c1917,computer,Desktop or Laptop,Windows 10,Chrome 104.0.0.0,2560x1440,2560x1297,NA,ITT Ratings,2,for,5,NA,NA,NA,ACCEPT,NA,NA,NA,NA,NA,NA,batch5pro,batch5pro,34,20,1,Screen 1,continueButton,response_rating_scale_likert_active,45312.89999997616,NA,NA,Somewhat Disagree,1,0,1,0,NA,NA,NA,NA,1,statements,government keeping track of us,1,17/06/2021 12:46,17/06/2021 12:56,IP Address,For (I feel positively about the vaccines),A few times a year,A few times a year,53,Female,NA,Vocational Training / Apprenticeship,control,46,1,For,Against
23,1660063872468,09/08/2022 16:51:12,1660063871680,1,09/08/2022 17:51:11,94826,4,task-j4ag,NA,23543919,6899839,NA,complete,NA,62f28ff1156e7cf8632c1917,computer,Desktop or Laptop,Windows 10,Chrome 104.0.0.0,2560x1440,2560x1297,NA,ITT Ratings,2,for,5,NA,NA,NA,ACCEPT,NA,NA,NA,NA,NA,NA,batch5pro,batch5pro,47,21,1,Screen 1,continueButton,response_rating_scale_likert_active,3037.899999976158,NA,NA,Strongly Disagree,1,0,1,0,NA,NA,NA,NA,1,statements,I don't think covid is real.,1,17/06/2021 12:48,17/06/2021 12:57,IP Address,For (I feel positively about the vaccines),Rarely,Most months,25,Female,NA,A levels,choice,48,2,For,Against
24,1660063875475,09/08/2022 16:51:15,1660063874686,1,09/08/2022 17:51:14,94826,4,task-j4ag,NA,23543919,6899839,NA,complete,NA,62f28ff1156e7cf8632c1917,computer,Desktop or Laptop,Windows 10,Chrome 104.0.0.0,2560x1440,2560x1297,NA,ITT Ratings,2,for,5,NA,NA,NA,ACCEPT,NA,NA,NA,NA,NA,NA,batch5pro,batch5pro,37,22,1,Screen 1,continueButton,response_rating_scale_likert_active,3000,NA,NA,Strongly Agree,1,0,1,0,NA,NA,NA,NA,1,statements,to protect myself and family,1,17/06/2021 12:46,17/06/2021 12:56,IP Address,For (I feel positively about the vaccines),A few times a year,A few times a year,53,Female,NA,Vocational Training / Apprenticeship,control,46,1,For,For
25,1660063882576,09/08/2022 16:51:22,1660063881775,1,09/08/2022 17:51:21,94826,4,task-j4ag,NA,23543919,6899839,NA,complete,NA,62f28ff1156e7cf8632c1917,computer,Desktop or Laptop,Windows 10,Chrome 104.0.0.0,2560x1440,2560x1297,NA,ITT Ratings,2,for,5,NA,NA,NA,ACCEPT,NA,NA,NA,NA,NA,NA,batch5pro,batch5pro,30,23,1,Screen 1,continueButton,response_rating_scale_likert_active,7076.899999976158,NA,NA,Strongly Disagree,1,0,1,0,NA,NA,NA,NA,1,statements,I believe the benefits of the vaccine do not outweigh the risks and believe that covid would be a mild disease for me.,1,17/06/2021 12:44,17/06/2021 12:56,IP Address,For (I feel positively about the vaccines),Rarely,Rarely,40,Female,NA,"Undergraduate degree (BSc, BA)",choice,45,3,For,Against
26,1660063886237,09/08/2022 16:51:26,1660063885443,1,09/08/2022 17:51:25,94826,4,task-j4ag,NA,23543919,6899839,NA,complete,NA,62f28ff1156e7cf8632c1917,computer,Desktop or Laptop,Windows 10,Chrome 104.0.0.0,2560x1440,2560x1297,NA,ITT Ratings,2,for,5,NA,NA,NA,ACCEPT,NA,NA,NA,NA,NA,NA,batch5pro,batch5pro,43,24,1,Screen 1,continueButton,response_rating_scale_likert_active,3661.6999999284744,NA,NA,Agree,1,0,1,0,NA,NA,NA,NA,1,statements,The vaccine is safe and 95% effective,1,17/06/2021 12:45,17/06/2021 12:57,IP Address,For (I feel positively about the vaccines),Never,Most months,22,Female,NA,"Postgraduate degree (MSc, MA, MPhil)",control,47,1,For,For
27,1660063888333,09/08/2022 16:51:28,1660063887535,1,09/08/2022 17:51:27,94826,4,task-j4ag,NA,23543919,6899839,NA,complete,NA,62f28ff1156e7cf8632c1917,computer,Desktop or Laptop,Windows 10,Chrome 104.0.0.0,2560x1440,2560x1297,NA,ITT Ratings,2,for,5,NA,NA,NA,ACCEPT,NA,NA,NA,NA,NA,NA,batch5pro,batch5pro,6,25,1,Screen 1,continueButton,response_rating_scale_likert_active,2085.899999976158,NA,NA,Strongly Disagree,1,0,1,0,NA,NA,NA,NA,1,statements,I don't believe in vaccines as I believe it alters my DNA which will effect my children.,1,17/06/2021 12:39,17/06/2021 12:54,IP Address,For (I feel positively about the vaccines),Rarely,Most months,38,Male,NA,"Undergraduate degree (BSc, BA)",choice,41,3,For,Against
28,1660063895157,09/08/2022 16:51:35,1660063894363,1,09/08/2022 17:51:34,94826,4,task-j4ag,NA,23543919,6899839,NA,complete,NA,62f28ff1156e7cf8632c1917,computer,Desktop or Laptop,Windows 10,Chrome 104.0.0.0,2560x1440,2560x1297,NA,ITT Ratings,2,for,5,NA,NA,NA,ACCEPT,NA,NA,NA,NA,NA,NA,batch5pro,batch5pro,48,26,1,Screen 1,continueButton,response_rating_scale_likert_active,6822,NA,NA,Disagree,1,0,1,0,NA,NA,NA,NA,1,statements,I don't want to be injected to with something that can make me ill.,1,17/06/2021 12:48,17/06/2021 12:57,IP Address,For (I feel positively about the vaccines),Rarely,Most months,25,Female,NA,A levels,choice,48,3,For,Against
29,1660063938577,09/08/2022 16:52:18,1660063937781,1,09/08/2022 17:52:17,94826,4,task-j4ag,NA,23543919,6899839,NA,complete,NA,62f28ff1156e7cf8632c1917,computer,Desktop or Laptop,Windows 10,Chrome 104.0.0.0,2560x1440,2560x1297,NA,ITT Ratings,2,for,5,NA,NA,NA,ACCEPT,NA,NA,NA,NA,NA,NA,batch5pro,batch5pro,4,27,1,Screen 1,continueButton,response_rating_scale_likert_active,43412,NA,NA,Disagree,1,0,1,0,NA,NA,NA,NA,1,statements,A defunct or manipulated research paper is usually brought out on facebook to put into question the vaccines ability to stop transmitting.,1,17/06/2021 12:39,17/06/2021 12:54,IP Address,For (I feel positively about the vaccines),Rarely,Most months,38,Male,NA,"Undergraduate degree (BSc, BA)",choice,41,1,For,Against
30,1660063944101,09/08/2022 16:52:24,1660063943305,1,09/08/2022 17:52:23,94826,4,task-j4ag,NA,23543919,6899839,NA,complete,NA,62f28ff1156e7cf8632c1917,computer,Desktop or Laptop,Windows 10,Chrome 104.0.0.0,2560x1440,2560x1297,NA,ITT Ratings,2,for,5,NA,NA,NA,ACCEPT,NA,NA,NA,NA,NA,NA,batch5pro,batch5pro,31,28,1,Screen 1,continueButton,response_rating_scale_likert_active,5518.200000047684,NA,NA,Agree,1,0,1,0,NA,NA,NA,NA,1,statements,It is a way of protecting from the serious health implications of catching covid.,1,17/06/2021 12:44,17/06/2021 12:56,IP Address,For (I feel positively about the vaccines),Rarely,Rarely,40,Female,NA,"Undergraduate degree (BSc, BA)",choice,45,1,For,For
31,1660063948406,09/08/2022 16:52:28,1660063947609,1,09/08/2022 17:52:27,94826,4,task-j4ag,NA,23543919,6899839,NA,complete,NA,62f28ff1156e7cf8632c1917,computer,Desktop or Laptop,Windows 10,Chrome 104.0.0.0,2560x1440,2560x1297,NA,ITT Ratings,2,for,5,NA,NA,NA,ACCEPT,NA,NA,NA,NA,NA,NA,batch5pro,batch5pro,35,29,1,Screen 1,continueButton,response_rating_scale_likert_active,4291.399999976158,NA,NA,Neither Agree nor Disagree,1,0,1,0,NA,NA,NA,NA,1,statements,health reasons and I can not take  it,1,17/06/2021 12:46,17/06/2021 12:56,IP Address,For (I feel positively about the vaccines),A few times a year,A few times a year,53,Female,NA,Vocational Training / Apprenticeship,control,46,2,For,Against
32,1660063951038,09/08/2022 16:52:31,1660063950234,1,09/08/2022 17:52:30,94826,4,task-j4ag,NA,23543919,6899839,NA,complete,NA,62f28ff1156e7cf8632c1917,computer,Desktop or Laptop,Windows 10,Chrome 104.0.0.0,2560x1440,2560x1297,NA,ITT Ratings,2,for,5,NA,NA,NA,ACCEPT,NA,NA,NA,NA,NA,NA,batch5pro,batch5pro,19,30,1,Screen 1,continueButton,response_rating_scale_likert_active,2619.5,NA,NA,Somewhat Agree,1,0,1,0,NA,NA,NA,NA,1,statements,I believe the vaccine is beneficial and will provide protection,1,17/06/2021 12:45,17/06/2021 12:55,IP Address,For (I feel positively about the vaccines),Never,Rarely,27,Female,NA,A levels,control,43,1,For,For
33,1660063952948,09/08/2022 16:52:32,1660063952142,1,09/08/2022 17:52:32,94826,4,task-j4ag,NA,23543919,6899839,NA,complete,NA,62f28ff1156e7cf8632c1917,computer,Desktop or Laptop,Windows 10,Chrome 104.0.0.0,2560x1440,2560x1297,NA,ITT Ratings,2,for,5,NA,NA,NA,ACCEPT,NA,NA,NA,NA,NA,NA,batch5pro,batch5pro,56,31,1,Screen 1,continueButton,response_rating_scale_likert_active,1902,NA,NA,Agree,1,0,1,0,NA,NA,NA,NA,1,statements,It's for the better good.,1,17/06/2021 12:49,17/06/2021 12:57,IP Address,For (I feel positively about the vaccines),Rarely,A few times a year,38,Male,NA,GCSEs,control,49,2,For,For
34,1660063957586,09/08/2022 16:52:37,1660063956790,1,09/08/2022 17:52:36,94826,4,task-j4ag,NA,23543919,6899839,NA,complete,NA,62f28ff1156e7cf8632c1917,computer,Desktop or Laptop,Windows 10,Chrome 104.0.0.0,2560x1440,2560x1297,NA,ITT Ratings,2,for,5,NA,NA,NA,ACCEPT,NA,NA,NA,NA,NA,NA,batch5pro,batch5pro,40,32,1,Screen 1,continueButton,response_rating_scale_likert_active,4642.5,NA,NA,Disagree,1,0,1,0,NA,NA,NA,NA,1,statements,I do not trust the people who have made the vaccine,1,17/06/2021 12:45,17/06/2021 12:57,IP Address,For (I feel positively about the vaccines),Never,Most months,22,Female,NA,"Postgraduate degree (MSc, MA, MPhil)",control,47,1,For,Against
35,1660063959812,09/08/2022 16:52:39,1660063959016,1,09/08/2022 17:52:39,94826,4,task-j4ag,NA,23543919,6899839,NA,complete,NA,62f28ff1156e7cf8632c1917,computer,Desktop or Laptop,Windows 10,Chrome 104.0.0.0,2560x1440,2560x1297,NA,ITT Ratings,2,for,5,NA,NA,NA,ACCEPT,NA,NA,NA,NA,NA,NA,batch5pro,batch5pro,55,33,1,Screen 1,continueButton,response_rating_scale_likert_active,2220.099999904633,NA,NA,Agree,1,0,1,0,NA,NA,NA,NA,1,statements,It's safe and I want to ensure people around me are safe,1,17/06/2021 12:49,17/06/2021 12:57,IP Address,For (I feel positively about the vaccines),Rarely,A few times a year,38,Male,NA,GCSEs,control,49,1,For,For
36,1660063997888,09/08/2022 16:53:17,1660063997092,1,09/08/2022 17:53:17,94826,4,task-j4ag,NA,23543919,6899839,NA,complete,NA,62f28ff1156e7cf8632c1917,computer,Desktop or Laptop,Windows 10,Chrome 104.0.0.0,2560x1440,2560x1297,NA,ITT Ratings,2,for,5,NA,NA,NA,ACCEPT,NA,NA,NA,NA,NA,NA,batch5pro,batch5pro,25,34,1,Screen 1,continueButton,response_rating_scale_likert_active,38069.5,NA,NA,Disagree,1,0,1,0,NA,NA,NA,NA,1,statements,"So that, if I do contract Covid-19 at any point, the symptoms will be minor and manageable.",1,17/06/2021 12:41,17/06/2021 12:56,IP Address,For (I feel positively about the vaccines),Most weeks,Most weeks,23,Male,NA,"Undergraduate degree (BSc, BA)",control,44,1,For,For
37,1660064002408,09/08/2022 16:53:22,1660064001614,1,09/08/2022 17:53:21,94826,4,task-j4ag,NA,23543919,6899839,NA,complete,NA,62f28ff1156e7cf8632c1917,computer,Desktop or Laptop,Windows 10,Chrome 104.0.0.0,2560x1440,2560x1297,NA,ITT Ratings,2,for,5,NA,NA,NA,ACCEPT,NA,NA,NA,NA,NA,NA,batch5pro,batch5pro,11,35,1,Screen 1,continueButton,response_rating_scale_likert_active,4515.5,NA,NA,Somewhat Disagree,1,0,1,0,NA,NA,NA,NA,1,statements,We are unsure of any possible side effects,1,17/06/2021 12:31,17/06/2021 12:55,IP Address,For (I feel positively about the vaccines),Most days,Most weeks,23,Female,NA,"Undergraduate degree (BSc, BA)",choice,42,2,For,Against
38,1660064006093,09/08/2022 16:53:26,1660064005273,1,09/08/2022 17:53:25,94826,4,task-j4ag,NA,23543919,6899839,NA,complete,NA,62f28ff1156e7cf8632c1917,computer,Desktop or Laptop,Windows 10,Chrome 104.0.0.0,2560x1440,2560x1297,NA,ITT Ratings,2,for,5,NA,NA,NA,ACCEPT,NA,NA,NA,NA,NA,NA,batch5pro,batch5pro,63,36,1,Screen 1,continueButton,response_rating_scale_likert_active,3652.399999976158,NA,NA,Somewhat Agree,1,0,1,0,NA,NA,NA,NA,1,statements,You can go on holiday,1,17/06/2021 12:52,17/06/2021 12:57,IP Address,For (I feel positively about the vaccines),Most months,Most months,29,Female,NA,"Undergraduate degree (BSc, BA)",control,50,3,For,For
39,1660064007161,09/08/2022 16:53:27,1660064006362,1,09/08/2022 17:53:26,94826,4,task-j4ag,NA,23543919,6899839,NA,complete,NA,62f28ff1156e7cf8632c1917,computer,Desktop or Laptop,Windows 10,Chrome 104.0.0.0,2560x1440,2560x1297,NA,ITT Ratings,2,for,5,NA,NA,NA,ACCEPT,NA,NA,NA,NA,NA,NA,batch5pro,batch5pro,44,37,1,Screen 1,continueButton,response_rating_scale_likert_active,1076.5,NA,NA,Somewhat Agree,1,0,1,0,NA,NA,NA,NA,1,statements,It will help protect myself,1,17/06/2021 12:45,17/06/2021 12:57,IP Address,For (I feel positively about the vaccines),Never,Most months,22,Female,NA,"Postgraduate degree (MSc, MA, MPhil)",control,47,2,For,For
40,1660064008784,09/08/2022 16:53:28,1660064007985,1,09/08/2022 17:53:27,94826,4,task-j4ag,NA,23543919,6899839,NA,complete,NA,62f28ff1156e7cf8632c1917,computer,Desktop or Laptop,Windows 10,Chrome 104.0.0.0,2560x1440,2560x1297,NA,ITT Ratings,2,for,5,NA,NA,NA,ACCEPT,NA,NA,NA,NA,NA,NA,batch5pro,batch5pro,9,38,1,Screen 1,continueButton,response_rating_scale_likert_active,1617.600000023842,NA,NA,Somewhat Agree,1,0,1,0,NA,NA,NA,NA,1,statements,I want to be able to be able to participate in group activities.,1,17/06/2021 12:39,17/06/2021 12:54,IP Address,For (I feel positively about the vaccines),Rarely,Most months,38,Male,NA,"Undergraduate degree (BSc, BA)",choice,41,3,For,For
41,1660064010474,09/08/2022 16:53:30,1660064009681,1,09/08/2022 17:53:29,94826,4,task-j4ag,NA,23543919,6899839,NA,complete,NA,62f28ff1156e7cf8632c1917,computer,Desktop or Laptop,Windows 10,Chrome 104.0.0.0,2560x1440,2560x1297,NA,ITT Ratings,2,for,5,NA,NA,NA,ACCEPT,NA,NA,NA,NA,NA,NA,batch5pro,batch5pro,59,39,1,Screen 1,continueButton,response_rating_scale_likert_active,1690.899999976158,NA,NA,Strongly Disagree,1,0,1,0,NA,NA,NA,NA,1,statements,You don't know what you are having injected,1,17/06/2021 12:52,17/06/2021 12:57,IP Address,For (I feel positively about the vaccines),Most months,Most months,29,Female,NA,"Undergraduate degree (BSc, BA)",control,50,2,For,Against
42,1660064017233,09/08/2022 16:53:37,1660064016439,1,09/08/2022 17:53:36,94826,4,task-j4ag,NA,23543919,6899839,NA,complete,NA,62f28ff1156e7cf8632c1917,computer,Desktop or Laptop,Windows 10,Chrome 104.0.0.0,2560x1440,2560x1297,NA,ITT Ratings,2,for,5,NA,NA,NA,ACCEPT,NA,NA,NA,NA,NA,NA,batch5pro,batch5pro,28,40,1,Screen 1,continueButton,response_rating_scale_likert_active,6752.399999976158,NA,NA,Somewhat Agree,1,0,1,0,NA,NA,NA,NA,1,statements,I am allergic to one of the ingredients in the vaccine.,1,17/06/2021 12:44,17/06/2021 12:56,IP Address,For (I feel positively about the vaccines),Rarely,Rarely,40,Female,NA,"Undergraduate degree (BSc, BA)",choice,45,1,For,Against
43,1660064019938,09/08/2022 16:53:39,1660064019142,1,09/08/2022 17:53:39,94826,4,task-j4ag,NA,23543919,6899839,NA,complete,NA,62f28ff1156e7cf8632c1917,computer,Desktop or Laptop,Windows 10,Chrome 104.0.0.0,2560x1440,2560x1297,NA,ITT Ratings,2,for,5,NA,NA,NA,ACCEPT,NA,NA,NA,NA,NA,NA,batch5pro,batch5pro,5,41,1,Screen 1,continueButton,response_rating_scale_likert_active,2696.599999904633,NA,NA,Strongly Disagree,1,0,1,0,NA,NA,NA,NA,1,statements,The Government are having to insure the vaccines,1,17/06/2021 12:39,17/06/2021 12:54,IP Address,For (I feel positively about the vaccines),Rarely,Most months,38,Male,NA,"Undergraduate degree (BSc, BA)",choice,41,2,For,Against
44,1660064023704,09/08/2022 16:53:43,1660064022905,1,09/08/2022 17:53:42,94826,4,task-j4ag,NA,23543919,6899839,NA,complete,NA,62f28ff1156e7cf8632c1917,computer,Desktop or Laptop,Windows 10,Chrome 104.0.0.0,2560x1440,2560x1297,NA,ITT Ratings,2,for,5,NA,NA,NA,ACCEPT,NA,NA,NA,NA,NA,NA,batch5pro,batch5pro,46,42,1,Screen 1,continueButton,response_rating_scale_likert_active,3757.1999999284744,NA,NA,Somewhat Disagree,1,0,1,0,NA,NA,NA,NA,1,statements,I don't trust what's in the vaccine.,1,17/06/2021 12:48,17/06/2021 12:57,IP Address,For (I feel positively about the vaccines),Rarely,Most months,25,Female,NA,A levels,choice,48,1,For,Against
45,1660064026163,09/08/2022 16:53:46,1660064025365,1,09/08/2022 17:53:45,94826,4,task-j4ag,NA,23543919,6899839,NA,complete,NA,62f28ff1156e7cf8632c1917,computer,Desktop or Laptop,Windows 10,Chrome 104.0.0.0,2560x1440,2560x1297,NA,ITT Ratings,2,for,5,NA,NA,NA,ACCEPT,NA,NA,NA,NA,NA,NA,batch5pro,batch5pro,20,43,1,Screen 1,continueButton,response_rating_scale_likert_active,2454,NA,NA,Neither Agree nor Disagree,1,0,1,0,NA,NA,NA,NA,1,statements,I believe all vaccines help,1,17/06/2021 12:45,17/06/2021 12:55,IP Address,For (I feel positively about the vaccines),Never,Rarely,27,Female,NA,A levels,control,43,2,For,For
46,1660064031172,09/08/2022 16:53:51,1660064030373,1,09/08/2022 17:53:50,94826,4,task-j4ag,NA,23543919,6899839,NA,complete,NA,62f28ff1156e7cf8632c1917,computer,Desktop or Laptop,Windows 10,Chrome 104.0.0.0,2560x1440,2560x1297,NA,ITT Ratings,2,for,5,NA,NA,NA,ACCEPT,NA,NA,NA,NA,NA,NA,batch5pro,batch5pro,2,44,1,Screen 1,continueButton,response_rating_scale_likert_active,5001.600000023842,NA,NA,Somewhat Agree,1,0,1,0,NA,NA,NA,NA,1,statements,We would like to check you are reading each argument carefully. Please select 'Somewhat Agree' for this answer,1,NA,NA,NA,NA,NA,NA,NA,NA,NA,NA,NA,NA,check1,NA,NA
47,1660064032867,09/08/2022 16:53:52,1660064032069,1,09/08/2022 17:53:52,94826,4,task-j4ag,NA,23543919,6899839,NA,complete,NA,62f28ff1156e7cf8632c1917,computer,Desktop or Laptop,Windows 10,Chrome 104.0.0.0,2560x1440,2560x1297,NA,ITT Ratings,2,for,5,NA,NA,NA,ACCEPT,NA,NA,NA,NA,NA,NA,batch5pro,batch5pro,33,45,1,Screen 1,continueButton,response_rating_scale_likert_active,1689.7999999523165,NA,NA,Somewhat Agree,1,0,1,0,NA,NA,NA,NA,1,statements,I believe it is safe.,1,17/06/2021 12:44,17/06/2021 12:56,IP Address,For (I feel positively about the vaccines),Rarely,Rarely,40,Female,NA,"Undergraduate degree (BSc, BA)",choice,45,3,For,For
48,1660064035036,09/08/2022 16:53:55,1660064034230,1,09/08/2022 17:53:54,94826,4,task-j4ag,NA,23543919,6899839,NA,complete,NA,62f28ff1156e7cf8632c1917,computer,Desktop or Laptop,Windows 10,Chrome 104.0.0.0,2560x1440,2560x1297,NA,ITT Ratings,2,for,5,NA,NA,NA,ACCEPT,NA,NA,NA,NA,NA,NA,batch5pro,batch5pro,21,46,1,Screen 1,continueButton,response_rating_scale_likert_active,2153.5,NA,NA,Somewhat Agree,1,0,1,0,NA,NA,NA,NA,1,statements,I want to be protected against covid,1,17/06/2021 12:45,17/06/2021 12:55,IP Address,For (I feel positively about the vaccines),Never,Rarely,27,Female,NA,A levels,control,43,3,For,For
49,1660064037385,09/08/2022 16:53:57,1660064036584,1,09/08/2022 17:53:56,94826,4,task-j4ag,NA,23543919,6899839,NA,complete,NA,62f28ff1156e7cf8632c1917,computer,Desktop or Laptop,Windows 10,Chrome 104.0.0.0,2560x1440,2560x1297,NA,ITT Ratings,2,for,5,NA,NA,NA,ACCEPT,NA,NA,NA,NA,NA,NA,batch5pro,batch5pro,54,47,1,Screen 1,continueButton,response_rating_scale_likert_active,2348.5,NA,NA,Strongly Disagree,1,0,1,0,NA,NA,NA,NA,1,statements,I would rather risk it and rely on immune system.,1,17/06/2021 12:49,17/06/2021 12:57,IP Address,For (I feel positively about the vaccines),Rarely,A few times a year,38,Male,NA,GCSEs,control,49,3,For,Against
50,1660064040122,09/08/2022 16:54:00,1660064039330,1,09/08/2022 17:53:59,94826,4,task-j4ag,NA,23543919,6899839,NA,complete,NA,62f28ff1156e7cf8632c1917,computer,Desktop or Laptop,Windows 10,Chrome 104.0.0.0,2560x1440,2560x1297,NA,ITT Ratings,2,for,5,NA,NA,NA,ACCEPT,NA,NA,NA,NA,NA,NA,batch5pro,batch5pro,52,48,1,Screen 1,continueButton,response_rating_scale_likert_active,2740,NA,NA,Disagree,1,0,1,0,NA,NA,NA,NA,1,statements,Unsafe and could cause side effects,1,17/06/2021 12:49,17/06/2021 12:57,IP Address,For (I feel positively about the vaccines),Rarely,A few times a year,38,Male,NA,GCSEs,control,49,1,For,Against
51,1660064042150,09/08/2022 16:54:02,1660064041358,1,09/08/2022 17:54:01,94826,4,task-j4ag,NA,23543919,6899839,NA,complete,NA,62f28ff1156e7cf8632c1917,computer,Desktop or Laptop,Windows 10,Chrome 104.0.0.0,2560x1440,2560x1297,NA,ITT Ratings,2,for,5,NA,NA,NA,ACCEPT,NA,NA,NA,NA,NA,NA,batch5pro,batch5pro,17,49,1,Screen 1,continueButton,response_rating_scale_likert_active,2021.8000000715256,NA,NA,Strongly Disagree,1,0,1,0,NA,NA,NA,NA,1,statements,I am against vaccinations,1,17/06/2021 12:45,17/06/2021 12:55,IP Address,For (I feel positively about the vaccines),Never,Rarely,27,Female,NA,A levels,control,43,2,For,Against
52,1660064043878,09/08/2022 16:54:03,1660064043082,1,09/08/2022 17:54:03,94826,4,task-j4ag,NA,23543919,6899839,NA,complete,NA,62f28ff1156e7cf8632c1917,computer,Desktop or Laptop,Windows 10,Chrome 104.0.0.0,2560x1440,2560x1297,NA,ITT Ratings,2,for,5,NA,NA,NA,ACCEPT,NA,NA,NA,NA,NA,NA,batch5pro,batch5pro,18,50,1,Screen 1,continueButton,response_rating_scale_likert_active,1718.4000000953674,NA,NA,Strongly Disagree,1,0,1,0,NA,NA,NA,NA,1,statements,I do not believe the vaccination is safe,1,17/06/2021 12:45,17/06/2021 12:55,IP Address,For (I feel positively about the vaccines),Never,Rarely,27,Female,NA,A levels,control,43,3,For,Against
53,1660064046237,09/08/2022 16:54:06,1660064045440,1,09/08/2022 17:54:05,94826,4,task-j4ag,NA,23543919,6899839,NA,complete,NA,62f28ff1156e7cf8632c1917,computer,Desktop or Laptop,Windows 10,Chrome 104.0.0.0,2560x1440,2560x1297,NA,ITT Ratings,2,for,5,NA,NA,NA,ACCEPT,NA,NA,NA,NA,NA,NA,batch5pro,batch5pro,57,51,1,Screen 1,continueButton,response_rating_scale_likert_active,2352.7999999523163,NA,NA,Strongly Agree,1,0,1,0,NA,NA,NA,NA,1,statements,To assist in getting through this pandemic,1,17/06/2021 12:49,17/06/2021 12:57,IP Address,For (I feel positively about the vaccines),Rarely,A few times a year,38,Male,NA,GCSEs,control,49,3,For,For
54,1660064060076,09/08/2022 16:54:20,1660064059279,1,09/08/2022 17:54:19,94826,4,task-j4ag,NA,23543919,6899839,NA,complete,NA,62f28ff1156e7cf8632c1917,computer,Desktop or Laptop,Windows 10,Chrome 104.0.0.0,2560x1440,2560x1297,NA,ITT Ratings,2,for,5,NA,NA,NA,ACCEPT,NA,NA,NA,NA,NA,NA,batch5pro,batch5pro,36,52,1,Screen 1,continueButton,response_rating_scale_likert_active,13832.699999928474,NA,NA,Disagree,1,0,1,0,NA,NA,NA,NA,1,statements,vaccine safety as it has not been out for long,1,17/06/2021 12:46,17/06/2021 12:56,IP Address,For (I feel positively about the vaccines),A few times a year,A few times a year,53,Female,NA,Vocational Training / Apprenticeship,control,46,3,For,Against
55,1660064067173,09/08/2022 16:54:27,1660064066376,1,09/08/2022 17:54:26,94826,4,task-j4ag,NA,23543919,6899839,NA,complete,NA,62f28ff1156e7cf8632c1917,computer,Desktop or Laptop,Windows 10,Chrome 104.0.0.0,2560x1440,2560x1297,NA,ITT Ratings,2,for,5,NA,NA,NA,ACCEPT,NA,NA,NA,NA,NA,NA,batch5pro,batch5pro,51,53,1,Screen 1,continueButton,response_rating_scale_likert_active,7091.100000023842,NA,NA,Somewhat Agree,1,0,1,0,NA,NA,NA,NA,1,statements,I have been told it's the right thing by my doctor,1,17/06/2021 12:48,17/06/2021 12:57,IP Address,For (I feel positively about the vaccines),Rarely,Most months,25,Female,NA,A levels,choice,48,3,For,For
56,1660064068853,09/08/2022 16:54:28,1660064068065,1,09/08/2022 17:54:28,94826,4,task-j4ag,NA,23543919,6899839,NA,complete,NA,62f28ff1156e7cf8632c1917,computer,Desktop or Laptop,Windows 10,Chrome 104.0.0.0,2560x1440,2560x1297,NA,ITT Ratings,2,for,5,NA,NA,NA,ACCEPT,NA,NA,NA,NA,NA,NA,batch5pro,batch5pro,14,54,1,Screen 1,continueButton,response_rating_scale_likert_active,1683.2000000476835,NA,NA,Somewhat Agree,1,0,1,0,NA,NA,NA,NA,1,statements,It would mean that the rate of infection would go down,1,17/06/2021 12:31,17/06/2021 12:55,IP Address,For (I feel positively about the vaccines),Most days,Most weeks,23,Female,NA,"Undergraduate degree (BSc, BA)",choice,42,2,For,For
57,1660064070136,09/08/2022 16:54:30,1660064069347,1,09/08/2022 17:54:29,94826,4,task-j4ag,NA,23543919,6899839,NA,complete,NA,62f28ff1156e7cf8632c1917,computer,Desktop or Laptop,Windows 10,Chrome 104.0.0.0,2560x1440,2560x1297,NA,ITT Ratings,2,for,5,NA,NA,NA,ACCEPT,NA,NA,NA,NA,NA,NA,batch5pro,batch5pro,42,55,1,Screen 1,continueButton,response_rating_scale_likert_active,1275.0999999046326,NA,NA,Somewhat Agree,1,0,1,0,NA,NA,NA,NA,1,statements,I have a weak immune system,1,17/06/2021 12:45,17/06/2021 12:57,IP Address,For (I feel positively about the vaccines),Never,Most months,22,Female,NA,"Postgraduate degree (MSc, MA, MPhil)",control,47,3,For,Against
58,1660064073567,09/08/2022 16:54:33,1660064072779,1,09/08/2022 17:54:32,94826,4,task-j4ag,NA,23543919,6899839,NA,complete,NA,62f28ff1156e7cf8632c1917,computer,Desktop or Laptop,Windows 10,Chrome 104.0.0.0,2560x1440,2560x1297,NA,ITT Ratings,2,for,5,NA,NA,NA,ACCEPT,NA,NA,NA,NA,NA,NA,batch5pro,batch5pro,32,56,1,Screen 1,continueButton,response_rating_scale_likert_active,3426.399999976158,NA,NA,Agree,1,0,1,0,NA,NA,NA,NA,1,statements,It protects me and others around me by reducing the likelihood of me spreading the disease to others.,1,17/06/2021 12:44,17/06/2021 12:56,IP Address,For (I feel positively about the vaccines),Rarely,Rarely,40,Female,NA,"Undergraduate degree (BSc, BA)",choice,45,2,For,For
59,1660064077459,09/08/2022 16:54:37,1660064076668,1,09/08/2022 17:54:36,94826,4,task-j4ag,NA,23543919,6899839,NA,complete,NA,62f28ff1156e7cf8632c1917,computer,Desktop or Laptop,Windows 10,Chrome 104.0.0.0,2560x1440,2560x1297,NA,ITT Ratings,2,for,5,NA,NA,NA,ACCEPT,NA,NA,NA,NA,NA,NA,batch5pro,batch5pro,3,57,1,Screen 1,continueButton,response_rating_scale_likert_active,3882.899999976158,NA,NA,Somewhat Disagree,1,0,1,0,NA,NA,NA,NA,1,statements,We would like to check you are reading each argument carefully. Please select 'Somewhat Disagree' for this answer,1,NA,NA,NA,NA,NA,NA,NA,NA,NA,NA,NA,NA,check2,NA,NA
60,1660064080039,09/08/2022 16:54:40,1660064079246,1,09/08/2022 17:54:39,94826,4,task-j4ag,NA,23543919,6899839,NA,complete,NA,62f28ff1156e7cf8632c1917,computer,Desktop or Laptop,Windows 10,Chrome 104.0.0.0,2560x1440,2560x1297,NA,ITT Ratings,2,for,5,NA,NA,NA,ACCEPT,NA,NA,NA,NA,NA,NA,batch5pro,batch5pro,27,58,1,Screen 1,continueButton,response_rating_scale_likert_active,2572.1999999284744,NA,NA,Agree,1,0,1,0,NA,NA,NA,NA,1,statements,So that I can travel to different countries without hassle.,1,17/06/2021 12:41,17/06/2021 12:56,IP Address,For (I feel positively about the vaccines),Most weeks,Most weeks,23,Male,NA,"Undergraduate degree (BSc, BA)",control,44,3,For,For
61,1660064084479,09/08/2022 16:54:44,1660064083679,1,09/08/2022 17:54:43,94826,4,task-j4ag,NA,23543919,6899839,NA,complete,NA,62f28ff1156e7cf8632c1917,computer,Desktop or Laptop,Windows 10,Chrome 104.0.0.0,2560x1440,2560x1297,NA,ITT Ratings,2,for,5,NA,NA,NA,ACCEPT,NA,NA,NA,NA,NA,NA,batch5pro,batch5pro,7,59,1,Screen 1,continueButton,response_rating_scale_likert_active,4426.800000071526,NA,NA,Somewhat Agree,1,0,1,0,NA,NA,NA,NA,1,statements,They don't want to get sick,1,17/06/2021 12:39,17/06/2021 12:54,IP Address,For (I feel positively about the vaccines),Rarely,Most months,38,Male,NA,"Undergraduate degree (BSc, BA)",choice,41,1,For,For
62,1660064087037,09/08/2022 16:54:47,1660064086242,1,09/08/2022 17:54:46,94826,4,task-j4ag,NA,23543919,6899839,NA,complete,NA,62f28ff1156e7cf8632c1917,computer,Desktop or Laptop,Windows 10,Chrome 104.0.0.0,2560x1440,2560x1297,NA,ITT Ratings,2,for,5,NA,NA,NA,ACCEPT,NA,NA,NA,NA,NA,NA,batch5pro,batch5pro,16,60,1,Screen 1,continueButton,response_rating_scale_likert_active,2557.2000000476837,NA,NA,Strongly Disagree,1,0,1,0,NA,NA,NA,NA,1,statements,I do not believe in the benefit of the vaccine,1,17/06/2021 12:45,17/06/2021 12:55,IP Address,For (I feel positively about the vaccines),Never,Rarely,27,Female,NA,A levels,control,43,1,For,Against
63,1660064088582,09/08/2022 16:54:48,1660064087794,1,09/08/2022 17:54:47,94826,4,task-j4ag,NA,23543919,6899839,NA,complete,NA,62f28ff1156e7cf8632c1917,computer,Desktop or Laptop,Windows 10,Chrome 104.0.0.0,2560x1440,2560x1297,NA,ITT Ratings,2,for,5,NA,NA,NA,ACCEPT,NA,NA,NA,NA,NA,NA,batch5pro,batch5pro,60,61,1,Screen 1,continueButton,response_rating_scale_likert_active,1547.3000000715256,NA,NA,Strongly Disagree,1,0,1,0,NA,NA,NA,NA,1,statements,I've already had covid,1,17/06/2021 12:52,17/06/2021 12:57,IP Address,For (I feel positively about the vaccines),Most months,Most months,29,Female,NA,"Undergraduate degree (BSc, BA)",control,50,3,For,Against
64,1660064091898,09/08/2022 16:54:51,1660064091112,1,09/08/2022 17:54:51,94826,4,task-j4ag,NA,23543919,6899839,NA,complete,NA,62f28ff1156e7cf8632c1917,computer,Desktop or Laptop,Windows 10,Chrome 104.0.0.0,2560x1440,2560x1297,NA,ITT Ratings,2,for,5,NA,NA,NA,ACCEPT,NA,NA,NA,NA,NA,NA,batch5pro,batch5pro,41,62,1,Screen 1,continueButton,response_rating_scale_likert_active,3313.7999999523163,NA,NA,Strongly Disagree,1,0,1,0,NA,NA,NA,NA,1,statements,I am under the impression that vaccinations and autism are linked,1,17/06/2021 12:45,17/06/2021 12:57,IP Address,For (I feel positively about the vaccines),Never,Most months,22,Female,NA,"Postgraduate degree (MSc, MA, MPhil)",control,47,2,For,Against
65,1660064091964,09/08/2022 16:54:51,1660064091115,1,09/08/2022 17:54:51,94826,4,task-j4ag,NA,23543919,6899839,NA,complete,NA,62f28ff1156e7cf8632c1917,computer,Desktop or Laptop,Windows 10,Chrome 104.0.0.0,2560x1440,2560x1297,NA,ITT Ratings,2,for,5,NA,NA,NA,ACCEPT,NA,NA,NA,NA,NA,NA,batch5pro,NA,NA,END TASK,NA,NA,NA,NA,343851,NA,NA,NA,NA,0,1,0,NA,NA,NA,NA,NA,NA,NA,NA,NA,NA,NA,NA,NA,NA,NA,NA,NA,NA,NA,NA,NA,NA,NA
END OF FILE,NA,NA,NA,NA,NA,NA,NA,NA,NA,NA,NA,NA,NA,NA,NA,NA,NA,NA,NA,NA,NA,NA,NA,NA,NA,NA,NA,NA,NA,NA,NA,NA,NA,NA,NA,NA,NA,NA,NA,NA,NA,NA,NA,NA,NA,NA,NA,NA,NA,NA,NA,NA,NA,NA,NA,NA,NA,NA,NA,NA,NA,NA,NA,NA,NA,NA,NA,NA,NA,NA,NA,NA,NA,NA,NA
