Event.Index,UTC.Timestamp,UTC.Date,Local.Timestamp,Local.Timezone,Local.Date,Experiment.ID,Experiment.Version,Tree.Node.Key,Repeat.Key,Schedule.ID,Participant.Private.ID,Participant.Starting.Group,Participant.Status,Participant.Completion.Code,Participant.External.Session.ID,Participant.Device.Type,Participant.Device,Participant.OS,Participant.Browser,Participant.Monitor.Size,Participant.Viewport.Size,Checkpoint,Task.Name,Task.Version,branch.69an,randomiser.8vg2,quota.bqtt,quota.rycs,quota.wtfi,quota.usve,quota.zgic,quota.f3yz,quota.r9vy,quota.tfqq,quota.3dga,quota.dtj6,Spreadsheet,Spreadsheet.Name,Spreadsheet.Row,Trial.Number,Screen.Number,Screen.Name,Zone.Name,Zone.Type,Reaction.Time,Reaction.Onset,Response.Type,Response,Attempt,Correct,Incorrect,Dishonest,X.Coordinate,Y.Coordinate,Timed.Out,randomise_blocks,randomise_trials,display,Arguments,ShowProgressBar,StartDate,EndDate,Status,prolif_check,discuss_1,read_1,age,gender,gender_4_TEXT,edu,condition,ID,arg_ID,Position,Arg_Position
1,1659975645249,08/08/2022 16:20:45,1659975645090,1,08/08/2022 17:20:45,94826,3,task-k2dt,NA,23527482,6895740,NA,complete,NA,62f13783e8f29773d3e9c2df,computer,Desktop or Laptop,Mac OS 10.15.6,Safari 15.5,834x1112,1112x731,NA,ITT Ratings,2,for,7,NA,NA,NA,NA,NA,ACCEPT,NA,NA,NA,NA,batch7pro,NA,NA,BEGIN TASK,NA,NA,NA,NA,NA,NA,NA,NA,NA,0,1,0,NA,NA,NA,NA,NA,NA,NA,NA,NA,NA,NA,NA,NA,NA,NA,NA,NA,NA,NA,NA,NA,NA,NA
2,1659975655100,08/08/2022 16:20:55,1659975654982,1,08/08/2022 17:20:54,94826,3,task-k2dt,NA,23527482,6895740,NA,complete,NA,62f13783e8f29773d3e9c2df,computer,Desktop or Laptop,Mac OS 10.15.6,Safari 15.5,834x1112,1112x731,NA,ITT Ratings,2,for,7,NA,NA,NA,NA,NA,ACCEPT,NA,NA,NA,NA,batch7pro,batch7pro,1,1,1,Screen 1,advancementZone,continue_button,9856,NA,NA,NA,NA,0,1,0,NA,NA,NA,NA,NA,instructions,NA,NA,NA,NA,NA,NA,NA,NA,NA,NA,NA,NA,NA,NA,NA,NA,NA
3,1659975663696,08/08/2022 16:21:03,1659975663562,1,08/08/2022 17:21:03,94826,3,task-k2dt,NA,23527482,6895740,NA,complete,NA,62f13783e8f29773d3e9c2df,computer,Desktop or Laptop,Mac OS 10.15.6,Safari 15.5,834x1112,1112x731,NA,ITT Ratings,2,for,7,NA,NA,NA,NA,NA,ACCEPT,NA,NA,NA,NA,batch7pro,batch7pro,2,1,1,Screen 1,continueButton,response_rating_scale_likert_active,8562.999999999998,NA,NA,Somewhat Agree,1,0,1,0,NA,NA,NA,NA,1,statements,We would like to check you are reading each argument carefully. Please select 'Somewhat Agree' for this answer,1,NA,NA,NA,NA,NA,NA,NA,NA,NA,NA,NA,NA,check1,NA,NA
4,1659975696116,08/08/2022 16:21:36,1659975695972,1,08/08/2022 17:21:35,94826,3,task-k2dt,NA,23527482,6895740,NA,complete,NA,62f13783e8f29773d3e9c2df,computer,Desktop or Laptop,Mac OS 10.15.6,Safari 15.5,834x1112,1112x731,NA,ITT Ratings,2,for,7,NA,NA,NA,NA,NA,ACCEPT,NA,NA,NA,NA,batch7pro,batch7pro,51,2,1,Screen 1,continueButton,response_rating_scale_likert_active,32398.000000000007,NA,NA,Somewhat Agree,1,0,1,0,NA,NA,NA,NA,1,statements,social presser to get one,1,17/06/2021 12:49,17/06/2021 13:02,IP Address,For (I feel positively about the vaccines),Most months,A few times a year,35,Male,NA,Vocational Training / Apprenticeship,control,68,3,For,For
5,1659975700744,08/08/2022 16:21:40,1659975700594,1,08/08/2022 17:21:40,94826,3,task-k2dt,NA,23527482,6895740,NA,complete,NA,62f13783e8f29773d3e9c2df,computer,Desktop or Laptop,Mac OS 10.15.6,Safari 15.5,834x1112,1112x731,NA,ITT Ratings,2,for,7,NA,NA,NA,NA,NA,ACCEPT,NA,NA,NA,NA,batch7pro,batch7pro,32,3,1,Screen 1,continueButton,response_rating_scale_likert_active,4608.999999999993,NA,NA,Strongly Agree,1,0,1,0,NA,NA,NA,NA,1,statements,I want to protect vulnerable family members,1,17/06/2021 12:55,17/06/2021 13:01,IP Address,For (I feel positively about the vaccines),Never,A few times a year,36,Male,NA,GCSEs,choice,65,2,For,For
6,1659975703846,08/08/2022 16:21:43,1659975703684,1,08/08/2022 17:21:43,94826,3,task-k2dt,NA,23527482,6895740,NA,complete,NA,62f13783e8f29773d3e9c2df,computer,Desktop or Laptop,Mac OS 10.15.6,Safari 15.5,834x1112,1112x731,NA,ITT Ratings,2,for,7,NA,NA,NA,NA,NA,ACCEPT,NA,NA,NA,NA,batch7pro,batch7pro,56,4,1,Screen 1,continueButton,response_rating_scale_likert_active,3069,NA,NA,Agree,1,0,1,0,NA,NA,NA,NA,1,statements,It will mean our lives can start to get back to normal,1,17/06/2021 12:50,17/06/2021 13:02,IP Address,For (I feel positively about the vaccines),Rarely,Once or twice a year,42,Female,NA,"Undergraduate degree (BSc, BA)",choice,69,2,For,For
7,1659975706377,08/08/2022 16:21:46,1659975706246,1,08/08/2022 17:21:46,94826,3,task-k2dt,NA,23527482,6895740,NA,complete,NA,62f13783e8f29773d3e9c2df,computer,Desktop or Laptop,Mac OS 10.15.6,Safari 15.5,834x1112,1112x731,NA,ITT Ratings,2,for,7,NA,NA,NA,NA,NA,ACCEPT,NA,NA,NA,NA,batch7pro,batch7pro,20,5,1,Screen 1,continueButton,response_rating_scale_likert_active,2545,NA,NA,Somewhat Agree,1,0,1,0,NA,NA,NA,NA,1,statements,I want to have more freedoms again,1,17/06/2021 12:48,17/06/2021 13:00,IP Address,For (I feel positively about the vaccines),Rarely,A few times a year,38,Female,NA,"Postgraduate degree (MSc, MA, MPhil)",control,63,2,For,For
8,1659975711399,08/08/2022 16:21:51,1659975711265,1,08/08/2022 17:21:51,94826,3,task-k2dt,NA,23527482,6895740,NA,complete,NA,62f13783e8f29773d3e9c2df,computer,Desktop or Laptop,Mac OS 10.15.6,Safari 15.5,834x1112,1112x731,NA,ITT Ratings,2,for,7,NA,NA,NA,NA,NA,ACCEPT,NA,NA,NA,NA,batch7pro,batch7pro,52,6,1,Screen 1,continueButton,response_rating_scale_likert_active,4999.000000000015,NA,NA,Disagree,1,0,1,0,NA,NA,NA,NA,1,statements,It was developed too quickly so doesn’t work well,1,17/06/2021 12:50,17/06/2021 13:02,IP Address,For (I feel positively about the vaccines),Rarely,Once or twice a year,42,Female,NA,"Undergraduate degree (BSc, BA)",choice,69,1,For,Against
9,1659975720698,08/08/2022 16:22:00,1659975720577,1,08/08/2022 17:22:00,94826,3,task-k2dt,NA,23527482,6895740,NA,complete,NA,62f13783e8f29773d3e9c2df,computer,Desktop or Laptop,Mac OS 10.15.6,Safari 15.5,834x1112,1112x731,NA,ITT Ratings,2,for,7,NA,NA,NA,NA,NA,ACCEPT,NA,NA,NA,NA,batch7pro,batch7pro,37,7,1,Screen 1,continueButton,response_rating_scale_likert_active,9298,NA,NA,Agree,1,0,1,0,NA,NA,NA,NA,1,statements,I'm classed in a vulnerable category so getting the vaccine would help reduce the risk f me catching it and getting serious symptoms,1,17/06/2021 12:47,17/06/2021 13:01,IP Address,For (I feel positively about the vaccines),Most months,Most weeks,18,Male,NA,A levels,choice,66,1,For,For
10,1659975723436,08/08/2022 16:22:03,1659975723311,1,08/08/2022 17:22:03,94826,3,task-k2dt,NA,23527482,6895740,NA,complete,NA,62f13783e8f29773d3e9c2df,computer,Desktop or Laptop,Mac OS 10.15.6,Safari 15.5,834x1112,1112x731,NA,ITT Ratings,2,for,7,NA,NA,NA,NA,NA,ACCEPT,NA,NA,NA,NA,batch7pro,batch7pro,13,8,1,Screen 1,continueButton,response_rating_scale_likert_active,2718,NA,NA,Strongly Agree,1,0,1,0,NA,NA,NA,NA,1,statements,I want to protect myself from covid,1,17/06/2021 12:55,17/06/2021 13:00,IP Address,For (I feel positively about the vaccines),A few times a year,Most months,26,Female,NA,"Postgraduate degree (MSc, MA, MPhil)",control,62,1,For,For
11,1659975725371,08/08/2022 16:22:05,1659975725245,1,08/08/2022 17:22:05,94826,3,task-k2dt,NA,23527482,6895740,NA,complete,NA,62f13783e8f29773d3e9c2df,computer,Desktop or Laptop,Mac OS 10.15.6,Safari 15.5,834x1112,1112x731,NA,ITT Ratings,2,for,7,NA,NA,NA,NA,NA,ACCEPT,NA,NA,NA,NA,batch7pro,batch7pro,27,9,1,Screen 1,continueButton,response_rating_scale_likert_active,1919,NA,NA,Strongly Agree,1,0,1,0,NA,NA,NA,NA,1,statements,It will help protect me and others around me,1,17/06/2021 12:48,17/06/2021 13:01,IP Address,For (I feel positively about the vaccines),Rarely,Most weeks,27,Female,NA,A levels,choice,64,3,For,For
12,1659975728875,08/08/2022 16:22:08,1659975728753,1,08/08/2022 17:22:08,94826,3,task-k2dt,NA,23527482,6895740,NA,complete,NA,62f13783e8f29773d3e9c2df,computer,Desktop or Laptop,Mac OS 10.15.6,Safari 15.5,834x1112,1112x731,NA,ITT Ratings,2,for,7,NA,NA,NA,NA,NA,ACCEPT,NA,NA,NA,NA,batch7pro,batch7pro,58,10,1,Screen 1,continueButton,response_rating_scale_likert_active,3491,NA,NA,Disagree,1,0,1,0,NA,NA,NA,NA,1,statements,I don't know whats in them - how can they produce something effective so quickly,1,17/06/2021 12:56,17/06/2021 13:02,IP Address,For (I feel positively about the vaccines),Most months,Most days,21,Female,NA,A levels,choice,70,1,For,Against
13,1659975731813,08/08/2022 16:22:11,1659975731695,1,08/08/2022 17:22:11,94826,3,task-k2dt,NA,23527482,6895740,NA,complete,NA,62f13783e8f29773d3e9c2df,computer,Desktop or Laptop,Mac OS 10.15.6,Safari 15.5,834x1112,1112x731,NA,ITT Ratings,2,for,7,NA,NA,NA,NA,NA,ACCEPT,NA,NA,NA,NA,batch7pro,batch7pro,61,11,1,Screen 1,continueButton,response_rating_scale_likert_active,2928,NA,NA,Agree,1,0,1,0,NA,NA,NA,NA,1,statements,I want everything to go back to normal,1,17/06/2021 12:56,17/06/2021 13:02,IP Address,For (I feel positively about the vaccines),Most months,Most days,21,Female,NA,A levels,choice,70,1,For,For
14,1659975733911,08/08/2022 16:22:13,1659975733795,1,08/08/2022 17:22:13,94826,3,task-k2dt,NA,23527482,6895740,NA,complete,NA,62f13783e8f29773d3e9c2df,computer,Desktop or Laptop,Mac OS 10.15.6,Safari 15.5,834x1112,1112x731,NA,ITT Ratings,2,for,7,NA,NA,NA,NA,NA,ACCEPT,NA,NA,NA,NA,batch7pro,batch7pro,57,12,1,Screen 1,continueButton,response_rating_scale_likert_active,2089,NA,NA,Agree,1,0,1,0,NA,NA,NA,NA,1,statements,It's safe and developed by experts,1,17/06/2021 12:50,17/06/2021 13:02,IP Address,For (I feel positively about the vaccines),Rarely,Once or twice a year,42,Female,NA,"Undergraduate degree (BSc, BA)",choice,69,3,For,For
15,1659975735897,08/08/2022 16:22:15,1659975735772,1,08/08/2022 17:22:15,94826,3,task-k2dt,NA,23527482,6895740,NA,complete,NA,62f13783e8f29773d3e9c2df,computer,Desktop or Laptop,Mac OS 10.15.6,Safari 15.5,834x1112,1112x731,NA,ITT Ratings,2,for,7,NA,NA,NA,NA,NA,ACCEPT,NA,NA,NA,NA,batch7pro,batch7pro,54,13,1,Screen 1,continueButton,response_rating_scale_likert_active,1964,NA,NA,Strongly Disagree,1,0,1,0,NA,NA,NA,NA,1,statements,I don't believe in COVID-19,1,17/06/2021 12:50,17/06/2021 13:02,IP Address,For (I feel positively about the vaccines),Rarely,Once or twice a year,42,Female,NA,"Undergraduate degree (BSc, BA)",choice,69,3,For,Against
16,1659975739073,08/08/2022 16:22:19,1659975738939,1,08/08/2022 17:22:18,94826,3,task-k2dt,NA,23527482,6895740,NA,complete,NA,62f13783e8f29773d3e9c2df,computer,Desktop or Laptop,Mac OS 10.15.6,Safari 15.5,834x1112,1112x731,NA,ITT Ratings,2,for,7,NA,NA,NA,NA,NA,ACCEPT,NA,NA,NA,NA,batch7pro,batch7pro,25,14,1,Screen 1,continueButton,response_rating_scale_likert_active,3153,NA,NA,Agree,1,0,1,0,NA,NA,NA,NA,1,statements,Having the vaccine is less painful then the disease.,1,17/06/2021 12:48,17/06/2021 13:01,IP Address,For (I feel positively about the vaccines),Rarely,Most weeks,27,Female,NA,A levels,choice,64,1,For,For
17,1659975742555,08/08/2022 16:22:22,1659975742422,1,08/08/2022 17:22:22,94826,3,task-k2dt,NA,23527482,6895740,NA,complete,NA,62f13783e8f29773d3e9c2df,computer,Desktop or Laptop,Mac OS 10.15.6,Safari 15.5,834x1112,1112x731,NA,ITT Ratings,2,for,7,NA,NA,NA,NA,NA,ACCEPT,NA,NA,NA,NA,batch7pro,batch7pro,47,15,1,Screen 1,continueButton,response_rating_scale_likert_active,3471,NA,NA,Strongly Disagree,1,0,1,0,NA,NA,NA,NA,1,statements,i dont trust there ......,1,17/06/2021 12:49,17/06/2021 13:02,IP Address,For (I feel positively about the vaccines),Most months,A few times a year,35,Male,NA,Vocational Training / Apprenticeship,control,68,2,For,Against
18,1659975744136,08/08/2022 16:22:24,1659975744024,1,08/08/2022 17:22:24,94826,3,task-k2dt,NA,23527482,6895740,NA,complete,NA,62f13783e8f29773d3e9c2df,computer,Desktop or Laptop,Mac OS 10.15.6,Safari 15.5,834x1112,1112x731,NA,ITT Ratings,2,for,7,NA,NA,NA,NA,NA,ACCEPT,NA,NA,NA,NA,batch7pro,batch7pro,40,16,1,Screen 1,continueButton,response_rating_scale_likert_active,1588.0000000000146,NA,NA,Strongly Disagree,1,0,1,0,NA,NA,NA,NA,1,statements,The vaccine is a tracking device,1,17/06/2021 12:56,17/06/2021 13:01,IP Address,For (I feel positively about the vaccines),Rarely,A few times a year,20,Female,NA,A levels,choice,67,1,For,Against
19,1659975749759,08/08/2022 16:22:29,1659975749624,1,08/08/2022 17:22:29,94826,3,task-k2dt,NA,23527482,6895740,NA,complete,NA,62f13783e8f29773d3e9c2df,computer,Desktop or Laptop,Mac OS 10.15.6,Safari 15.5,834x1112,1112x731,NA,ITT Ratings,2,for,7,NA,NA,NA,NA,NA,ACCEPT,NA,NA,NA,NA,batch7pro,batch7pro,3,17,1,Screen 1,continueButton,response_rating_scale_likert_active,5586,NA,NA,Somewhat Disagree,1,0,1,0,NA,NA,NA,NA,1,statements,We would like to check you are reading each argument carefully. Please select 'Somewhat Disagree' for this answer,1,NA,NA,NA,NA,NA,NA,NA,NA,NA,NA,NA,NA,check2,NA,NA
20,1659975754590,08/08/2022 16:22:34,1659975754464,1,08/08/2022 17:22:34,94826,3,task-k2dt,NA,23527482,6895740,NA,complete,NA,62f13783e8f29773d3e9c2df,computer,Desktop or Laptop,Mac OS 10.15.6,Safari 15.5,834x1112,1112x731,NA,ITT Ratings,2,for,7,NA,NA,NA,NA,NA,ACCEPT,NA,NA,NA,NA,batch7pro,batch7pro,48,18,1,Screen 1,continueButton,response_rating_scale_likert_active,4824.999999999985,NA,NA,Disagree,1,0,1,0,NA,NA,NA,NA,1,statements,the body needs to deal with this natural.,1,17/06/2021 12:49,17/06/2021 13:02,IP Address,For (I feel positively about the vaccines),Most months,A few times a year,35,Male,NA,Vocational Training / Apprenticeship,control,68,3,For,Against
21,1659975756812,08/08/2022 16:22:36,1659975756682,1,08/08/2022 17:22:36,94826,3,task-k2dt,NA,23527482,6895740,NA,complete,NA,62f13783e8f29773d3e9c2df,computer,Desktop or Laptop,Mac OS 10.15.6,Safari 15.5,834x1112,1112x731,NA,ITT Ratings,2,for,7,NA,NA,NA,NA,NA,ACCEPT,NA,NA,NA,NA,batch7pro,batch7pro,14,19,1,Screen 1,continueButton,response_rating_scale_likert_active,2205,NA,NA,Agree,1,0,1,0,NA,NA,NA,NA,1,statements,I want to protect others from covid,1,17/06/2021 12:55,17/06/2021 13:00,IP Address,For (I feel positively about the vaccines),A few times a year,Most months,26,Female,NA,"Postgraduate degree (MSc, MA, MPhil)",control,62,2,For,For
22,1659975758598,08/08/2022 16:22:38,1659975758482,1,08/08/2022 17:22:38,94826,3,task-k2dt,NA,23527482,6895740,NA,complete,NA,62f13783e8f29773d3e9c2df,computer,Desktop or Laptop,Mac OS 10.15.6,Safari 15.5,834x1112,1112x731,NA,ITT Ratings,2,for,7,NA,NA,NA,NA,NA,ACCEPT,NA,NA,NA,NA,batch7pro,batch7pro,60,20,1,Screen 1,continueButton,response_rating_scale_likert_active,1788,NA,NA,Strongly Disagree,1,0,1,0,NA,NA,NA,NA,1,statements,Coronavirus doesn't exist/is a conspiracy,1,17/06/2021 12:56,17/06/2021 13:02,IP Address,For (I feel positively about the vaccines),Most months,Most days,21,Female,NA,A levels,choice,70,3,For,Against
23,1659975762997,08/08/2022 16:22:42,1659975762874,1,08/08/2022 17:22:42,94826,3,task-k2dt,NA,23527482,6895740,NA,complete,NA,62f13783e8f29773d3e9c2df,computer,Desktop or Laptop,Mac OS 10.15.6,Safari 15.5,834x1112,1112x731,NA,ITT Ratings,2,for,7,NA,NA,NA,NA,NA,ACCEPT,NA,NA,NA,NA,batch7pro,batch7pro,39,21,1,Screen 1,continueButton,response_rating_scale_likert_active,4375.999999999985,NA,NA,Agree,1,0,1,0,NA,NA,NA,NA,1,statements,To contribute to herd immunity to help eradicate the virus altogether.,1,17/06/2021 12:47,17/06/2021 13:01,IP Address,For (I feel positively about the vaccines),Most months,Most weeks,18,Male,NA,A levels,choice,66,3,For,For
24,1659975773598,08/08/2022 16:22:53,1659975773483,1,08/08/2022 17:22:53,94826,3,task-k2dt,NA,23527482,6895740,NA,complete,NA,62f13783e8f29773d3e9c2df,computer,Desktop or Laptop,Mac OS 10.15.6,Safari 15.5,834x1112,1112x731,NA,ITT Ratings,2,for,7,NA,NA,NA,NA,NA,ACCEPT,NA,NA,NA,NA,batch7pro,batch7pro,34,22,1,Screen 1,continueButton,response_rating_scale_likert_active,10596,NA,NA,Somewhat Disagree,1,0,1,0,NA,NA,NA,NA,1,statements,The vaccines are effective as they can keep you from getting and spreading the virus that causes COVID-19.,1,17/06/2021 12:47,17/06/2021 13:01,IP Address,For (I feel positively about the vaccines),Most months,Most weeks,18,Male,NA,A levels,choice,66,1,For,Against
25,1659975775196,08/08/2022 16:22:55,1659975775076,1,08/08/2022 17:22:55,94826,3,task-k2dt,NA,23527482,6895740,NA,complete,NA,62f13783e8f29773d3e9c2df,computer,Desktop or Laptop,Mac OS 10.15.6,Safari 15.5,834x1112,1112x731,NA,ITT Ratings,2,for,7,NA,NA,NA,NA,NA,ACCEPT,NA,NA,NA,NA,batch7pro,batch7pro,19,23,1,Screen 1,continueButton,response_rating_scale_likert_active,1585,NA,NA,Agree,1,0,1,0,NA,NA,NA,NA,1,statements,I want to be protected,1,17/06/2021 12:48,17/06/2021 13:00,IP Address,For (I feel positively about the vaccines),Rarely,A few times a year,38,Female,NA,"Postgraduate degree (MSc, MA, MPhil)",control,63,1,For,For
26,1659975776766,08/08/2022 16:22:56,1659975776649,1,08/08/2022 17:22:56,94826,3,task-k2dt,NA,23527482,6895740,NA,complete,NA,62f13783e8f29773d3e9c2df,computer,Desktop or Laptop,Mac OS 10.15.6,Safari 15.5,834x1112,1112x731,NA,ITT Ratings,2,for,7,NA,NA,NA,NA,NA,ACCEPT,NA,NA,NA,NA,batch7pro,batch7pro,9,24,1,Screen 1,continueButton,response_rating_scale_likert_active,1561,NA,NA,Agree,1,0,1,0,NA,NA,NA,NA,1,statements,Protecting others from the virus,1,17/06/2021 12:49,17/06/2021 13:00,IP Address,For (I feel positively about the vaccines),Most days,Never,33,Female,NA,GCSEs,choice,61,3,For,For
27,1659975778826,08/08/2022 16:22:58,1659975778717,1,08/08/2022 17:22:58,94826,3,task-k2dt,NA,23527482,6895740,NA,complete,NA,62f13783e8f29773d3e9c2df,computer,Desktop or Laptop,Mac OS 10.15.6,Safari 15.5,834x1112,1112x731,NA,ITT Ratings,2,for,7,NA,NA,NA,NA,NA,ACCEPT,NA,NA,NA,NA,batch7pro,batch7pro,24,25,1,Screen 1,continueButton,response_rating_scale_likert_active,2056,NA,NA,Strongly Disagree,1,0,1,0,NA,NA,NA,NA,1,statements,It's a government thing to track us and keep an eye on us,1,17/06/2021 12:48,17/06/2021 13:01,IP Address,For (I feel positively about the vaccines),Rarely,Most weeks,27,Female,NA,A levels,choice,64,3,For,Against
28,1659975781925,08/08/2022 16:23:01,1659975781811,1,08/08/2022 17:23:01,94826,3,task-k2dt,NA,23527482,6895740,NA,complete,NA,62f13783e8f29773d3e9c2df,computer,Desktop or Laptop,Mac OS 10.15.6,Safari 15.5,834x1112,1112x731,NA,ITT Ratings,2,for,7,NA,NA,NA,NA,NA,ACCEPT,NA,NA,NA,NA,batch7pro,batch7pro,59,26,1,Screen 1,continueButton,response_rating_scale_likert_active,3083,NA,NA,Strongly Disagree,1,0,1,0,NA,NA,NA,NA,1,statements,Vaccines aren't effective - there's a new flu jab every year because of mutations,1,17/06/2021 12:56,17/06/2021 13:02,IP Address,For (I feel positively about the vaccines),Most months,Most days,21,Female,NA,A levels,choice,70,2,For,Against
29,1659975785013,08/08/2022 16:23:05,1659975784878,1,08/08/2022 17:23:04,94826,3,task-k2dt,NA,23527482,6895740,NA,complete,NA,62f13783e8f29773d3e9c2df,computer,Desktop or Laptop,Mac OS 10.15.6,Safari 15.5,834x1112,1112x731,NA,ITT Ratings,2,for,7,NA,NA,NA,NA,NA,ACCEPT,NA,NA,NA,NA,batch7pro,batch7pro,44,27,1,Screen 1,continueButton,response_rating_scale_likert_active,3057,NA,NA,Agree,1,0,1,0,NA,NA,NA,NA,1,statements,It will likely reduce severity of symptoms for everyone,1,17/06/2021 12:56,17/06/2021 13:01,IP Address,For (I feel positively about the vaccines),Rarely,A few times a year,20,Female,NA,A levels,choice,67,2,For,For
30,1659975786974,08/08/2022 16:23:06,1659975786859,1,08/08/2022 17:23:06,94826,3,task-k2dt,NA,23527482,6895740,NA,complete,NA,62f13783e8f29773d3e9c2df,computer,Desktop or Laptop,Mac OS 10.15.6,Safari 15.5,834x1112,1112x731,NA,ITT Ratings,2,for,7,NA,NA,NA,NA,NA,ACCEPT,NA,NA,NA,NA,batch7pro,batch7pro,18,28,1,Screen 1,continueButton,response_rating_scale_likert_active,1966.000000000029,NA,NA,Strongly Disagree,1,0,1,0,NA,NA,NA,NA,1,statements,I don't believe in vaccinations,1,17/06/2021 12:48,17/06/2021 13:00,IP Address,For (I feel positively about the vaccines),Rarely,A few times a year,38,Female,NA,"Postgraduate degree (MSc, MA, MPhil)",control,63,3,For,Against
31,1659975789976,08/08/2022 16:23:09,1659975789845,1,08/08/2022 17:23:09,94826,3,task-k2dt,NA,23527482,6895740,NA,complete,NA,62f13783e8f29773d3e9c2df,computer,Desktop or Laptop,Mac OS 10.15.6,Safari 15.5,834x1112,1112x731,NA,ITT Ratings,2,for,7,NA,NA,NA,NA,NA,ACCEPT,NA,NA,NA,NA,batch7pro,batch7pro,45,29,1,Screen 1,continueButton,response_rating_scale_likert_active,2974.999999999971,NA,NA,Agree,1,0,1,0,NA,NA,NA,NA,1,statements,"The quicker society is vaccinated, the quicker normality can return",1,17/06/2021 12:56,17/06/2021 13:01,IP Address,For (I feel positively about the vaccines),Rarely,A few times a year,20,Female,NA,A levels,choice,67,3,For,For
32,1659975792093,08/08/2022 16:23:12,1659975791976,1,08/08/2022 17:23:11,94826,3,task-k2dt,NA,23527482,6895740,NA,complete,NA,62f13783e8f29773d3e9c2df,computer,Desktop or Laptop,Mac OS 10.15.6,Safari 15.5,834x1112,1112x731,NA,ITT Ratings,2,for,7,NA,NA,NA,NA,NA,ACCEPT,NA,NA,NA,NA,batch7pro,batch7pro,16,30,1,Screen 1,continueButton,response_rating_scale_likert_active,2119,NA,NA,Disagree,1,0,1,0,NA,NA,NA,NA,1,statements,I don't know enough about it,1,17/06/2021 12:48,17/06/2021 13:00,IP Address,For (I feel positively about the vaccines),Rarely,A few times a year,38,Female,NA,"Postgraduate degree (MSc, MA, MPhil)",control,63,1,For,Against
33,1659975793797,08/08/2022 16:23:13,1659975793682,1,08/08/2022 17:23:13,94826,3,task-k2dt,NA,23527482,6895740,NA,complete,NA,62f13783e8f29773d3e9c2df,computer,Desktop or Laptop,Mac OS 10.15.6,Safari 15.5,834x1112,1112x731,NA,ITT Ratings,2,for,7,NA,NA,NA,NA,NA,ACCEPT,NA,NA,NA,NA,batch7pro,batch7pro,41,31,1,Screen 1,continueButton,response_rating_scale_likert_active,1694,NA,NA,Disagree,1,0,1,0,NA,NA,NA,NA,1,statements,The development has been rushed,1,17/06/2021 12:56,17/06/2021 13:01,IP Address,For (I feel positively about the vaccines),Rarely,A few times a year,20,Female,NA,A levels,choice,67,2,For,Against
34,1659975796941,08/08/2022 16:23:16,1659975796813,1,08/08/2022 17:23:16,94826,3,task-k2dt,NA,23527482,6895740,NA,complete,NA,62f13783e8f29773d3e9c2df,computer,Desktop or Laptop,Mac OS 10.15.6,Safari 15.5,834x1112,1112x731,NA,ITT Ratings,2,for,7,NA,NA,NA,NA,NA,ACCEPT,NA,NA,NA,NA,batch7pro,batch7pro,17,32,1,Screen 1,continueButton,response_rating_scale_likert_active,3120,NA,NA,Somewhat Disagree,1,0,1,0,NA,NA,NA,NA,1,statements,I am worried about long term effects,1,17/06/2021 12:48,17/06/2021 13:00,IP Address,For (I feel positively about the vaccines),Rarely,A few times a year,38,Female,NA,"Postgraduate degree (MSc, MA, MPhil)",control,63,2,For,Against
35,1659975798710,08/08/2022 16:23:18,1659975798587,1,08/08/2022 17:23:18,94826,3,task-k2dt,NA,23527482,6895740,NA,complete,NA,62f13783e8f29773d3e9c2df,computer,Desktop or Laptop,Mac OS 10.15.6,Safari 15.5,834x1112,1112x731,NA,ITT Ratings,2,for,7,NA,NA,NA,NA,NA,ACCEPT,NA,NA,NA,NA,batch7pro,batch7pro,21,33,1,Screen 1,continueButton,response_rating_scale_likert_active,1760,NA,NA,Agree,1,0,1,0,NA,NA,NA,NA,1,statements,I want to protect my loved ones,1,17/06/2021 12:48,17/06/2021 13:00,IP Address,For (I feel positively about the vaccines),Rarely,A few times a year,38,Female,NA,"Postgraduate degree (MSc, MA, MPhil)",control,63,3,For,For
36,1659975801659,08/08/2022 16:23:21,1659975801514,1,08/08/2022 17:23:21,94826,3,task-k2dt,NA,23527482,6895740,NA,complete,NA,62f13783e8f29773d3e9c2df,computer,Desktop or Laptop,Mac OS 10.15.6,Safari 15.5,834x1112,1112x731,NA,ITT Ratings,2,for,7,NA,NA,NA,NA,NA,ACCEPT,NA,NA,NA,NA,batch7pro,batch7pro,12,34,1,Screen 1,continueButton,response_rating_scale_likert_active,2914,NA,NA,Strongly Disagree,1,0,1,0,NA,NA,NA,NA,1,statements,I have been told by a medical professional not to have one,1,17/06/2021 12:55,17/06/2021 13:00,IP Address,For (I feel positively about the vaccines),A few times a year,Most months,26,Female,NA,"Postgraduate degree (MSc, MA, MPhil)",control,62,3,For,Against
37,1659975806106,08/08/2022 16:23:26,1659975805974,1,08/08/2022 17:23:25,94826,3,task-k2dt,NA,23527482,6895740,NA,complete,NA,62f13783e8f29773d3e9c2df,computer,Desktop or Laptop,Mac OS 10.15.6,Safari 15.5,834x1112,1112x731,NA,ITT Ratings,2,for,7,NA,NA,NA,NA,NA,ACCEPT,NA,NA,NA,NA,batch7pro,batch7pro,50,35,1,Screen 1,continueButton,response_rating_scale_likert_active,4447,NA,NA,Somewhat Agree,1,0,1,0,NA,NA,NA,NA,1,statements,get life back to normal,1,17/06/2021 12:49,17/06/2021 13:02,IP Address,For (I feel positively about the vaccines),Most months,A few times a year,35,Male,NA,Vocational Training / Apprenticeship,control,68,2,For,For
38,1659975806395,08/08/2022 16:23:26,1659975806275,1,08/08/2022 17:23:26,94826,3,task-k2dt,NA,23527482,6895740,NA,complete,NA,62f13783e8f29773d3e9c2df,computer,Desktop or Laptop,Mac OS 10.15.6,Safari 15.5,834x1112,1112x731,NA,ITT Ratings,2,for,7,NA,NA,NA,NA,NA,ACCEPT,NA,NA,NA,NA,batch7pro,batch7pro,46,36,1,Screen 1,continueButton,response_rating_scale_likert_active,290,NA,NA,Agree,1,0,1,0,NA,NA,NA,NA,1,statements,I just don't want one,1,17/06/2021 12:49,17/06/2021 13:02,IP Address,For (I feel positively about the vaccines),Most months,A few times a year,35,Male,NA,Vocational Training / Apprenticeship,control,68,1,For,Against
39,1659975812326,08/08/2022 16:23:32,1659975812189,1,08/08/2022 17:23:32,94826,3,task-k2dt,NA,23527482,6895740,NA,complete,NA,62f13783e8f29773d3e9c2df,computer,Desktop or Laptop,Mac OS 10.15.6,Safari 15.5,834x1112,1112x731,NA,ITT Ratings,2,for,7,NA,NA,NA,NA,NA,ACCEPT,NA,NA,NA,NA,batch7pro,batch7pro,62,37,1,Screen 1,continueButton,response_rating_scale_likert_active,5904,NA,NA,Disagree,1,0,1,0,NA,NA,NA,NA,1,statements,I want to be able to go on holiday if there are vaccine passports,1,17/06/2021 12:56,17/06/2021 13:02,IP Address,For (I feel positively about the vaccines),Most months,Most days,21,Female,NA,A levels,choice,70,2,For,For
40,1659975813901,08/08/2022 16:23:33,1659975813781,1,08/08/2022 17:23:33,94826,3,task-k2dt,NA,23527482,6895740,NA,complete,NA,62f13783e8f29773d3e9c2df,computer,Desktop or Laptop,Mac OS 10.15.6,Safari 15.5,834x1112,1112x731,NA,ITT Ratings,2,for,7,NA,NA,NA,NA,NA,ACCEPT,NA,NA,NA,NA,batch7pro,batch7pro,31,38,1,Screen 1,continueButton,response_rating_scale_likert_active,1581,NA,NA,Agree,1,0,1,0,NA,NA,NA,NA,1,statements,I want to protect myself,1,17/06/2021 12:55,17/06/2021 13:01,IP Address,For (I feel positively about the vaccines),Never,A few times a year,36,Male,NA,GCSEs,choice,65,1,For,For
41,1659975815399,08/08/2022 16:23:35,1659975815274,1,08/08/2022 17:23:35,94826,3,task-k2dt,NA,23527482,6895740,NA,complete,NA,62f13783e8f29773d3e9c2df,computer,Desktop or Laptop,Mac OS 10.15.6,Safari 15.5,834x1112,1112x731,NA,ITT Ratings,2,for,7,NA,NA,NA,NA,NA,ACCEPT,NA,NA,NA,NA,batch7pro,batch7pro,30,39,1,Screen 1,continueButton,response_rating_scale_likert_active,1483,NA,NA,Strongly Disagree,1,0,1,0,NA,NA,NA,NA,1,statements,I believe it's a conspiracy,1,17/06/2021 12:55,17/06/2021 13:01,IP Address,For (I feel positively about the vaccines),Never,A few times a year,36,Male,NA,GCSEs,choice,65,3,For,Against
42,1659975817268,08/08/2022 16:23:37,1659975817149,1,08/08/2022 17:23:37,94826,3,task-k2dt,NA,23527482,6895740,NA,complete,NA,62f13783e8f29773d3e9c2df,computer,Desktop or Laptop,Mac OS 10.15.6,Safari 15.5,834x1112,1112x731,NA,ITT Ratings,2,for,7,NA,NA,NA,NA,NA,ACCEPT,NA,NA,NA,NA,batch7pro,batch7pro,5,40,1,Screen 1,continueButton,response_rating_scale_likert_active,1864,NA,NA,Disagree,1,0,1,0,NA,NA,NA,NA,1,statements,Don't want foreign bodies in me,1,17/06/2021 12:49,17/06/2021 13:00,IP Address,For (I feel positively about the vaccines),Most days,Never,33,Female,NA,GCSEs,choice,61,2,For,Against
43,1659975820248,08/08/2022 16:23:40,1659975820115,1,08/08/2022 17:23:40,94826,3,task-k2dt,NA,23527482,6895740,NA,complete,NA,62f13783e8f29773d3e9c2df,computer,Desktop or Laptop,Mac OS 10.15.6,Safari 15.5,834x1112,1112x731,NA,ITT Ratings,2,for,7,NA,NA,NA,NA,NA,ACCEPT,NA,NA,NA,NA,batch7pro,batch7pro,26,41,1,Screen 1,continueButton,response_rating_scale_likert_active,2951,NA,NA,Agree,1,0,1,0,NA,NA,NA,NA,1,statements,They wouldn't give it us if it wasn't safe,1,17/06/2021 12:48,17/06/2021 13:01,IP Address,For (I feel positively about the vaccines),Rarely,Most weeks,27,Female,NA,A levels,choice,64,2,For,For
44,1659975823307,08/08/2022 16:23:43,1659975823180,1,08/08/2022 17:23:43,94826,3,task-k2dt,NA,23527482,6895740,NA,complete,NA,62f13783e8f29773d3e9c2df,computer,Desktop or Laptop,Mac OS 10.15.6,Safari 15.5,834x1112,1112x731,NA,ITT Ratings,2,for,7,NA,NA,NA,NA,NA,ACCEPT,NA,NA,NA,NA,batch7pro,batch7pro,6,42,1,Screen 1,continueButton,response_rating_scale_likert_active,3053,NA,NA,Strongly Disagree,1,0,1,0,NA,NA,NA,NA,1,statements,I think it's a scam,1,17/06/2021 12:49,17/06/2021 13:00,IP Address,For (I feel positively about the vaccines),Most days,Never,33,Female,NA,GCSEs,choice,61,3,For,Against
45,1659975831591,08/08/2022 16:23:51,1659975831459,1,08/08/2022 17:23:51,94826,3,task-k2dt,NA,23527482,6895740,NA,complete,NA,62f13783e8f29773d3e9c2df,computer,Desktop or Laptop,Mac OS 10.15.6,Safari 15.5,834x1112,1112x731,NA,ITT Ratings,2,for,7,NA,NA,NA,NA,NA,ACCEPT,NA,NA,NA,NA,batch7pro,batch7pro,15,43,1,Screen 1,continueButton,response_rating_scale_likert_active,8268,NA,NA,Agree,1,0,1,0,NA,NA,NA,NA,1,statements,I see no reason to not get vaccinated and I have been asked to do so,1,17/06/2021 12:55,17/06/2021 13:00,IP Address,For (I feel positively about the vaccines),A few times a year,Most months,26,Female,NA,"Postgraduate degree (MSc, MA, MPhil)",control,62,3,For,For
46,1659975834254,08/08/2022 16:23:54,1659975834132,1,08/08/2022 17:23:54,94826,3,task-k2dt,NA,23527482,6895740,NA,complete,NA,62f13783e8f29773d3e9c2df,computer,Desktop or Laptop,Mac OS 10.15.6,Safari 15.5,834x1112,1112x731,NA,ITT Ratings,2,for,7,NA,NA,NA,NA,NA,ACCEPT,NA,NA,NA,NA,batch7pro,batch7pro,63,44,1,Screen 1,continueButton,response_rating_scale_likert_active,2660,NA,NA,Agree,1,0,1,0,NA,NA,NA,NA,1,statements,I want to protect those who are vulnerable through herd immunity,1,17/06/2021 12:56,17/06/2021 13:02,IP Address,For (I feel positively about the vaccines),Most months,Most days,21,Female,NA,A levels,choice,70,3,For,For
47,1659975836529,08/08/2022 16:23:56,1659975836399,1,08/08/2022 17:23:56,94826,3,task-k2dt,NA,23527482,6895740,NA,complete,NA,62f13783e8f29773d3e9c2df,computer,Desktop or Laptop,Mac OS 10.15.6,Safari 15.5,834x1112,1112x731,NA,ITT Ratings,2,for,7,NA,NA,NA,NA,NA,ACCEPT,NA,NA,NA,NA,batch7pro,batch7pro,11,45,1,Screen 1,continueButton,response_rating_scale_likert_active,2257.999999999971,NA,NA,Strongly Disagree,1,0,1,0,NA,NA,NA,NA,1,statements,I have a phobia of needles,1,17/06/2021 12:55,17/06/2021 13:00,IP Address,For (I feel positively about the vaccines),A few times a year,Most months,26,Female,NA,"Postgraduate degree (MSc, MA, MPhil)",control,62,2,For,Against
48,1659975838200,08/08/2022 16:23:58,1659975838068,1,08/08/2022 17:23:58,94826,3,task-k2dt,NA,23527482,6895740,NA,complete,NA,62f13783e8f29773d3e9c2df,computer,Desktop or Laptop,Mac OS 10.15.6,Safari 15.5,834x1112,1112x731,NA,ITT Ratings,2,for,7,NA,NA,NA,NA,NA,ACCEPT,NA,NA,NA,NA,batch7pro,batch7pro,22,46,1,Screen 1,continueButton,response_rating_scale_likert_active,1658,NA,NA,Disagree,1,0,1,0,NA,NA,NA,NA,1,statements,It's harmful to the human body,1,17/06/2021 12:48,17/06/2021 13:01,IP Address,For (I feel positively about the vaccines),Rarely,Most weeks,27,Female,NA,A levels,choice,64,1,For,Against
49,1659975841944,08/08/2022 16:24:01,1659975841826,1,08/08/2022 17:24:01,94826,3,task-k2dt,NA,23527482,6895740,NA,complete,NA,62f13783e8f29773d3e9c2df,computer,Desktop or Laptop,Mac OS 10.15.6,Safari 15.5,834x1112,1112x731,NA,ITT Ratings,2,for,7,NA,NA,NA,NA,NA,ACCEPT,NA,NA,NA,NA,batch7pro,batch7pro,43,47,1,Screen 1,continueButton,response_rating_scale_likert_active,3748.000000000029,NA,NA,Agree,1,0,1,0,NA,NA,NA,NA,1,statements,"If everyone is vaccinated, vulnerable people will be safer",1,17/06/2021 12:56,17/06/2021 13:01,IP Address,For (I feel positively about the vaccines),Rarely,A few times a year,20,Female,NA,A levels,choice,67,1,For,For
50,1659975844652,08/08/2022 16:24:04,1659975844526,1,08/08/2022 17:24:04,94826,3,task-k2dt,NA,23527482,6895740,NA,complete,NA,62f13783e8f29773d3e9c2df,computer,Desktop or Laptop,Mac OS 10.15.6,Safari 15.5,834x1112,1112x731,NA,ITT Ratings,2,for,7,NA,NA,NA,NA,NA,ACCEPT,NA,NA,NA,NA,batch7pro,batch7pro,33,48,1,Screen 1,continueButton,response_rating_scale_likert_active,2687,NA,NA,Agree,1,0,1,0,NA,NA,NA,NA,1,statements,I don't want to worry about it anymore,1,17/06/2021 12:55,17/06/2021 13:01,IP Address,For (I feel positively about the vaccines),Never,A few times a year,36,Male,NA,GCSEs,choice,65,3,For,For
51,1659975850892,08/08/2022 16:24:10,1659975850761,1,08/08/2022 17:24:10,94826,3,task-k2dt,NA,23527482,6895740,NA,complete,NA,62f13783e8f29773d3e9c2df,computer,Desktop or Laptop,Mac OS 10.15.6,Safari 15.5,834x1112,1112x731,NA,ITT Ratings,2,for,7,NA,NA,NA,NA,NA,ACCEPT,NA,NA,NA,NA,batch7pro,batch7pro,36,49,1,Screen 1,continueButton,response_rating_scale_likert_active,6222.000000000029,NA,NA,Agree,1,0,1,0,NA,NA,NA,NA,1,statements,Although it seems that the vaccine making process has been rushed it has still gone through the normal rigorous testing required to make sure its safe.,1,17/06/2021 12:47,17/06/2021 13:01,IP Address,For (I feel positively about the vaccines),Most months,Most weeks,18,Male,NA,A levels,choice,66,3,For,Against
52,1659975853714,08/08/2022 16:24:13,1659975853585,1,08/08/2022 17:24:13,94826,3,task-k2dt,NA,23527482,6895740,NA,complete,NA,62f13783e8f29773d3e9c2df,computer,Desktop or Laptop,Mac OS 10.15.6,Safari 15.5,834x1112,1112x731,NA,ITT Ratings,2,for,7,NA,NA,NA,NA,NA,ACCEPT,NA,NA,NA,NA,batch7pro,batch7pro,10,50,1,Screen 1,continueButton,response_rating_scale_likert_active,2812,NA,NA,Strongly Disagree,1,0,1,0,NA,NA,NA,NA,1,statements,I've read something on social media which has told me not to,1,17/06/2021 12:55,17/06/2021 13:00,IP Address,For (I feel positively about the vaccines),A few times a year,Most months,26,Female,NA,"Postgraduate degree (MSc, MA, MPhil)",control,62,1,For,Against
53,1659975857639,08/08/2022 16:24:17,1659975857521,1,08/08/2022 17:24:17,94826,3,task-k2dt,NA,23527482,6895740,NA,complete,NA,62f13783e8f29773d3e9c2df,computer,Desktop or Laptop,Mac OS 10.15.6,Safari 15.5,834x1112,1112x731,NA,ITT Ratings,2,for,7,NA,NA,NA,NA,NA,ACCEPT,NA,NA,NA,NA,batch7pro,batch7pro,29,51,1,Screen 1,continueButton,response_rating_scale_likert_active,3926,NA,NA,Strongly Disagree,1,0,1,0,NA,NA,NA,NA,1,statements,It isn't necessary unless you're a vulnerable person,1,17/06/2021 12:55,17/06/2021 13:01,IP Address,For (I feel positively about the vaccines),Never,A few times a year,36,Male,NA,GCSEs,choice,65,2,For,Against
54,1659975859084,08/08/2022 16:24:19,1659975858944,1,08/08/2022 17:24:18,94826,3,task-k2dt,NA,23527482,6895740,NA,complete,NA,62f13783e8f29773d3e9c2df,computer,Desktop or Laptop,Mac OS 10.15.6,Safari 15.5,834x1112,1112x731,NA,ITT Ratings,2,for,7,NA,NA,NA,NA,NA,ACCEPT,NA,NA,NA,NA,batch7pro,batch7pro,42,52,1,Screen 1,continueButton,response_rating_scale_likert_active,1410,NA,NA,Strongly Disagree,1,0,1,0,NA,NA,NA,NA,1,statements,The vaccine is dangerous,1,17/06/2021 12:56,17/06/2021 13:01,IP Address,For (I feel positively about the vaccines),Rarely,A few times a year,20,Female,NA,A levels,choice,67,3,For,Against
55,1659975860871,08/08/2022 16:24:20,1659975860743,1,08/08/2022 17:24:20,94826,3,task-k2dt,NA,23527482,6895740,NA,complete,NA,62f13783e8f29773d3e9c2df,computer,Desktop or Laptop,Mac OS 10.15.6,Safari 15.5,834x1112,1112x731,NA,ITT Ratings,2,for,7,NA,NA,NA,NA,NA,ACCEPT,NA,NA,NA,NA,batch7pro,batch7pro,28,53,1,Screen 1,continueButton,response_rating_scale_likert_active,1786,NA,NA,Disagree,1,0,1,0,NA,NA,NA,NA,1,statements,There hasn't been enough time to develop it safely,1,17/06/2021 12:55,17/06/2021 13:01,IP Address,For (I feel positively about the vaccines),Never,A few times a year,36,Male,NA,GCSEs,choice,65,1,For,Against
56,1659975865405,08/08/2022 16:24:25,1659975865279,1,08/08/2022 17:24:25,94826,3,task-k2dt,NA,23527482,6895740,NA,complete,NA,62f13783e8f29773d3e9c2df,computer,Desktop or Laptop,Mac OS 10.15.6,Safari 15.5,834x1112,1112x731,NA,ITT Ratings,2,for,7,NA,NA,NA,NA,NA,ACCEPT,NA,NA,NA,NA,batch7pro,batch7pro,23,54,1,Screen 1,continueButton,response_rating_scale_likert_active,4523,NA,NA,Disagree,1,0,1,0,NA,NA,NA,NA,1,statements,It won't work and cause damage to our insides,1,17/06/2021 12:48,17/06/2021 13:01,IP Address,For (I feel positively about the vaccines),Rarely,Most weeks,27,Female,NA,A levels,choice,64,2,For,Against
57,1659975869107,08/08/2022 16:24:29,1659975868980,1,08/08/2022 17:24:28,94826,3,task-k2dt,NA,23527482,6895740,NA,complete,NA,62f13783e8f29773d3e9c2df,computer,Desktop or Laptop,Mac OS 10.15.6,Safari 15.5,834x1112,1112x731,NA,ITT Ratings,2,for,7,NA,NA,NA,NA,NA,ACCEPT,NA,NA,NA,NA,batch7pro,batch7pro,38,55,1,Screen 1,continueButton,response_rating_scale_likert_active,3691,NA,NA,Agree,1,0,1,0,NA,NA,NA,NA,1,statements,Someone I live with is vulnerable too which gives me an incentive to get the vaccine to  keep them safe.,1,17/06/2021 12:47,17/06/2021 13:01,IP Address,For (I feel positively about the vaccines),Most months,Most weeks,18,Male,NA,A levels,choice,66,2,For,For
58,1659975870598,08/08/2022 16:24:30,1659975870415,1,08/08/2022 17:24:30,94826,3,task-k2dt,NA,23527482,6895740,NA,complete,NA,62f13783e8f29773d3e9c2df,computer,Desktop or Laptop,Mac OS 10.15.6,Safari 15.5,834x1112,1112x731,NA,ITT Ratings,2,for,7,NA,NA,NA,NA,NA,ACCEPT,NA,NA,NA,NA,batch7pro,batch7pro,8,56,1,Screen 1,continueButton,response_rating_scale_likert_active,1422,NA,NA,Agree,1,0,1,0,NA,NA,NA,NA,1,statements,Protect us from virus,1,17/06/2021 12:49,17/06/2021 13:00,IP Address,For (I feel positively about the vaccines),Most days,Never,33,Female,NA,GCSEs,choice,61,2,For,For
59,1659975872123,08/08/2022 16:24:32,1659975872012,1,08/08/2022 17:24:32,94826,3,task-k2dt,NA,23527482,6895740,NA,complete,NA,62f13783e8f29773d3e9c2df,computer,Desktop or Laptop,Mac OS 10.15.6,Safari 15.5,834x1112,1112x731,NA,ITT Ratings,2,for,7,NA,NA,NA,NA,NA,ACCEPT,NA,NA,NA,NA,batch7pro,batch7pro,55,57,1,Screen 1,continueButton,response_rating_scale_likert_active,1580.999999999971,NA,NA,Agree,1,0,1,0,NA,NA,NA,NA,1,statements,It protects you and your family against the virus,1,17/06/2021 12:50,17/06/2021 13:02,IP Address,For (I feel positively about the vaccines),Rarely,Once or twice a year,42,Female,NA,"Undergraduate degree (BSc, BA)",choice,69,1,For,For
60,1659975874178,08/08/2022 16:24:34,1659975874043,1,08/08/2022 17:24:34,94826,3,task-k2dt,NA,23527482,6895740,NA,complete,NA,62f13783e8f29773d3e9c2df,computer,Desktop or Laptop,Mac OS 10.15.6,Safari 15.5,834x1112,1112x731,NA,ITT Ratings,2,for,7,NA,NA,NA,NA,NA,ACCEPT,NA,NA,NA,NA,batch7pro,batch7pro,53,58,1,Screen 1,continueButton,response_rating_scale_likert_active,2015.999999999971,NA,NA,Strongly Disagree,1,0,1,0,NA,NA,NA,NA,1,statements,It's dangerous and gives you a dose of covid,1,17/06/2021 12:50,17/06/2021 13:02,IP Address,For (I feel positively about the vaccines),Rarely,Once or twice a year,42,Female,NA,"Undergraduate degree (BSc, BA)",choice,69,2,For,Against
61,1659975876998,08/08/2022 16:24:36,1659975876875,1,08/08/2022 17:24:36,94826,3,task-k2dt,NA,23527482,6895740,NA,complete,NA,62f13783e8f29773d3e9c2df,computer,Desktop or Laptop,Mac OS 10.15.6,Safari 15.5,834x1112,1112x731,NA,ITT Ratings,2,for,7,NA,NA,NA,NA,NA,ACCEPT,NA,NA,NA,NA,batch7pro,batch7pro,4,59,1,Screen 1,continueButton,response_rating_scale_likert_active,2821,NA,NA,Strongly Disagree,1,0,1,0,NA,NA,NA,NA,1,statements,The government are putting a chip inside us,1,17/06/2021 12:49,17/06/2021 13:00,IP Address,For (I feel positively about the vaccines),Most days,Never,33,Female,NA,GCSEs,choice,61,1,For,Against
62,1659975878817,08/08/2022 16:24:38,1659975878696,1,08/08/2022 17:24:38,94826,3,task-k2dt,NA,23527482,6895740,NA,complete,NA,62f13783e8f29773d3e9c2df,computer,Desktop or Laptop,Mac OS 10.15.6,Safari 15.5,834x1112,1112x731,NA,ITT Ratings,2,for,7,NA,NA,NA,NA,NA,ACCEPT,NA,NA,NA,NA,batch7pro,batch7pro,7,60,1,Screen 1,continueButton,response_rating_scale_likert_active,1811,NA,NA,Agree,1,0,1,0,NA,NA,NA,NA,1,statements,Stops us getting covid so bad,1,17/06/2021 12:49,17/06/2021 13:00,IP Address,For (I feel positively about the vaccines),Most days,Never,33,Female,NA,GCSEs,choice,61,1,For,For
63,1659975882816,08/08/2022 16:24:42,1659975882689,1,08/08/2022 17:24:42,94826,3,task-k2dt,NA,23527482,6895740,NA,complete,NA,62f13783e8f29773d3e9c2df,computer,Desktop or Laptop,Mac OS 10.15.6,Safari 15.5,834x1112,1112x731,NA,ITT Ratings,2,for,7,NA,NA,NA,NA,NA,ACCEPT,NA,NA,NA,NA,batch7pro,batch7pro,49,61,1,Screen 1,continueButton,response_rating_scale_likert_active,3984,NA,NA,Agree,1,0,1,0,NA,NA,NA,NA,1,statements,I don't want to die so i better get one soon.,1,17/06/2021 12:49,17/06/2021 13:02,IP Address,For (I feel positively about the vaccines),Most months,A few times a year,35,Male,NA,Vocational Training / Apprenticeship,control,68,1,For,For
64,1659975895575,08/08/2022 16:24:55,1659975895449,1,08/08/2022 17:24:55,94826,3,task-k2dt,NA,23527482,6895740,NA,complete,NA,62f13783e8f29773d3e9c2df,computer,Desktop or Laptop,Mac OS 10.15.6,Safari 15.5,834x1112,1112x731,NA,ITT Ratings,2,for,7,NA,NA,NA,NA,NA,ACCEPT,NA,NA,NA,NA,batch7pro,batch7pro,35,62,1,Screen 1,continueButton,response_rating_scale_likert_active,12751,NA,NA,Agree,1,0,1,0,NA,NA,NA,NA,1,statements,Studies have shown that vaccination provides a strong boost in protection in people who have recovered from COVID-19.,1,17/06/2021 12:47,17/06/2021 13:01,IP Address,For (I feel positively about the vaccines),Most months,Most weeks,18,Male,NA,A levels,choice,66,2,For,Against
65,1659975895660,08/08/2022 16:24:55,1659975895456,1,08/08/2022 17:24:55,94826,3,task-k2dt,NA,23527482,6895740,NA,complete,NA,62f13783e8f29773d3e9c2df,computer,Desktop or Laptop,Mac OS 10.15.6,Safari 15.5,834x1112,1112x731,NA,ITT Ratings,2,for,7,NA,NA,NA,NA,NA,ACCEPT,NA,NA,NA,NA,batch7pro,NA,NA,END TASK,NA,NA,NA,NA,250366,NA,NA,NA,NA,0,1,0,NA,NA,NA,NA,NA,NA,NA,NA,NA,NA,NA,NA,NA,NA,NA,NA,NA,NA,NA,NA,NA,NA,NA
1,1659975817549,08/08/2022 16:23:37,1659975817373,1,08/08/2022 17:23:37,94826,3,task-k2dt,NA,23527555,6895768,NA,complete,NA,62f1386c8a52bea0d662c6b9,computer,Desktop or Laptop,Mac OS 10.15.6,Safari 15.6,820x1180,1180x713,NA,ITT Ratings,2,for,7,NA,NA,NA,NA,NA,ACCEPT,NA,NA,NA,NA,batch7pro,NA,NA,BEGIN TASK,NA,NA,NA,NA,NA,NA,NA,NA,NA,0,1,0,NA,NA,NA,NA,NA,NA,NA,NA,NA,NA,NA,NA,NA,NA,NA,NA,NA,NA,NA,NA,NA,NA,NA
2,1659975822267,08/08/2022 16:23:42,1659975822158,1,08/08/2022 17:23:42,94826,3,task-k2dt,NA,23527555,6895768,NA,complete,NA,62f1386c8a52bea0d662c6b9,computer,Desktop or Laptop,Mac OS 10.15.6,Safari 15.6,820x1180,1180x713,NA,ITT Ratings,2,for,7,NA,NA,NA,NA,NA,ACCEPT,NA,NA,NA,NA,batch7pro,batch7pro,1,1,1,Screen 1,advancementZone,continue_button,4735,NA,NA,NA,NA,0,1,0,NA,NA,NA,NA,NA,instructions,NA,NA,NA,NA,NA,NA,NA,NA,NA,NA,NA,NA,NA,NA,NA,NA,NA
3,1659975824914,08/08/2022 16:23:44,1659975824804,1,08/08/2022 17:23:44,94826,3,task-k2dt,NA,23527555,6895768,NA,complete,NA,62f1386c8a52bea0d662c6b9,computer,Desktop or Laptop,Mac OS 10.15.6,Safari 15.6,820x1180,1180x713,NA,ITT Ratings,2,for,7,NA,NA,NA,NA,NA,ACCEPT,NA,NA,NA,NA,batch7pro,batch7pro,31,1,1,Screen 1,continueButton,response_rating_scale_likert_active,2625,NA,NA,Strongly Agree,1,0,1,0,NA,NA,NA,NA,1,statements,I want to protect myself,1,17/06/2021 12:55,17/06/2021 13:01,IP Address,For (I feel positively about the vaccines),Never,A few times a year,36,Male,NA,GCSEs,choice,65,1,For,For
4,1659975826854,08/08/2022 16:23:46,1659975826753,1,08/08/2022 17:23:46,94826,3,task-k2dt,NA,23527555,6895768,NA,complete,NA,62f1386c8a52bea0d662c6b9,computer,Desktop or Laptop,Mac OS 10.15.6,Safari 15.6,820x1180,1180x713,NA,ITT Ratings,2,for,7,NA,NA,NA,NA,NA,ACCEPT,NA,NA,NA,NA,batch7pro,batch7pro,7,2,1,Screen 1,continueButton,response_rating_scale_likert_active,1933,NA,NA,Agree,1,0,1,0,NA,NA,NA,NA,1,statements,Stops us getting covid so bad,1,17/06/2021 12:49,17/06/2021 13:00,IP Address,For (I feel positively about the vaccines),Most days,Never,33,Female,NA,GCSEs,choice,61,1,For,For
5,1659975828510,08/08/2022 16:23:48,1659975828418,1,08/08/2022 17:23:48,94826,3,task-k2dt,NA,23527555,6895768,NA,complete,NA,62f1386c8a52bea0d662c6b9,computer,Desktop or Laptop,Mac OS 10.15.6,Safari 15.6,820x1180,1180x713,NA,ITT Ratings,2,for,7,NA,NA,NA,NA,NA,ACCEPT,NA,NA,NA,NA,batch7pro,batch7pro,30,3,1,Screen 1,continueButton,response_rating_scale_likert_active,1650.0000000000018,NA,NA,Disagree,1,0,1,0,NA,NA,NA,NA,1,statements,I believe it's a conspiracy,1,17/06/2021 12:55,17/06/2021 13:01,IP Address,For (I feel positively about the vaccines),Never,A few times a year,36,Male,NA,GCSEs,choice,65,3,For,Against
6,1659975832410,08/08/2022 16:23:52,1659975832317,1,08/08/2022 17:23:52,94826,3,task-k2dt,NA,23527555,6895768,NA,complete,NA,62f1386c8a52bea0d662c6b9,computer,Desktop or Laptop,Mac OS 10.15.6,Safari 15.6,820x1180,1180x713,NA,ITT Ratings,2,for,7,NA,NA,NA,NA,NA,ACCEPT,NA,NA,NA,NA,batch7pro,batch7pro,59,4,1,Screen 1,continueButton,response_rating_scale_likert_active,3884,NA,NA,Disagree,1,0,1,0,NA,NA,NA,NA,1,statements,Vaccines aren't effective - there's a new flu jab every year because of mutations,1,17/06/2021 12:56,17/06/2021 13:02,IP Address,For (I feel positively about the vaccines),Most months,Most days,21,Female,NA,A levels,choice,70,2,For,Against
7,1659975833930,08/08/2022 16:23:53,1659975833812,1,08/08/2022 17:23:53,94826,3,task-k2dt,NA,23527555,6895768,NA,complete,NA,62f1386c8a52bea0d662c6b9,computer,Desktop or Laptop,Mac OS 10.15.6,Safari 15.6,820x1180,1180x713,NA,ITT Ratings,2,for,7,NA,NA,NA,NA,NA,ACCEPT,NA,NA,NA,NA,batch7pro,batch7pro,21,5,1,Screen 1,continueButton,response_rating_scale_likert_active,1482,NA,NA,Agree,1,0,1,0,NA,NA,NA,NA,1,statements,I want to protect my loved ones,1,17/06/2021 12:48,17/06/2021 13:00,IP Address,For (I feel positively about the vaccines),Rarely,A few times a year,38,Female,NA,"Postgraduate degree (MSc, MA, MPhil)",control,63,3,For,For
8,1659975835841,08/08/2022 16:23:55,1659975835743,1,08/08/2022 17:23:55,94826,3,task-k2dt,NA,23527555,6895768,NA,complete,NA,62f1386c8a52bea0d662c6b9,computer,Desktop or Laptop,Mac OS 10.15.6,Safari 15.6,820x1180,1180x713,NA,ITT Ratings,2,for,7,NA,NA,NA,NA,NA,ACCEPT,NA,NA,NA,NA,batch7pro,batch7pro,58,6,1,Screen 1,continueButton,response_rating_scale_likert_active,1912,NA,NA,Strongly Disagree,1,0,1,0,NA,NA,NA,NA,1,statements,I don't know whats in them - how can they produce something effective so quickly,1,17/06/2021 12:56,17/06/2021 13:02,IP Address,For (I feel positively about the vaccines),Most months,Most days,21,Female,NA,A levels,choice,70,1,For,Against
9,1659975837241,08/08/2022 16:23:57,1659975837136,1,08/08/2022 17:23:57,94826,3,task-k2dt,NA,23527555,6895768,NA,complete,NA,62f1386c8a52bea0d662c6b9,computer,Desktop or Laptop,Mac OS 10.15.6,Safari 15.6,820x1180,1180x713,NA,ITT Ratings,2,for,7,NA,NA,NA,NA,NA,ACCEPT,NA,NA,NA,NA,batch7pro,batch7pro,23,7,1,Screen 1,continueButton,response_rating_scale_likert_active,1380,NA,NA,Strongly Disagree,1,0,1,0,NA,NA,NA,NA,1,statements,It won't work and cause damage to our insides,1,17/06/2021 12:48,17/06/2021 13:01,IP Address,For (I feel positively about the vaccines),Rarely,Most weeks,27,Female,NA,A levels,choice,64,2,For,Against
10,1659975840303,08/08/2022 16:24:00,1659975840202,1,08/08/2022 17:24:00,94826,3,task-k2dt,NA,23527555,6895768,NA,complete,NA,62f1386c8a52bea0d662c6b9,computer,Desktop or Laptop,Mac OS 10.15.6,Safari 15.6,820x1180,1180x713,NA,ITT Ratings,2,for,7,NA,NA,NA,NA,NA,ACCEPT,NA,NA,NA,NA,batch7pro,batch7pro,2,8,1,Screen 1,continueButton,response_rating_scale_likert_active,3051,NA,NA,Somewhat Agree,1,0,1,0,NA,NA,NA,NA,1,statements,We would like to check you are reading each argument carefully. Please select 'Somewhat Agree' for this answer,1,NA,NA,NA,NA,NA,NA,NA,NA,NA,NA,NA,NA,check1,NA,NA
11,1659975841821,08/08/2022 16:24:01,1659975841726,1,08/08/2022 17:24:01,94826,3,task-k2dt,NA,23527555,6895768,NA,complete,NA,62f1386c8a52bea0d662c6b9,computer,Desktop or Laptop,Mac OS 10.15.6,Safari 15.6,820x1180,1180x713,NA,ITT Ratings,2,for,7,NA,NA,NA,NA,NA,ACCEPT,NA,NA,NA,NA,batch7pro,batch7pro,42,9,1,Screen 1,continueButton,response_rating_scale_likert_active,1507,NA,NA,Disagree,1,0,1,0,NA,NA,NA,NA,1,statements,The vaccine is dangerous,1,17/06/2021 12:56,17/06/2021 13:01,IP Address,For (I feel positively about the vaccines),Rarely,A few times a year,20,Female,NA,A levels,choice,67,3,For,Against
12,1659975843292,08/08/2022 16:24:03,1659975842855,1,08/08/2022 17:24:02,94826,3,task-k2dt,NA,23527555,6895768,NA,complete,NA,62f1386c8a52bea0d662c6b9,computer,Desktop or Laptop,Mac OS 10.15.6,Safari 15.6,820x1180,1180x713,NA,ITT Ratings,2,for,7,NA,NA,NA,NA,NA,ACCEPT,NA,NA,NA,NA,batch7pro,batch7pro,22,10,1,Screen 1,continueButton,response_rating_scale_likert_active,1114,NA,NA,Disagree,1,0,1,0,NA,NA,NA,NA,1,statements,It's harmful to the human body,1,17/06/2021 12:48,17/06/2021 13:01,IP Address,For (I feel positively about the vaccines),Rarely,Most weeks,27,Female,NA,A levels,choice,64,1,For,Against
13,1659975844051,08/08/2022 16:24:04,1659975843940,1,08/08/2022 17:24:03,94826,3,task-k2dt,NA,23527555,6895768,NA,complete,NA,62f1386c8a52bea0d662c6b9,computer,Desktop or Laptop,Mac OS 10.15.6,Safari 15.6,820x1180,1180x713,NA,ITT Ratings,2,for,7,NA,NA,NA,NA,NA,ACCEPT,NA,NA,NA,NA,batch7pro,batch7pro,18,11,1,Screen 1,continueButton,response_rating_scale_likert_active,1062.0000000000036,NA,NA,Disagree,1,0,1,0,NA,NA,NA,NA,1,statements,I don't believe in vaccinations,1,17/06/2021 12:48,17/06/2021 13:00,IP Address,For (I feel positively about the vaccines),Rarely,A few times a year,38,Female,NA,"Postgraduate degree (MSc, MA, MPhil)",control,63,3,For,Against
14,1659975846593,08/08/2022 16:24:06,1659975846488,1,08/08/2022 17:24:06,94826,3,task-k2dt,NA,23527555,6895768,NA,complete,NA,62f1386c8a52bea0d662c6b9,computer,Desktop or Laptop,Mac OS 10.15.6,Safari 15.6,820x1180,1180x713,NA,ITT Ratings,2,for,7,NA,NA,NA,NA,NA,ACCEPT,NA,NA,NA,NA,batch7pro,batch7pro,37,12,1,Screen 1,continueButton,response_rating_scale_likert_active,2527,NA,NA,Strongly Disagree,1,0,1,0,NA,NA,NA,NA,1,statements,I'm classed in a vulnerable category so getting the vaccine would help reduce the risk f me catching it and getting serious symptoms,1,17/06/2021 12:47,17/06/2021 13:01,IP Address,For (I feel positively about the vaccines),Most months,Most weeks,18,Male,NA,A levels,choice,66,1,For,For
15,1659975848593,08/08/2022 16:24:08,1659975848493,1,08/08/2022 17:24:08,94826,3,task-k2dt,NA,23527555,6895768,NA,complete,NA,62f1386c8a52bea0d662c6b9,computer,Desktop or Laptop,Mac OS 10.15.6,Safari 15.6,820x1180,1180x713,NA,ITT Ratings,2,for,7,NA,NA,NA,NA,NA,ACCEPT,NA,NA,NA,NA,batch7pro,batch7pro,24,13,1,Screen 1,continueButton,response_rating_scale_likert_active,1987.9999999999964,NA,NA,Strongly Disagree,1,0,1,0,NA,NA,NA,NA,1,statements,It's a government thing to track us and keep an eye on us,1,17/06/2021 12:48,17/06/2021 13:01,IP Address,For (I feel positively about the vaccines),Rarely,Most weeks,27,Female,NA,A levels,choice,64,3,For,Against
16,1659975851223,08/08/2022 16:24:11,1659975851118,1,08/08/2022 17:24:11,94826,3,task-k2dt,NA,23527555,6895768,NA,complete,NA,62f1386c8a52bea0d662c6b9,computer,Desktop or Laptop,Mac OS 10.15.6,Safari 15.6,820x1180,1180x713,NA,ITT Ratings,2,for,7,NA,NA,NA,NA,NA,ACCEPT,NA,NA,NA,NA,batch7pro,batch7pro,15,14,1,Screen 1,continueButton,response_rating_scale_likert_active,2610,NA,NA,Agree,1,0,1,0,NA,NA,NA,NA,1,statements,I see no reason to not get vaccinated and I have been asked to do so,1,17/06/2021 12:55,17/06/2021 13:00,IP Address,For (I feel positively about the vaccines),A few times a year,Most months,26,Female,NA,"Postgraduate degree (MSc, MA, MPhil)",control,62,3,For,For
17,1659975852236,08/08/2022 16:24:12,1659975852135,1,08/08/2022 17:24:12,94826,3,task-k2dt,NA,23527555,6895768,NA,complete,NA,62f1386c8a52bea0d662c6b9,computer,Desktop or Laptop,Mac OS 10.15.6,Safari 15.6,820x1180,1180x713,NA,ITT Ratings,2,for,7,NA,NA,NA,NA,NA,ACCEPT,NA,NA,NA,NA,batch7pro,batch7pro,8,15,1,Screen 1,continueButton,response_rating_scale_likert_active,1001,NA,NA,Agree,1,0,1,0,NA,NA,NA,NA,1,statements,Protect us from virus,1,17/06/2021 12:49,17/06/2021 13:00,IP Address,For (I feel positively about the vaccines),Most days,Never,33,Female,NA,GCSEs,choice,61,2,For,For
18,1659975853772,08/08/2022 16:24:13,1659975853691,1,08/08/2022 17:24:13,94826,3,task-k2dt,NA,23527555,6895768,NA,complete,NA,62f1386c8a52bea0d662c6b9,computer,Desktop or Laptop,Mac OS 10.15.6,Safari 15.6,820x1180,1180x713,NA,ITT Ratings,2,for,7,NA,NA,NA,NA,NA,ACCEPT,NA,NA,NA,NA,batch7pro,batch7pro,60,16,1,Screen 1,continueButton,response_rating_scale_likert_active,1540.9999999999927,NA,NA,Disagree,1,0,1,0,NA,NA,NA,NA,1,statements,Coronavirus doesn't exist/is a conspiracy,1,17/06/2021 12:56,17/06/2021 13:02,IP Address,For (I feel positively about the vaccines),Most months,Most days,21,Female,NA,A levels,choice,70,3,For,Against
19,1659975855917,08/08/2022 16:24:15,1659975855825,1,08/08/2022 17:24:15,94826,3,task-k2dt,NA,23527555,6895768,NA,complete,NA,62f1386c8a52bea0d662c6b9,computer,Desktop or Laptop,Mac OS 10.15.6,Safari 15.6,820x1180,1180x713,NA,ITT Ratings,2,for,7,NA,NA,NA,NA,NA,ACCEPT,NA,NA,NA,NA,batch7pro,batch7pro,53,17,1,Screen 1,continueButton,response_rating_scale_likert_active,2122,NA,NA,Strongly Disagree,1,0,1,0,NA,NA,NA,NA,1,statements,It's dangerous and gives you a dose of covid,1,17/06/2021 12:50,17/06/2021 13:02,IP Address,For (I feel positively about the vaccines),Rarely,Once or twice a year,42,Female,NA,"Undergraduate degree (BSc, BA)",choice,69,2,For,Against
20,1659975857931,08/08/2022 16:24:17,1659975857833,1,08/08/2022 17:24:17,94826,3,task-k2dt,NA,23527555,6895768,NA,complete,NA,62f1386c8a52bea0d662c6b9,computer,Desktop or Laptop,Mac OS 10.15.6,Safari 15.6,820x1180,1180x713,NA,ITT Ratings,2,for,7,NA,NA,NA,NA,NA,ACCEPT,NA,NA,NA,NA,batch7pro,batch7pro,41,18,1,Screen 1,continueButton,response_rating_scale_likert_active,1994,NA,NA,Strongly Disagree,1,0,1,0,NA,NA,NA,NA,1,statements,The development has been rushed,1,17/06/2021 12:56,17/06/2021 13:01,IP Address,For (I feel positively about the vaccines),Rarely,A few times a year,20,Female,NA,A levels,choice,67,2,For,Against
21,1659975862450,08/08/2022 16:24:22,1659975862349,1,08/08/2022 17:24:22,94826,3,task-k2dt,NA,23527555,6895768,NA,complete,NA,62f1386c8a52bea0d662c6b9,computer,Desktop or Laptop,Mac OS 10.15.6,Safari 15.6,820x1180,1180x713,NA,ITT Ratings,2,for,7,NA,NA,NA,NA,NA,ACCEPT,NA,NA,NA,NA,batch7pro,batch7pro,36,19,1,Screen 1,continueButton,response_rating_scale_likert_active,4500,NA,NA,Agree,1,0,1,0,NA,NA,NA,NA,1,statements,Although it seems that the vaccine making process has been rushed it has still gone through the normal rigorous testing required to make sure its safe.,1,17/06/2021 12:47,17/06/2021 13:01,IP Address,For (I feel positively about the vaccines),Most months,Most weeks,18,Male,NA,A levels,choice,66,3,For,Against
22,1659975864100,08/08/2022 16:24:24,1659975864007,1,08/08/2022 17:24:24,94826,3,task-k2dt,NA,23527555,6895768,NA,complete,NA,62f1386c8a52bea0d662c6b9,computer,Desktop or Laptop,Mac OS 10.15.6,Safari 15.6,820x1180,1180x713,NA,ITT Ratings,2,for,7,NA,NA,NA,NA,NA,ACCEPT,NA,NA,NA,NA,batch7pro,batch7pro,52,20,1,Screen 1,continueButton,response_rating_scale_likert_active,1643,NA,NA,Strongly Disagree,1,0,1,0,NA,NA,NA,NA,1,statements,It was developed too quickly so doesn’t work well,1,17/06/2021 12:50,17/06/2021 13:02,IP Address,For (I feel positively about the vaccines),Rarely,Once or twice a year,42,Female,NA,"Undergraduate degree (BSc, BA)",choice,69,1,For,Against
23,1659975865479,08/08/2022 16:24:25,1659975865392,1,08/08/2022 17:24:25,94826,3,task-k2dt,NA,23527555,6895768,NA,complete,NA,62f1386c8a52bea0d662c6b9,computer,Desktop or Laptop,Mac OS 10.15.6,Safari 15.6,820x1180,1180x713,NA,ITT Ratings,2,for,7,NA,NA,NA,NA,NA,ACCEPT,NA,NA,NA,NA,batch7pro,batch7pro,17,21,1,Screen 1,continueButton,response_rating_scale_likert_active,1373,NA,NA,Strongly Disagree,1,0,1,0,NA,NA,NA,NA,1,statements,I am worried about long term effects,1,17/06/2021 12:48,17/06/2021 13:00,IP Address,For (I feel positively about the vaccines),Rarely,A few times a year,38,Female,NA,"Postgraduate degree (MSc, MA, MPhil)",control,63,2,For,Against
24,1659975867634,08/08/2022 16:24:27,1659975867535,1,08/08/2022 17:24:27,94826,3,task-k2dt,NA,23527555,6895768,NA,complete,NA,62f1386c8a52bea0d662c6b9,computer,Desktop or Laptop,Mac OS 10.15.6,Safari 15.6,820x1180,1180x713,NA,ITT Ratings,2,for,7,NA,NA,NA,NA,NA,ACCEPT,NA,NA,NA,NA,batch7pro,batch7pro,29,22,1,Screen 1,continueButton,response_rating_scale_likert_active,2129.0000000000073,NA,NA,Strongly Disagree,1,0,1,0,NA,NA,NA,NA,1,statements,It isn't necessary unless you're a vulnerable person,1,17/06/2021 12:55,17/06/2021 13:01,IP Address,For (I feel positively about the vaccines),Never,A few times a year,36,Male,NA,GCSEs,choice,65,2,For,Against
25,1659975869685,08/08/2022 16:24:29,1659975869592,1,08/08/2022 17:24:29,94826,3,task-k2dt,NA,23527555,6895768,NA,complete,NA,62f1386c8a52bea0d662c6b9,computer,Desktop or Laptop,Mac OS 10.15.6,Safari 15.6,820x1180,1180x713,NA,ITT Ratings,2,for,7,NA,NA,NA,NA,NA,ACCEPT,NA,NA,NA,NA,batch7pro,batch7pro,27,23,1,Screen 1,continueButton,response_rating_scale_likert_active,2042,NA,NA,Agree,1,0,1,0,NA,NA,NA,NA,1,statements,It will help protect me and others around me,1,17/06/2021 12:48,17/06/2021 13:01,IP Address,For (I feel positively about the vaccines),Rarely,Most weeks,27,Female,NA,A levels,choice,64,3,For,For
26,1659975870748,08/08/2022 16:24:30,1659975870652,1,08/08/2022 17:24:30,94826,3,task-k2dt,NA,23527555,6895768,NA,complete,NA,62f1386c8a52bea0d662c6b9,computer,Desktop or Laptop,Mac OS 10.15.6,Safari 15.6,820x1180,1180x713,NA,ITT Ratings,2,for,7,NA,NA,NA,NA,NA,ACCEPT,NA,NA,NA,NA,batch7pro,batch7pro,55,24,1,Screen 1,continueButton,response_rating_scale_likert_active,1043,NA,NA,Agree,1,0,1,0,NA,NA,NA,NA,1,statements,It protects you and your family against the virus,1,17/06/2021 12:50,17/06/2021 13:02,IP Address,For (I feel positively about the vaccines),Rarely,Once or twice a year,42,Female,NA,"Undergraduate degree (BSc, BA)",choice,69,1,For,For
27,1659975871763,08/08/2022 16:24:31,1659975871659,1,08/08/2022 17:24:31,94826,3,task-k2dt,NA,23527555,6895768,NA,complete,NA,62f1386c8a52bea0d662c6b9,computer,Desktop or Laptop,Mac OS 10.15.6,Safari 15.6,820x1180,1180x713,NA,ITT Ratings,2,for,7,NA,NA,NA,NA,NA,ACCEPT,NA,NA,NA,NA,batch7pro,batch7pro,9,25,1,Screen 1,continueButton,response_rating_scale_likert_active,988,NA,NA,Agree,1,0,1,0,NA,NA,NA,NA,1,statements,Protecting others from the virus,1,17/06/2021 12:49,17/06/2021 13:00,IP Address,For (I feel positively about the vaccines),Most days,Never,33,Female,NA,GCSEs,choice,61,3,For,For
28,1659975873124,08/08/2022 16:24:33,1659975873032,1,08/08/2022 17:24:33,94826,3,task-k2dt,NA,23527555,6895768,NA,complete,NA,62f1386c8a52bea0d662c6b9,computer,Desktop or Laptop,Mac OS 10.15.6,Safari 15.6,820x1180,1180x713,NA,ITT Ratings,2,for,7,NA,NA,NA,NA,NA,ACCEPT,NA,NA,NA,NA,batch7pro,batch7pro,16,26,1,Screen 1,continueButton,response_rating_scale_likert_active,1355.0000000000073,NA,NA,Disagree,1,0,1,0,NA,NA,NA,NA,1,statements,I don't know enough about it,1,17/06/2021 12:48,17/06/2021 13:00,IP Address,For (I feel positively about the vaccines),Rarely,A few times a year,38,Female,NA,"Postgraduate degree (MSc, MA, MPhil)",control,63,1,For,Against
29,1659975875125,08/08/2022 16:24:35,1659975874968,1,08/08/2022 17:24:34,94826,3,task-k2dt,NA,23527555,6895768,NA,complete,NA,62f1386c8a52bea0d662c6b9,computer,Desktop or Laptop,Mac OS 10.15.6,Safari 15.6,820x1180,1180x713,NA,ITT Ratings,2,for,7,NA,NA,NA,NA,NA,ACCEPT,NA,NA,NA,NA,batch7pro,batch7pro,12,27,1,Screen 1,continueButton,response_rating_scale_likert_active,1921,NA,NA,Strongly Disagree,1,0,1,0,NA,NA,NA,NA,1,statements,I have been told by a medical professional not to have one,1,17/06/2021 12:55,17/06/2021 13:00,IP Address,For (I feel positively about the vaccines),A few times a year,Most months,26,Female,NA,"Postgraduate degree (MSc, MA, MPhil)",control,62,3,For,Against
30,1659975876557,08/08/2022 16:24:36,1659975876431,1,08/08/2022 17:24:36,94826,3,task-k2dt,NA,23527555,6895768,NA,complete,NA,62f1386c8a52bea0d662c6b9,computer,Desktop or Laptop,Mac OS 10.15.6,Safari 15.6,820x1180,1180x713,NA,ITT Ratings,2,for,7,NA,NA,NA,NA,NA,ACCEPT,NA,NA,NA,NA,batch7pro,batch7pro,32,28,1,Screen 1,continueButton,response_rating_scale_likert_active,1447,NA,NA,Agree,1,0,1,0,NA,NA,NA,NA,1,statements,I want to protect vulnerable family members,1,17/06/2021 12:55,17/06/2021 13:01,IP Address,For (I feel positively about the vaccines),Never,A few times a year,36,Male,NA,GCSEs,choice,65,2,For,For
31,1659975878270,08/08/2022 16:24:38,1659975878107,1,08/08/2022 17:24:38,94826,3,task-k2dt,NA,23527555,6895768,NA,complete,NA,62f1386c8a52bea0d662c6b9,computer,Desktop or Laptop,Mac OS 10.15.6,Safari 15.6,820x1180,1180x713,NA,ITT Ratings,2,for,7,NA,NA,NA,NA,NA,ACCEPT,NA,NA,NA,NA,batch7pro,batch7pro,25,29,1,Screen 1,continueButton,response_rating_scale_likert_active,1663.0000000000073,NA,NA,Agree,1,0,1,0,NA,NA,NA,NA,1,statements,Having the vaccine is less painful then the disease.,1,17/06/2021 12:48,17/06/2021 13:01,IP Address,For (I feel positively about the vaccines),Rarely,Most weeks,27,Female,NA,A levels,choice,64,1,For,For
32,1659975879634,08/08/2022 16:24:39,1659975879542,1,08/08/2022 17:24:39,94826,3,task-k2dt,NA,23527555,6895768,NA,complete,NA,62f1386c8a52bea0d662c6b9,computer,Desktop or Laptop,Mac OS 10.15.6,Safari 15.6,820x1180,1180x713,NA,ITT Ratings,2,for,7,NA,NA,NA,NA,NA,ACCEPT,NA,NA,NA,NA,batch7pro,batch7pro,14,30,1,Screen 1,continueButton,response_rating_scale_likert_active,1421,NA,NA,Agree,1,0,1,0,NA,NA,NA,NA,1,statements,I want to protect others from covid,1,17/06/2021 12:55,17/06/2021 13:00,IP Address,For (I feel positively about the vaccines),A few times a year,Most months,26,Female,NA,"Postgraduate degree (MSc, MA, MPhil)",control,62,2,For,For
33,1659975881640,08/08/2022 16:24:41,1659975881556,1,08/08/2022 17:24:41,94826,3,task-k2dt,NA,23527555,6895768,NA,complete,NA,62f1386c8a52bea0d662c6b9,computer,Desktop or Laptop,Mac OS 10.15.6,Safari 15.6,820x1180,1180x713,NA,ITT Ratings,2,for,7,NA,NA,NA,NA,NA,ACCEPT,NA,NA,NA,NA,batch7pro,batch7pro,3,31,1,Screen 1,continueButton,response_rating_scale_likert_active,1997,NA,NA,Somewhat Disagree,1,0,1,0,NA,NA,NA,NA,1,statements,We would like to check you are reading each argument carefully. Please select 'Somewhat Disagree' for this answer,1,NA,NA,NA,NA,NA,NA,NA,NA,NA,NA,NA,NA,check2,NA,NA
34,1659975883913,08/08/2022 16:24:43,1659975883798,1,08/08/2022 17:24:43,94826,3,task-k2dt,NA,23527555,6895768,NA,complete,NA,62f1386c8a52bea0d662c6b9,computer,Desktop or Laptop,Mac OS 10.15.6,Safari 15.6,820x1180,1180x713,NA,ITT Ratings,2,for,7,NA,NA,NA,NA,NA,ACCEPT,NA,NA,NA,NA,batch7pro,batch7pro,56,32,1,Screen 1,continueButton,response_rating_scale_likert_active,2229,NA,NA,Strongly Agree,1,0,1,0,NA,NA,NA,NA,1,statements,It will mean our lives can start to get back to normal,1,17/06/2021 12:50,17/06/2021 13:02,IP Address,For (I feel positively about the vaccines),Rarely,Once or twice a year,42,Female,NA,"Undergraduate degree (BSc, BA)",choice,69,2,For,For
35,1659975885001,08/08/2022 16:24:45,1659975884896,1,08/08/2022 17:24:44,94826,3,task-k2dt,NA,23527555,6895768,NA,complete,NA,62f1386c8a52bea0d662c6b9,computer,Desktop or Laptop,Mac OS 10.15.6,Safari 15.6,820x1180,1180x713,NA,ITT Ratings,2,for,7,NA,NA,NA,NA,NA,ACCEPT,NA,NA,NA,NA,batch7pro,batch7pro,19,33,1,Screen 1,continueButton,response_rating_scale_likert_active,1084.0000000000146,NA,NA,Strongly Agree,1,0,1,0,NA,NA,NA,NA,1,statements,I want to be protected,1,17/06/2021 12:48,17/06/2021 13:00,IP Address,For (I feel positively about the vaccines),Rarely,A few times a year,38,Female,NA,"Postgraduate degree (MSc, MA, MPhil)",control,63,1,For,For
36,1659975886322,08/08/2022 16:24:46,1659975886224,1,08/08/2022 17:24:46,94826,3,task-k2dt,NA,23527555,6895768,NA,complete,NA,62f1386c8a52bea0d662c6b9,computer,Desktop or Laptop,Mac OS 10.15.6,Safari 15.6,820x1180,1180x713,NA,ITT Ratings,2,for,7,NA,NA,NA,NA,NA,ACCEPT,NA,NA,NA,NA,batch7pro,batch7pro,46,34,1,Screen 1,continueButton,response_rating_scale_likert_active,1310,NA,NA,Disagree,1,0,1,0,NA,NA,NA,NA,1,statements,I just don't want one,1,17/06/2021 12:49,17/06/2021 13:02,IP Address,For (I feel positively about the vaccines),Most months,A few times a year,35,Male,NA,Vocational Training / Apprenticeship,control,68,1,For,Against
37,1659975888107,08/08/2022 16:24:48,1659975888006,1,08/08/2022 17:24:48,94826,3,task-k2dt,NA,23527555,6895768,NA,complete,NA,62f1386c8a52bea0d662c6b9,computer,Desktop or Laptop,Mac OS 10.15.6,Safari 15.6,820x1180,1180x713,NA,ITT Ratings,2,for,7,NA,NA,NA,NA,NA,ACCEPT,NA,NA,NA,NA,batch7pro,batch7pro,43,35,1,Screen 1,continueButton,response_rating_scale_likert_active,1769.0000000000146,NA,NA,Agree,1,0,1,0,NA,NA,NA,NA,1,statements,"If everyone is vaccinated, vulnerable people will be safer",1,17/06/2021 12:56,17/06/2021 13:01,IP Address,For (I feel positively about the vaccines),Rarely,A few times a year,20,Female,NA,A levels,choice,67,1,For,For
38,1659975889046,08/08/2022 16:24:49,1659975888933,1,08/08/2022 17:24:48,94826,3,task-k2dt,NA,23527555,6895768,NA,complete,NA,62f1386c8a52bea0d662c6b9,computer,Desktop or Laptop,Mac OS 10.15.6,Safari 15.6,820x1180,1180x713,NA,ITT Ratings,2,for,7,NA,NA,NA,NA,NA,ACCEPT,NA,NA,NA,NA,batch7pro,batch7pro,50,36,1,Screen 1,continueButton,response_rating_scale_likert_active,912,NA,NA,Agree,1,0,1,0,NA,NA,NA,NA,1,statements,get life back to normal,1,17/06/2021 12:49,17/06/2021 13:02,IP Address,For (I feel positively about the vaccines),Most months,A few times a year,35,Male,NA,Vocational Training / Apprenticeship,control,68,2,For,For
39,1659975890777,08/08/2022 16:24:50,1659975890674,1,08/08/2022 17:24:50,94826,3,task-k2dt,NA,23527555,6895768,NA,complete,NA,62f1386c8a52bea0d662c6b9,computer,Desktop or Laptop,Mac OS 10.15.6,Safari 15.6,820x1180,1180x713,NA,ITT Ratings,2,for,7,NA,NA,NA,NA,NA,ACCEPT,NA,NA,NA,NA,batch7pro,batch7pro,26,37,1,Screen 1,continueButton,response_rating_scale_likert_active,1725,NA,NA,Strongly Agree,1,0,1,0,NA,NA,NA,NA,1,statements,They wouldn't give it us if it wasn't safe,1,17/06/2021 12:48,17/06/2021 13:01,IP Address,For (I feel positively about the vaccines),Rarely,Most weeks,27,Female,NA,A levels,choice,64,2,For,For
40,1659975892193,08/08/2022 16:24:52,1659975892099,1,08/08/2022 17:24:52,94826,3,task-k2dt,NA,23527555,6895768,NA,complete,NA,62f1386c8a52bea0d662c6b9,computer,Desktop or Laptop,Mac OS 10.15.6,Safari 15.6,820x1180,1180x713,NA,ITT Ratings,2,for,7,NA,NA,NA,NA,NA,ACCEPT,NA,NA,NA,NA,batch7pro,batch7pro,4,38,1,Screen 1,continueButton,response_rating_scale_likert_active,1410,NA,NA,Disagree,1,0,1,0,NA,NA,NA,NA,1,statements,The government are putting a chip inside us,1,17/06/2021 12:49,17/06/2021 13:00,IP Address,For (I feel positively about the vaccines),Most days,Never,33,Female,NA,GCSEs,choice,61,1,For,Against
41,1659975893927,08/08/2022 16:24:53,1659975893848,1,08/08/2022 17:24:53,94826,3,task-k2dt,NA,23527555,6895768,NA,complete,NA,62f1386c8a52bea0d662c6b9,computer,Desktop or Laptop,Mac OS 10.15.6,Safari 15.6,820x1180,1180x713,NA,ITT Ratings,2,for,7,NA,NA,NA,NA,NA,ACCEPT,NA,NA,NA,NA,batch7pro,batch7pro,10,39,1,Screen 1,continueButton,response_rating_scale_likert_active,1735,NA,NA,Strongly Disagree,1,0,1,0,NA,NA,NA,NA,1,statements,I've read something on social media which has told me not to,1,17/06/2021 12:55,17/06/2021 13:00,IP Address,For (I feel positively about the vaccines),A few times a year,Most months,26,Female,NA,"Postgraduate degree (MSc, MA, MPhil)",control,62,1,For,Against
42,1659975895865,08/08/2022 16:24:55,1659975895772,1,08/08/2022 17:24:55,94826,3,task-k2dt,NA,23527555,6895768,NA,complete,NA,62f1386c8a52bea0d662c6b9,computer,Desktop or Laptop,Mac OS 10.15.6,Safari 15.6,820x1180,1180x713,NA,ITT Ratings,2,for,7,NA,NA,NA,NA,NA,ACCEPT,NA,NA,NA,NA,batch7pro,batch7pro,39,40,1,Screen 1,continueButton,response_rating_scale_likert_active,1910,NA,NA,Strongly Agree,1,0,1,0,NA,NA,NA,NA,1,statements,To contribute to herd immunity to help eradicate the virus altogether.,1,17/06/2021 12:47,17/06/2021 13:01,IP Address,For (I feel positively about the vaccines),Most months,Most weeks,18,Male,NA,A levels,choice,66,3,For,For
43,1659975898239,08/08/2022 16:24:58,1659975898138,1,08/08/2022 17:24:58,94826,3,task-k2dt,NA,23527555,6895768,NA,complete,NA,62f1386c8a52bea0d662c6b9,computer,Desktop or Laptop,Mac OS 10.15.6,Safari 15.6,820x1180,1180x713,NA,ITT Ratings,2,for,7,NA,NA,NA,NA,NA,ACCEPT,NA,NA,NA,NA,batch7pro,batch7pro,47,41,1,Screen 1,continueButton,response_rating_scale_likert_active,2353,NA,NA,Strongly Disagree,1,0,1,0,NA,NA,NA,NA,1,statements,i dont trust there ......,1,17/06/2021 12:49,17/06/2021 13:02,IP Address,For (I feel positively about the vaccines),Most months,A few times a year,35,Male,NA,Vocational Training / Apprenticeship,control,68,2,For,Against
44,1659975900041,08/08/2022 16:25:00,1659975899939,1,08/08/2022 17:24:59,94826,3,task-k2dt,NA,23527555,6895768,NA,complete,NA,62f1386c8a52bea0d662c6b9,computer,Desktop or Laptop,Mac OS 10.15.6,Safari 15.6,820x1180,1180x713,NA,ITT Ratings,2,for,7,NA,NA,NA,NA,NA,ACCEPT,NA,NA,NA,NA,batch7pro,batch7pro,28,42,1,Screen 1,continueButton,response_rating_scale_likert_active,1788,NA,NA,Disagree,1,0,1,0,NA,NA,NA,NA,1,statements,There hasn't been enough time to develop it safely,1,17/06/2021 12:55,17/06/2021 13:01,IP Address,For (I feel positively about the vaccines),Never,A few times a year,36,Male,NA,GCSEs,choice,65,1,For,Against
45,1659975902141,08/08/2022 16:25:02,1659975902038,1,08/08/2022 17:25:02,94826,3,task-k2dt,NA,23527555,6895768,NA,complete,NA,62f1386c8a52bea0d662c6b9,computer,Desktop or Laptop,Mac OS 10.15.6,Safari 15.6,820x1180,1180x713,NA,ITT Ratings,2,for,7,NA,NA,NA,NA,NA,ACCEPT,NA,NA,NA,NA,batch7pro,batch7pro,34,43,1,Screen 1,continueButton,response_rating_scale_likert_active,2084,NA,NA,Agree,1,0,1,0,NA,NA,NA,NA,1,statements,The vaccines are effective as they can keep you from getting and spreading the virus that causes COVID-19.,1,17/06/2021 12:47,17/06/2021 13:01,IP Address,For (I feel positively about the vaccines),Most months,Most weeks,18,Male,NA,A levels,choice,66,1,For,Against
46,1659975903407,08/08/2022 16:25:03,1659975903304,1,08/08/2022 17:25:03,94826,3,task-k2dt,NA,23527555,6895768,NA,complete,NA,62f1386c8a52bea0d662c6b9,computer,Desktop or Laptop,Mac OS 10.15.6,Safari 15.6,820x1180,1180x713,NA,ITT Ratings,2,for,7,NA,NA,NA,NA,NA,ACCEPT,NA,NA,NA,NA,batch7pro,batch7pro,6,44,1,Screen 1,continueButton,response_rating_scale_likert_active,1254,NA,NA,Disagree,1,0,1,0,NA,NA,NA,NA,1,statements,I think it's a scam,1,17/06/2021 12:49,17/06/2021 13:00,IP Address,For (I feel positively about the vaccines),Most days,Never,33,Female,NA,GCSEs,choice,61,3,For,Against
47,1659975905495,08/08/2022 16:25:05,1659975905405,1,08/08/2022 17:25:05,94826,3,task-k2dt,NA,23527555,6895768,NA,complete,NA,62f1386c8a52bea0d662c6b9,computer,Desktop or Laptop,Mac OS 10.15.6,Safari 15.6,820x1180,1180x713,NA,ITT Ratings,2,for,7,NA,NA,NA,NA,NA,ACCEPT,NA,NA,NA,NA,batch7pro,batch7pro,48,45,1,Screen 1,continueButton,response_rating_scale_likert_active,2089.0000000000146,NA,NA,Strongly Disagree,1,0,1,0,NA,NA,NA,NA,1,statements,the body needs to deal with this natural.,1,17/06/2021 12:49,17/06/2021 13:02,IP Address,For (I feel positively about the vaccines),Most months,A few times a year,35,Male,NA,Vocational Training / Apprenticeship,control,68,3,For,Against
48,1659975906840,08/08/2022 16:25:06,1659975906738,1,08/08/2022 17:25:06,94826,3,task-k2dt,NA,23527555,6895768,NA,complete,NA,62f1386c8a52bea0d662c6b9,computer,Desktop or Laptop,Mac OS 10.15.6,Safari 15.6,820x1180,1180x713,NA,ITT Ratings,2,for,7,NA,NA,NA,NA,NA,ACCEPT,NA,NA,NA,NA,batch7pro,batch7pro,57,46,1,Screen 1,continueButton,response_rating_scale_likert_active,1323,NA,NA,Strongly Agree,1,0,1,0,NA,NA,NA,NA,1,statements,It's safe and developed by experts,1,17/06/2021 12:50,17/06/2021 13:02,IP Address,For (I feel positively about the vaccines),Rarely,Once or twice a year,42,Female,NA,"Undergraduate degree (BSc, BA)",choice,69,3,For,For
49,1659975908908,08/08/2022 16:25:08,1659975908804,1,08/08/2022 17:25:08,94826,3,task-k2dt,NA,23527555,6895768,NA,complete,NA,62f1386c8a52bea0d662c6b9,computer,Desktop or Laptop,Mac OS 10.15.6,Safari 15.6,820x1180,1180x713,NA,ITT Ratings,2,for,7,NA,NA,NA,NA,NA,ACCEPT,NA,NA,NA,NA,batch7pro,batch7pro,63,47,1,Screen 1,continueButton,response_rating_scale_likert_active,2053,NA,NA,Strongly Agree,1,0,1,0,NA,NA,NA,NA,1,statements,I want to protect those who are vulnerable through herd immunity,1,17/06/2021 12:56,17/06/2021 13:02,IP Address,For (I feel positively about the vaccines),Most months,Most days,21,Female,NA,A levels,choice,70,3,For,For
50,1659975910887,08/08/2022 16:25:10,1659975910789,1,08/08/2022 17:25:10,94826,3,task-k2dt,NA,23527555,6895768,NA,complete,NA,62f1386c8a52bea0d662c6b9,computer,Desktop or Laptop,Mac OS 10.15.6,Safari 15.6,820x1180,1180x713,NA,ITT Ratings,2,for,7,NA,NA,NA,NA,NA,ACCEPT,NA,NA,NA,NA,batch7pro,batch7pro,38,48,1,Screen 1,continueButton,response_rating_scale_likert_active,1970,NA,NA,Agree,1,0,1,0,NA,NA,NA,NA,1,statements,Someone I live with is vulnerable too which gives me an incentive to get the vaccine to  keep them safe.,1,17/06/2021 12:47,17/06/2021 13:01,IP Address,For (I feel positively about the vaccines),Most months,Most weeks,18,Male,NA,A levels,choice,66,2,For,For
51,1659975912027,08/08/2022 16:25:12,1659975911934,1,08/08/2022 17:25:11,94826,3,task-k2dt,NA,23527555,6895768,NA,complete,NA,62f1386c8a52bea0d662c6b9,computer,Desktop or Laptop,Mac OS 10.15.6,Safari 15.6,820x1180,1180x713,NA,ITT Ratings,2,for,7,NA,NA,NA,NA,NA,ACCEPT,NA,NA,NA,NA,batch7pro,batch7pro,61,49,1,Screen 1,continueButton,response_rating_scale_likert_active,1129,NA,NA,Strongly Agree,1,0,1,0,NA,NA,NA,NA,1,statements,I want everything to go back to normal,1,17/06/2021 12:56,17/06/2021 13:02,IP Address,For (I feel positively about the vaccines),Most months,Most days,21,Female,NA,A levels,choice,70,1,For,For
52,1659975913436,08/08/2022 16:25:13,1659975913342,1,08/08/2022 17:25:13,94826,3,task-k2dt,NA,23527555,6895768,NA,complete,NA,62f1386c8a52bea0d662c6b9,computer,Desktop or Laptop,Mac OS 10.15.6,Safari 15.6,820x1180,1180x713,NA,ITT Ratings,2,for,7,NA,NA,NA,NA,NA,ACCEPT,NA,NA,NA,NA,batch7pro,batch7pro,20,50,1,Screen 1,continueButton,response_rating_scale_likert_active,1392,NA,NA,Strongly Agree,1,0,1,0,NA,NA,NA,NA,1,statements,I want to have more freedoms again,1,17/06/2021 12:48,17/06/2021 13:00,IP Address,For (I feel positively about the vaccines),Rarely,A few times a year,38,Female,NA,"Postgraduate degree (MSc, MA, MPhil)",control,63,2,For,For
53,1659975914776,08/08/2022 16:25:14,1659975914693,1,08/08/2022 17:25:14,94826,3,task-k2dt,NA,23527555,6895768,NA,complete,NA,62f1386c8a52bea0d662c6b9,computer,Desktop or Laptop,Mac OS 10.15.6,Safari 15.6,820x1180,1180x713,NA,ITT Ratings,2,for,7,NA,NA,NA,NA,NA,ACCEPT,NA,NA,NA,NA,batch7pro,batch7pro,45,51,1,Screen 1,continueButton,response_rating_scale_likert_active,1333,NA,NA,Strongly Agree,1,0,1,0,NA,NA,NA,NA,1,statements,"The quicker society is vaccinated, the quicker normality can return",1,17/06/2021 12:56,17/06/2021 13:01,IP Address,For (I feel positively about the vaccines),Rarely,A few times a year,20,Female,NA,A levels,choice,67,3,For,For
54,1659975916013,08/08/2022 16:25:16,1659975915917,1,08/08/2022 17:25:15,94826,3,task-k2dt,NA,23527555,6895768,NA,complete,NA,62f1386c8a52bea0d662c6b9,computer,Desktop or Laptop,Mac OS 10.15.6,Safari 15.6,820x1180,1180x713,NA,ITT Ratings,2,for,7,NA,NA,NA,NA,NA,ACCEPT,NA,NA,NA,NA,batch7pro,batch7pro,62,52,1,Screen 1,continueButton,response_rating_scale_likert_active,1206,NA,NA,Strongly Agree,1,0,1,0,NA,NA,NA,NA,1,statements,I want to be able to go on holiday if there are vaccine passports,1,17/06/2021 12:56,17/06/2021 13:02,IP Address,For (I feel positively about the vaccines),Most months,Most days,21,Female,NA,A levels,choice,70,2,For,For
55,1659975918047,08/08/2022 16:25:18,1659975917913,1,08/08/2022 17:25:17,94826,3,task-k2dt,NA,23527555,6895768,NA,complete,NA,62f1386c8a52bea0d662c6b9,computer,Desktop or Laptop,Mac OS 10.15.6,Safari 15.6,820x1180,1180x713,NA,ITT Ratings,2,for,7,NA,NA,NA,NA,NA,ACCEPT,NA,NA,NA,NA,batch7pro,batch7pro,49,53,1,Screen 1,continueButton,response_rating_scale_likert_active,1976,NA,NA,Agree,1,0,1,0,NA,NA,NA,NA,1,statements,I don't want to die so i better get one soon.,1,17/06/2021 12:49,17/06/2021 13:02,IP Address,For (I feel positively about the vaccines),Most months,A few times a year,35,Male,NA,Vocational Training / Apprenticeship,control,68,1,For,For
56,1659975921800,08/08/2022 16:25:21,1659975921710,1,08/08/2022 17:25:21,94826,3,task-k2dt,NA,23527555,6895768,NA,complete,NA,62f1386c8a52bea0d662c6b9,computer,Desktop or Laptop,Mac OS 10.15.6,Safari 15.6,820x1180,1180x713,NA,ITT Ratings,2,for,7,NA,NA,NA,NA,NA,ACCEPT,NA,NA,NA,NA,batch7pro,batch7pro,35,54,1,Screen 1,continueButton,response_rating_scale_likert_active,3780,NA,NA,Agree,1,0,1,0,NA,NA,NA,NA,1,statements,Studies have shown that vaccination provides a strong boost in protection in people who have recovered from COVID-19.,1,17/06/2021 12:47,17/06/2021 13:01,IP Address,For (I feel positively about the vaccines),Most months,Most weeks,18,Male,NA,A levels,choice,66,2,For,Against
57,1659975925308,08/08/2022 16:25:25,1659975925210,1,08/08/2022 17:25:25,94826,3,task-k2dt,NA,23527555,6895768,NA,complete,NA,62f1386c8a52bea0d662c6b9,computer,Desktop or Laptop,Mac OS 10.15.6,Safari 15.6,820x1180,1180x713,NA,ITT Ratings,2,for,7,NA,NA,NA,NA,NA,ACCEPT,NA,NA,NA,NA,batch7pro,batch7pro,51,55,1,Screen 1,continueButton,response_rating_scale_likert_active,3482,NA,NA,Somewhat Agree,1,0,1,0,NA,NA,NA,NA,1,statements,social presser to get one,1,17/06/2021 12:49,17/06/2021 13:02,IP Address,For (I feel positively about the vaccines),Most months,A few times a year,35,Male,NA,Vocational Training / Apprenticeship,control,68,3,For,For
58,1659975926836,08/08/2022 16:25:26,1659975926738,1,08/08/2022 17:25:26,94826,3,task-k2dt,NA,23527555,6895768,NA,complete,NA,62f1386c8a52bea0d662c6b9,computer,Desktop or Laptop,Mac OS 10.15.6,Safari 15.6,820x1180,1180x713,NA,ITT Ratings,2,for,7,NA,NA,NA,NA,NA,ACCEPT,NA,NA,NA,NA,batch7pro,batch7pro,40,56,1,Screen 1,continueButton,response_rating_scale_likert_active,1515,NA,NA,Strongly Disagree,1,0,1,0,NA,NA,NA,NA,1,statements,The vaccine is a tracking device,1,17/06/2021 12:56,17/06/2021 13:01,IP Address,For (I feel positively about the vaccines),Rarely,A few times a year,20,Female,NA,A levels,choice,67,1,For,Against
59,1659975928775,08/08/2022 16:25:28,1659975928686,1,08/08/2022 17:25:28,94826,3,task-k2dt,NA,23527555,6895768,NA,complete,NA,62f1386c8a52bea0d662c6b9,computer,Desktop or Laptop,Mac OS 10.15.6,Safari 15.6,820x1180,1180x713,NA,ITT Ratings,2,for,7,NA,NA,NA,NA,NA,ACCEPT,NA,NA,NA,NA,batch7pro,batch7pro,54,57,1,Screen 1,continueButton,response_rating_scale_likert_active,1932.9999999999857,NA,NA,Strongly Disagree,1,0,1,0,NA,NA,NA,NA,1,statements,I don't believe in COVID-19,1,17/06/2021 12:50,17/06/2021 13:02,IP Address,For (I feel positively about the vaccines),Rarely,Once or twice a year,42,Female,NA,"Undergraduate degree (BSc, BA)",choice,69,3,For,Against
60,1659975930689,08/08/2022 16:25:30,1659975930576,1,08/08/2022 17:25:30,94826,3,task-k2dt,NA,23527555,6895768,NA,complete,NA,62f1386c8a52bea0d662c6b9,computer,Desktop or Laptop,Mac OS 10.15.6,Safari 15.6,820x1180,1180x713,NA,ITT Ratings,2,for,7,NA,NA,NA,NA,NA,ACCEPT,NA,NA,NA,NA,batch7pro,batch7pro,11,58,1,Screen 1,continueButton,response_rating_scale_likert_active,1877,NA,NA,Strongly Agree,1,0,1,0,NA,NA,NA,NA,1,statements,I have a phobia of needles,1,17/06/2021 12:55,17/06/2021 13:00,IP Address,For (I feel positively about the vaccines),A few times a year,Most months,26,Female,NA,"Postgraduate degree (MSc, MA, MPhil)",control,62,2,For,Against
61,1659975932947,08/08/2022 16:25:32,1659975932860,1,08/08/2022 17:25:32,94826,3,task-k2dt,NA,23527555,6895768,NA,complete,NA,62f1386c8a52bea0d662c6b9,computer,Desktop or Laptop,Mac OS 10.15.6,Safari 15.6,820x1180,1180x713,NA,ITT Ratings,2,for,7,NA,NA,NA,NA,NA,ACCEPT,NA,NA,NA,NA,batch7pro,batch7pro,13,59,1,Screen 1,continueButton,response_rating_scale_likert_active,2273,NA,NA,Agree,1,0,1,0,NA,NA,NA,NA,1,statements,I want to protect myself from covid,1,17/06/2021 12:55,17/06/2021 13:00,IP Address,For (I feel positively about the vaccines),A few times a year,Most months,26,Female,NA,"Postgraduate degree (MSc, MA, MPhil)",control,62,1,For,For
62,1659975934465,08/08/2022 16:25:34,1659975934369,1,08/08/2022 17:25:34,94826,3,task-k2dt,NA,23527555,6895768,NA,complete,NA,62f1386c8a52bea0d662c6b9,computer,Desktop or Laptop,Mac OS 10.15.6,Safari 15.6,820x1180,1180x713,NA,ITT Ratings,2,for,7,NA,NA,NA,NA,NA,ACCEPT,NA,NA,NA,NA,batch7pro,batch7pro,5,60,1,Screen 1,continueButton,response_rating_scale_likert_active,1498.0000000000146,NA,NA,Disagree,1,0,1,0,NA,NA,NA,NA,1,statements,Don't want foreign bodies in me,1,17/06/2021 12:49,17/06/2021 13:00,IP Address,For (I feel positively about the vaccines),Most days,Never,33,Female,NA,GCSEs,choice,61,2,For,Against
63,1659975936265,08/08/2022 16:25:36,1659975936170,1,08/08/2022 17:25:36,94826,3,task-k2dt,NA,23527555,6895768,NA,complete,NA,62f1386c8a52bea0d662c6b9,computer,Desktop or Laptop,Mac OS 10.15.6,Safari 15.6,820x1180,1180x713,NA,ITT Ratings,2,for,7,NA,NA,NA,NA,NA,ACCEPT,NA,NA,NA,NA,batch7pro,batch7pro,44,61,1,Screen 1,continueButton,response_rating_scale_likert_active,1790.0000000000146,NA,NA,Strongly Agree,1,0,1,0,NA,NA,NA,NA,1,statements,It will likely reduce severity of symptoms for everyone,1,17/06/2021 12:56,17/06/2021 13:01,IP Address,For (I feel positively about the vaccines),Rarely,A few times a year,20,Female,NA,A levels,choice,67,2,For,For
64,1659975937529,08/08/2022 16:25:37,1659975937428,1,08/08/2022 17:25:37,94826,3,task-k2dt,NA,23527555,6895768,NA,complete,NA,62f1386c8a52bea0d662c6b9,computer,Desktop or Laptop,Mac OS 10.15.6,Safari 15.6,820x1180,1180x713,NA,ITT Ratings,2,for,7,NA,NA,NA,NA,NA,ACCEPT,NA,NA,NA,NA,batch7pro,batch7pro,33,62,1,Screen 1,continueButton,response_rating_scale_likert_active,1247,NA,NA,Strongly Agree,1,0,1,0,NA,NA,NA,NA,1,statements,I don't want to worry about it anymore,1,17/06/2021 12:55,17/06/2021 13:01,IP Address,For (I feel positively about the vaccines),Never,A few times a year,36,Male,NA,GCSEs,choice,65,3,For,For
65,1659975937655,08/08/2022 16:25:37,1659975937436,1,08/08/2022 17:25:37,94826,3,task-k2dt,NA,23527555,6895768,NA,complete,NA,62f1386c8a52bea0d662c6b9,computer,Desktop or Laptop,Mac OS 10.15.6,Safari 15.6,820x1180,1180x713,NA,ITT Ratings,2,for,7,NA,NA,NA,NA,NA,ACCEPT,NA,NA,NA,NA,batch7pro,NA,NA,END TASK,NA,NA,NA,NA,120064,NA,NA,NA,NA,0,1,0,NA,NA,NA,NA,NA,NA,NA,NA,NA,NA,NA,NA,NA,NA,NA,NA,NA,NA,NA,NA,NA,NA,NA
1,1659975835081,08/08/2022 16:23:55,1659975836518,1,08/08/2022 17:23:56,94826,3,task-k2dt,NA,23527562,6895771,NA,complete,NA,62f1384d3fc923455e2a98d3,computer,Desktop or Laptop,Windows 10,Chrome 103.0.0.0,1536x864,1536x714,NA,ITT Ratings,2,for,7,NA,NA,NA,NA,NA,ACCEPT,NA,NA,NA,NA,batch7pro,NA,NA,BEGIN TASK,NA,NA,NA,NA,NA,NA,NA,NA,NA,0,1,0,NA,NA,NA,NA,NA,NA,NA,NA,NA,NA,NA,NA,NA,NA,NA,NA,NA,NA,NA,NA,NA,NA,NA
2,1659975841825,08/08/2022 16:24:01,1659975843305,1,08/08/2022 17:24:03,94826,3,task-k2dt,NA,23527562,6895771,NA,complete,NA,62f1384d3fc923455e2a98d3,computer,Desktop or Laptop,Windows 10,Chrome 103.0.0.0,1536x864,1519x714,NA,ITT Ratings,2,for,7,NA,NA,NA,NA,NA,ACCEPT,NA,NA,NA,NA,batch7pro,batch7pro,1,1,1,Screen 1,advancementZone,continue_button,6697.899999976158,NA,NA,NA,NA,0,1,0,NA,NA,NA,NA,NA,instructions,NA,NA,NA,NA,NA,NA,NA,NA,NA,NA,NA,NA,NA,NA,NA,NA,NA
3,1659975844522,08/08/2022 16:24:04,1659975846013,1,08/08/2022 17:24:06,94826,3,task-k2dt,NA,23527562,6895771,NA,complete,NA,62f1384d3fc923455e2a98d3,computer,Desktop or Laptop,Windows 10,Chrome 103.0.0.0,1536x864,1519x714,NA,ITT Ratings,2,for,7,NA,NA,NA,NA,NA,ACCEPT,NA,NA,NA,NA,batch7pro,batch7pro,7,1,1,Screen 1,continueButton,response_rating_scale_likert_active,2684.2000000476837,NA,NA,Strongly Agree,1,0,1,0,NA,NA,NA,NA,1,statements,Stops us getting covid so bad,1,17/06/2021 12:49,17/06/2021 13:00,IP Address,For (I feel positively about the vaccines),Most days,Never,33,Female,NA,GCSEs,choice,61,1,For,For
4,1659975845818,08/08/2022 16:24:05,1659975847295,1,08/08/2022 17:24:07,94826,3,task-k2dt,NA,23527562,6895771,NA,complete,NA,62f1384d3fc923455e2a98d3,computer,Desktop or Laptop,Windows 10,Chrome 103.0.0.0,1536x864,1519x714,NA,ITT Ratings,2,for,7,NA,NA,NA,NA,NA,ACCEPT,NA,NA,NA,NA,batch7pro,batch7pro,31,2,1,Screen 1,continueButton,response_rating_scale_likert_active,1258,NA,NA,Strongly Agree,1,0,1,0,NA,NA,NA,NA,1,statements,I want to protect myself,1,17/06/2021 12:55,17/06/2021 13:01,IP Address,For (I feel positively about the vaccines),Never,A few times a year,36,Male,NA,GCSEs,choice,65,1,For,For
5,1659975848321,08/08/2022 16:24:08,1659975849812,1,08/08/2022 17:24:09,94826,3,task-k2dt,NA,23527562,6895771,NA,complete,NA,62f1384d3fc923455e2a98d3,computer,Desktop or Laptop,Windows 10,Chrome 103.0.0.0,1536x864,1519x714,NA,ITT Ratings,2,for,7,NA,NA,NA,NA,NA,ACCEPT,NA,NA,NA,NA,batch7pro,batch7pro,23,3,1,Screen 1,continueButton,response_rating_scale_likert_active,2503.5,NA,NA,Strongly Disagree,1,0,1,0,NA,NA,NA,NA,1,statements,It won't work and cause damage to our insides,1,17/06/2021 12:48,17/06/2021 13:01,IP Address,For (I feel positively about the vaccines),Rarely,Most weeks,27,Female,NA,A levels,choice,64,2,For,Against
6,1659975849500,08/08/2022 16:24:09,1659975850976,1,08/08/2022 17:24:10,94826,3,task-k2dt,NA,23527562,6895771,NA,complete,NA,62f1384d3fc923455e2a98d3,computer,Desktop or Laptop,Windows 10,Chrome 103.0.0.0,1536x864,1519x714,NA,ITT Ratings,2,for,7,NA,NA,NA,NA,NA,ACCEPT,NA,NA,NA,NA,batch7pro,batch7pro,46,4,1,Screen 1,continueButton,response_rating_scale_likert_active,1146.7000000476835,NA,NA,Strongly Disagree,1,0,1,0,NA,NA,NA,NA,1,statements,I just don't want one,1,17/06/2021 12:49,17/06/2021 13:02,IP Address,For (I feel positively about the vaccines),Most months,A few times a year,35,Male,NA,Vocational Training / Apprenticeship,control,68,1,For,Against
7,1659975852084,08/08/2022 16:24:12,1659975853528,1,08/08/2022 17:24:13,94826,3,task-k2dt,NA,23527562,6895771,NA,complete,NA,62f1384d3fc923455e2a98d3,computer,Desktop or Laptop,Windows 10,Chrome 103.0.0.0,1536x864,1519x714,NA,ITT Ratings,2,for,7,NA,NA,NA,NA,NA,ACCEPT,NA,NA,NA,NA,batch7pro,batch7pro,58,5,1,Screen 1,continueButton,response_rating_scale_likert_active,2530.3000000715256,NA,NA,Disagree,1,0,1,0,NA,NA,NA,NA,1,statements,I don't know whats in them - how can they produce something effective so quickly,1,17/06/2021 12:56,17/06/2021 13:02,IP Address,For (I feel positively about the vaccines),Most months,Most days,21,Female,NA,A levels,choice,70,1,For,Against
8,1659975854436,08/08/2022 16:24:14,1659975855905,1,08/08/2022 17:24:15,94826,3,task-k2dt,NA,23527562,6895771,NA,complete,NA,62f1384d3fc923455e2a98d3,computer,Desktop or Laptop,Windows 10,Chrome 103.0.0.0,1536x864,1519x714,NA,ITT Ratings,2,for,7,NA,NA,NA,NA,NA,ACCEPT,NA,NA,NA,NA,batch7pro,batch7pro,60,6,1,Screen 1,continueButton,response_rating_scale_likert_active,2362,NA,NA,Strongly Disagree,1,0,1,0,NA,NA,NA,NA,1,statements,Coronavirus doesn't exist/is a conspiracy,1,17/06/2021 12:56,17/06/2021 13:02,IP Address,For (I feel positively about the vaccines),Most months,Most days,21,Female,NA,A levels,choice,70,3,For,Against
9,1659975859517,08/08/2022 16:24:19,1659975861022,1,08/08/2022 17:24:21,94826,3,task-k2dt,NA,23527562,6895771,NA,complete,NA,62f1384d3fc923455e2a98d3,computer,Desktop or Laptop,Windows 10,Chrome 103.0.0.0,1536x864,1519x714,NA,ITT Ratings,2,for,7,NA,NA,NA,NA,NA,ACCEPT,NA,NA,NA,NA,batch7pro,batch7pro,3,7,1,Screen 1,continueButton,response_rating_scale_likert_active,5095.700000047684,NA,NA,Somewhat Disagree,1,0,1,0,NA,NA,NA,NA,1,statements,We would like to check you are reading each argument carefully. Please select 'Somewhat Disagree' for this answer,1,NA,NA,NA,NA,NA,NA,NA,NA,NA,NA,NA,NA,check2,NA,NA
10,1659975861929,08/08/2022 16:24:21,1659975863420,1,08/08/2022 17:24:23,94826,3,task-k2dt,NA,23527562,6895771,NA,complete,NA,62f1384d3fc923455e2a98d3,computer,Desktop or Laptop,Windows 10,Chrome 103.0.0.0,1536x864,1519x714,NA,ITT Ratings,2,for,7,NA,NA,NA,NA,NA,ACCEPT,NA,NA,NA,NA,batch7pro,batch7pro,13,8,1,Screen 1,continueButton,response_rating_scale_likert_active,2385.5,NA,NA,Strongly Agree,1,0,1,0,NA,NA,NA,NA,1,statements,I want to protect myself from covid,1,17/06/2021 12:55,17/06/2021 13:00,IP Address,For (I feel positively about the vaccines),A few times a year,Most months,26,Female,NA,"Postgraduate degree (MSc, MA, MPhil)",control,62,1,For,For
11,1659975863158,08/08/2022 16:24:23,1659975864647,1,08/08/2022 17:24:24,94826,3,task-k2dt,NA,23527562,6895771,NA,complete,NA,62f1384d3fc923455e2a98d3,computer,Desktop or Laptop,Windows 10,Chrome 103.0.0.0,1536x864,1519x714,NA,ITT Ratings,2,for,7,NA,NA,NA,NA,NA,ACCEPT,NA,NA,NA,NA,batch7pro,batch7pro,56,9,1,Screen 1,continueButton,response_rating_scale_likert_active,1213.3000000715256,NA,NA,Strongly Agree,1,0,1,0,NA,NA,NA,NA,1,statements,It will mean our lives can start to get back to normal,1,17/06/2021 12:50,17/06/2021 13:02,IP Address,For (I feel positively about the vaccines),Rarely,Once or twice a year,42,Female,NA,"Undergraduate degree (BSc, BA)",choice,69,2,For,For
12,1659975864755,08/08/2022 16:24:24,1659975866244,1,08/08/2022 17:24:26,94826,3,task-k2dt,NA,23527562,6895771,NA,complete,NA,62f1384d3fc923455e2a98d3,computer,Desktop or Laptop,Windows 10,Chrome 103.0.0.0,1536x864,1519x714,NA,ITT Ratings,2,for,7,NA,NA,NA,NA,NA,ACCEPT,NA,NA,NA,NA,batch7pro,batch7pro,5,10,1,Screen 1,continueButton,response_rating_scale_likert_active,1574.899999976158,NA,NA,Strongly Disagree,1,0,1,0,NA,NA,NA,NA,1,statements,Don't want foreign bodies in me,1,17/06/2021 12:49,17/06/2021 13:00,IP Address,For (I feel positively about the vaccines),Most days,Never,33,Female,NA,GCSEs,choice,61,2,For,Against
13,1659975867441,08/08/2022 16:24:27,1659975868928,1,08/08/2022 17:24:28,94826,3,task-k2dt,NA,23527562,6895771,NA,complete,NA,62f1384d3fc923455e2a98d3,computer,Desktop or Laptop,Windows 10,Chrome 103.0.0.0,1536x864,1519x714,NA,ITT Ratings,2,for,7,NA,NA,NA,NA,NA,ACCEPT,NA,NA,NA,NA,batch7pro,batch7pro,27,11,1,Screen 1,continueButton,response_rating_scale_likert_active,2654,NA,NA,Strongly Agree,1,0,1,0,NA,NA,NA,NA,1,statements,It will help protect me and others around me,1,17/06/2021 12:48,17/06/2021 13:01,IP Address,For (I feel positively about the vaccines),Rarely,Most weeks,27,Female,NA,A levels,choice,64,3,For,For
14,1659975868780,08/08/2022 16:24:28,1659975870259,1,08/08/2022 17:24:30,94826,3,task-k2dt,NA,23527562,6895771,NA,complete,NA,62f1384d3fc923455e2a98d3,computer,Desktop or Laptop,Windows 10,Chrome 103.0.0.0,1536x864,1519x714,NA,ITT Ratings,2,for,7,NA,NA,NA,NA,NA,ACCEPT,NA,NA,NA,NA,batch7pro,batch7pro,6,12,1,Screen 1,continueButton,response_rating_scale_likert_active,1304.100000023842,NA,NA,Strongly Disagree,1,0,1,0,NA,NA,NA,NA,1,statements,I think it's a scam,1,17/06/2021 12:49,17/06/2021 13:00,IP Address,For (I feel positively about the vaccines),Most days,Never,33,Female,NA,GCSEs,choice,61,3,For,Against
15,1659975872166,08/08/2022 16:24:32,1659975873648,1,08/08/2022 17:24:33,94826,3,task-k2dt,NA,23527562,6895771,NA,complete,NA,62f1384d3fc923455e2a98d3,computer,Desktop or Laptop,Windows 10,Chrome 103.0.0.0,1536x864,1519x714,NA,ITT Ratings,2,for,7,NA,NA,NA,NA,NA,ACCEPT,NA,NA,NA,NA,batch7pro,batch7pro,35,13,1,Screen 1,continueButton,response_rating_scale_likert_active,3363.8000000715256,NA,NA,Strongly Agree,1,0,1,0,NA,NA,NA,NA,1,statements,Studies have shown that vaccination provides a strong boost in protection in people who have recovered from COVID-19.,1,17/06/2021 12:47,17/06/2021 13:01,IP Address,For (I feel positively about the vaccines),Most months,Most weeks,18,Male,NA,A levels,choice,66,2,For,Against
16,1659975874040,08/08/2022 16:24:34,1659975875539,1,08/08/2022 17:24:35,94826,3,task-k2dt,NA,23527562,6895771,NA,complete,NA,62f1384d3fc923455e2a98d3,computer,Desktop or Laptop,Windows 10,Chrome 103.0.0.0,1536x864,1519x714,NA,ITT Ratings,2,for,7,NA,NA,NA,NA,NA,ACCEPT,NA,NA,NA,NA,batch7pro,batch7pro,39,14,1,Screen 1,continueButton,response_rating_scale_likert_active,1868.5999999046328,NA,NA,Strongly Agree,1,0,1,0,NA,NA,NA,NA,1,statements,To contribute to herd immunity to help eradicate the virus altogether.,1,17/06/2021 12:47,17/06/2021 13:01,IP Address,For (I feel positively about the vaccines),Most months,Most weeks,18,Male,NA,A levels,choice,66,3,For,For
17,1659975875837,08/08/2022 16:24:35,1659975877336,1,08/08/2022 17:24:37,94826,3,task-k2dt,NA,23527562,6895771,NA,complete,NA,62f1384d3fc923455e2a98d3,computer,Desktop or Laptop,Windows 10,Chrome 103.0.0.0,1536x864,1519x714,NA,ITT Ratings,2,for,7,NA,NA,NA,NA,NA,ACCEPT,NA,NA,NA,NA,batch7pro,batch7pro,54,15,1,Screen 1,continueButton,response_rating_scale_likert_active,1777.5999999046326,NA,NA,Strongly Disagree,1,0,1,0,NA,NA,NA,NA,1,statements,I don't believe in COVID-19,1,17/06/2021 12:50,17/06/2021 13:02,IP Address,For (I feel positively about the vaccines),Rarely,Once or twice a year,42,Female,NA,"Undergraduate degree (BSc, BA)",choice,69,3,For,Against
18,1659975890352,08/08/2022 16:24:50,1659975891847,1,08/08/2022 17:24:51,94826,3,task-k2dt,NA,23527562,6895771,NA,complete,NA,62f1384d3fc923455e2a98d3,computer,Desktop or Laptop,Windows 10,Chrome 103.0.0.0,1536x864,1519x714,NA,ITT Ratings,2,for,7,NA,NA,NA,NA,NA,ACCEPT,NA,NA,NA,NA,batch7pro,batch7pro,28,16,1,Screen 1,continueButton,response_rating_scale_likert_active,14491.100000023842,NA,NA,Strongly Disagree,1,0,1,0,NA,NA,NA,NA,1,statements,There hasn't been enough time to develop it safely,1,17/06/2021 12:55,17/06/2021 13:01,IP Address,For (I feel positively about the vaccines),Never,A few times a year,36,Male,NA,GCSEs,choice,65,1,For,Against
19,1659975893384,08/08/2022 16:24:53,1659975894867,1,08/08/2022 17:24:54,94826,3,task-k2dt,NA,23527562,6895771,NA,complete,NA,62f1384d3fc923455e2a98d3,computer,Desktop or Laptop,Windows 10,Chrome 103.0.0.0,1536x864,1519x714,NA,ITT Ratings,2,for,7,NA,NA,NA,NA,NA,ACCEPT,NA,NA,NA,NA,batch7pro,batch7pro,25,17,1,Screen 1,continueButton,response_rating_scale_likert_active,2999.900000095367,NA,NA,Strongly Agree,1,0,1,0,NA,NA,NA,NA,1,statements,Having the vaccine is less painful then the disease.,1,17/06/2021 12:48,17/06/2021 13:01,IP Address,For (I feel positively about the vaccines),Rarely,Most weeks,27,Female,NA,A levels,choice,64,1,For,For
20,1659975894827,08/08/2022 16:24:54,1659975896333,1,08/08/2022 17:24:56,94826,3,task-k2dt,NA,23527562,6895771,NA,complete,NA,62f1384d3fc923455e2a98d3,computer,Desktop or Laptop,Windows 10,Chrome 103.0.0.0,1536x864,1519x714,NA,ITT Ratings,2,for,7,NA,NA,NA,NA,NA,ACCEPT,NA,NA,NA,NA,batch7pro,batch7pro,41,18,1,Screen 1,continueButton,response_rating_scale_likert_active,1441.4000000953674,NA,NA,Strongly Disagree,1,0,1,0,NA,NA,NA,NA,1,statements,The development has been rushed,1,17/06/2021 12:56,17/06/2021 13:01,IP Address,For (I feel positively about the vaccines),Rarely,A few times a year,20,Female,NA,A levels,choice,67,2,For,Against
21,1659975896834,08/08/2022 16:24:56,1659975898320,1,08/08/2022 17:24:58,94826,3,task-k2dt,NA,23527562,6895771,NA,complete,NA,62f1384d3fc923455e2a98d3,computer,Desktop or Laptop,Windows 10,Chrome 103.0.0.0,1536x864,1519x714,NA,ITT Ratings,2,for,7,NA,NA,NA,NA,NA,ACCEPT,NA,NA,NA,NA,batch7pro,batch7pro,8,19,1,Screen 1,continueButton,response_rating_scale_likert_active,1967.0999999046328,NA,NA,Strongly Agree,1,0,1,0,NA,NA,NA,NA,1,statements,Protect us from virus,1,17/06/2021 12:49,17/06/2021 13:00,IP Address,For (I feel positively about the vaccines),Most days,Never,33,Female,NA,GCSEs,choice,61,2,For,For
22,1659975901089,08/08/2022 16:25:01,1659975902575,1,08/08/2022 17:25:02,94826,3,task-k2dt,NA,23527562,6895771,NA,complete,NA,62f1384d3fc923455e2a98d3,computer,Desktop or Laptop,Windows 10,Chrome 103.0.0.0,1536x864,1519x714,NA,ITT Ratings,2,for,7,NA,NA,NA,NA,NA,ACCEPT,NA,NA,NA,NA,batch7pro,batch7pro,43,20,1,Screen 1,continueButton,response_rating_scale_likert_active,4233.199999928474,NA,NA,Strongly Agree,1,0,1,0,NA,NA,NA,NA,1,statements,"If everyone is vaccinated, vulnerable people will be safer",1,17/06/2021 12:56,17/06/2021 13:01,IP Address,For (I feel positively about the vaccines),Rarely,A few times a year,20,Female,NA,A levels,choice,67,1,For,For
23,1659975902269,08/08/2022 16:25:02,1659975903759,1,08/08/2022 17:25:03,94826,3,task-k2dt,NA,23527562,6895771,NA,complete,NA,62f1384d3fc923455e2a98d3,computer,Desktop or Laptop,Windows 10,Chrome 103.0.0.0,1536x864,1519x714,NA,ITT Ratings,2,for,7,NA,NA,NA,NA,NA,ACCEPT,NA,NA,NA,NA,batch7pro,batch7pro,32,21,1,Screen 1,continueButton,response_rating_scale_likert_active,1143,NA,NA,Strongly Agree,1,0,1,0,NA,NA,NA,NA,1,statements,I want to protect vulnerable family members,1,17/06/2021 12:55,17/06/2021 13:01,IP Address,For (I feel positively about the vaccines),Never,A few times a year,36,Male,NA,GCSEs,choice,65,2,For,For
24,1659975903315,08/08/2022 16:25:03,1659975904812,1,08/08/2022 17:25:04,94826,3,task-k2dt,NA,23527562,6895771,NA,complete,NA,62f1384d3fc923455e2a98d3,computer,Desktop or Laptop,Windows 10,Chrome 103.0.0.0,1536x864,1519x714,NA,ITT Ratings,2,for,7,NA,NA,NA,NA,NA,ACCEPT,NA,NA,NA,NA,batch7pro,batch7pro,44,22,1,Screen 1,continueButton,response_rating_scale_likert_active,1027.600000023842,NA,NA,Strongly Agree,1,0,1,0,NA,NA,NA,NA,1,statements,It will likely reduce severity of symptoms for everyone,1,17/06/2021 12:56,17/06/2021 13:01,IP Address,For (I feel positively about the vaccines),Rarely,A few times a year,20,Female,NA,A levels,choice,67,2,For,For
25,1659975905164,08/08/2022 16:25:05,1659975906659,1,08/08/2022 17:25:06,94826,3,task-k2dt,NA,23527562,6895771,NA,complete,NA,62f1384d3fc923455e2a98d3,computer,Desktop or Laptop,Windows 10,Chrome 103.0.0.0,1536x864,1519x714,NA,ITT Ratings,2,for,7,NA,NA,NA,NA,NA,ACCEPT,NA,NA,NA,NA,batch7pro,batch7pro,2,23,1,Screen 1,continueButton,response_rating_scale_likert_active,1825.399999976158,NA,NA,Somewhat Agree,1,0,1,0,NA,NA,NA,NA,1,statements,We would like to check you are reading each argument carefully. Please select 'Somewhat Agree' for this answer,1,NA,NA,NA,NA,NA,NA,NA,NA,NA,NA,NA,NA,check1,NA,NA
26,1659975915679,08/08/2022 16:25:15,1659975917166,1,08/08/2022 17:25:17,94826,3,task-k2dt,NA,23527562,6895771,NA,complete,NA,62f1384d3fc923455e2a98d3,computer,Desktop or Laptop,Windows 10,Chrome 103.0.0.0,1536x864,1519x714,NA,ITT Ratings,2,for,7,NA,NA,NA,NA,NA,ACCEPT,NA,NA,NA,NA,batch7pro,batch7pro,10,24,1,Screen 1,continueButton,response_rating_scale_likert_active,10487.799999952316,NA,NA,Strongly Disagree,1,0,1,0,NA,NA,NA,NA,1,statements,I've read something on social media which has told me not to,1,17/06/2021 12:55,17/06/2021 13:00,IP Address,For (I feel positively about the vaccines),A few times a year,Most months,26,Female,NA,"Postgraduate degree (MSc, MA, MPhil)",control,62,1,For,Against
