Event.Index,UTC.Timestamp,UTC.Date,Local.Timestamp,Local.Timezone,Local.Date,Experiment.ID,Experiment.Version,Tree.Node.Key,Repeat.Key,Schedule.ID,Participant.Private.ID,Participant.Starting.Group,Participant.Status,Participant.Completion.Code,Participant.External.Session.ID,Participant.Device.Type,Participant.Device,Participant.OS,Participant.Browser,Participant.Monitor.Size,Participant.Viewport.Size,Checkpoint,Task.Name,Task.Version,branch.69an,randomiser.8vg2,quota.bqtt,quota.rycs,quota.wtfi,quota.usve,quota.zgic,quota.f3yz,quota.r9vy,quota.tfqq,quota.3dga,quota.dtj6,Spreadsheet,Spreadsheet.Name,Spreadsheet.Row,Trial.Number,Screen.Number,Screen.Name,Zone.Name,Zone.Type,Reaction.Time,Reaction.Onset,Response.Type,Response,Attempt,Correct,Incorrect,Dishonest,X.Coordinate,Y.Coordinate,Timed.Out,randomise_blocks,randomise_trials,display,Arguments,ShowProgressBar,StartDate,EndDate,Status,prolif_check,discuss_1,read_1,age,gender,gender_4_TEXT,edu,condition,ID,arg_ID,Position,Arg_Position
1,1659975137130,08/08/2022 16:12:17,1659975135815,1,08/08/2022 17:12:15,94826,3,task-b5vt,NA,23527333,6895694,NA,complete,NA,62f135a93e7832ac25aa58bf,computer,Desktop or Laptop,Mac OS 10.15.7,Safari 15.4,1440x900,1440x789,NA,ITT Ratings,2,for,1,NA,NA,NA,NA,NA,NA,NA,NA,NA,ACCEPT,batch1pro,NA,NA,BEGIN TASK,NA,NA,NA,NA,NA,NA,NA,NA,NA,0,1,0,NA,NA,NA,NA,NA,NA,NA,NA,NA,NA,NA,NA,NA,NA,NA,NA,NA,NA,NA,NA,NA,NA,NA
2,1659975145528,08/08/2022 16:12:25,1659975144261,1,08/08/2022 17:12:24,94826,3,task-b5vt,NA,23527333,6895694,NA,complete,NA,62f135a93e7832ac25aa58bf,computer,Desktop or Laptop,Mac OS 10.15.7,Safari 15.4,1440x900,1440x789,NA,ITT Ratings,2,for,1,NA,NA,NA,NA,NA,NA,NA,NA,NA,ACCEPT,batch1pro,batch1pro,1,1,1,Screen 1,advancementZone,continue_button,8385,NA,NA,NA,NA,0,1,0,NA,NA,NA,NA,NA,instructions,NA,NA,NA,NA,NA,NA,NA,NA,NA,NA,NA,NA,NA,NA,NA,NA,NA
3,1659975152187,08/08/2022 16:12:32,1659975150906,1,08/08/2022 17:12:30,94826,3,task-b5vt,NA,23527333,6895694,NA,complete,NA,62f135a93e7832ac25aa58bf,computer,Desktop or Laptop,Mac OS 10.15.7,Safari 15.4,1440x900,1440x789,NA,ITT Ratings,2,for,1,NA,NA,NA,NA,NA,NA,NA,NA,NA,ACCEPT,batch1pro,batch1pro,52,1,1,Screen 1,continueButton,response_rating_scale_likert_active,6622,NA,NA,Strongly Disagree,1,0,1,0,NA,NA,NA,NA,1,statements,The covid 19 vaccines are a conspiracy,1,17/06/2021 12:36,17/06/2021 12:43,IP Address,For (I feel positively about the vaccines),Rarely,Most days,38,Male,NA,"GCSEs,Vocational Training / Apprenticeship",choice,9,1,For,Against
4,1659975163618,08/08/2022 16:12:43,1659975162335,1,08/08/2022 17:12:42,94826,3,task-b5vt,NA,23527333,6895694,NA,complete,NA,62f135a93e7832ac25aa58bf,computer,Desktop or Laptop,Mac OS 10.15.7,Safari 15.4,1440x900,1440x789,NA,ITT Ratings,2,for,1,NA,NA,NA,NA,NA,NA,NA,NA,NA,ACCEPT,batch1pro,batch1pro,32,2,1,Screen 1,continueButton,response_rating_scale_likert_active,11408,NA,NA,Strongly Agree,1,0,1,0,NA,NA,NA,NA,1,statements,I am aware of the risks and complications of contracting xovid 19 and wish to protect myself and others,1,17/06/2021 12:31,17/06/2021 12:41,IP Address,For (I feel positively about the vaccines),Rarely,A few times a year,31,Female,NA,"Undergraduate degree (BSc, BA)",choice,5,2,For,For
5,1659975169348,08/08/2022 16:12:49,1659975168080,1,08/08/2022 17:12:48,94826,3,task-b5vt,NA,23527333,6895694,NA,complete,NA,62f135a93e7832ac25aa58bf,computer,Desktop or Laptop,Mac OS 10.15.7,Safari 15.4,1440x900,1440x789,NA,ITT Ratings,2,for,1,NA,NA,NA,NA,NA,NA,NA,NA,NA,ACCEPT,batch1pro,batch1pro,18,3,1,Screen 1,continueButton,response_rating_scale_likert_active,5725,NA,NA,Strongly Disagree,1,0,1,0,NA,NA,NA,NA,1,statements,Unless everyone has it then what is the point,1,17/06/2021 12:29,17/06/2021 12:41,IP Address,For (I feel positively about the vaccines),Rarely,A few times a year,55,Female,NA,A levels,choice,3,3,For,Against
6,1659975172190,08/08/2022 16:12:52,1659975170912,1,08/08/2022 17:12:50,94826,3,task-b5vt,NA,23527333,6895694,NA,complete,NA,62f135a93e7832ac25aa58bf,computer,Desktop or Laptop,Mac OS 10.15.7,Safari 15.4,1440x900,1440x789,NA,ITT Ratings,2,for,1,NA,NA,NA,NA,NA,NA,NA,NA,NA,ACCEPT,batch1pro,batch1pro,48,4,1,Screen 1,continueButton,response_rating_scale_likert_active,2809,NA,NA,Strongly Disagree,1,0,1,0,NA,NA,NA,NA,1,statements,I'm young and healthy so why should I get vaccinated?,1,17/06/2021 12:29,17/06/2021 12:42,IP Address,For (I feel positively about the vaccines),Most months,Most months,20,Male,NA,A levels,choice,8,3,For,Against
7,1659975174551,08/08/2022 16:12:54,1659975173265,1,08/08/2022 17:12:53,94826,3,task-b5vt,NA,23527333,6895694,NA,complete,NA,62f135a93e7832ac25aa58bf,computer,Desktop or Laptop,Mac OS 10.15.7,Safari 15.4,1440x900,1440x789,NA,ITT Ratings,2,for,1,NA,NA,NA,NA,NA,NA,NA,NA,NA,ACCEPT,batch1pro,batch1pro,11,5,1,Screen 1,continueButton,response_rating_scale_likert_active,2331,NA,NA,Strongly Disagree,1,0,1,0,NA,NA,NA,NA,1,statements,I believe that the vaccine is ineffective or rushed,1,17/06/2021 12:34,17/06/2021 12:40,IP Address,For (I feel positively about the vaccines),Rarely,Most weeks,26,Female,NA,"Undergraduate degree (BSc, BA)",choice,2,2,For,Against
8,1659975182422,08/08/2022 16:13:02,1659975181150,1,08/08/2022 17:13:01,94826,3,task-b5vt,NA,23527333,6895694,NA,complete,NA,62f135a93e7832ac25aa58bf,computer,Desktop or Laptop,Mac OS 10.15.7,Safari 15.4,1440x900,1440x789,NA,ITT Ratings,2,for,1,NA,NA,NA,NA,NA,NA,NA,NA,NA,ACCEPT,batch1pro,batch1pro,31,6,1,Screen 1,continueButton,response_rating_scale_likert_active,7859,NA,NA,Agree,1,0,1,0,NA,NA,NA,NA,1,statements,They wish for life to return to normal and the best way to achieve this is maximum uptake,1,17/06/2021 12:31,17/06/2021 12:41,IP Address,For (I feel positively about the vaccines),Rarely,A few times a year,31,Female,NA,"Undergraduate degree (BSc, BA)",choice,5,1,For,For
9,1659975188287,08/08/2022 16:13:08,1659975187013,1,08/08/2022 17:13:07,94826,3,task-b5vt,NA,23527333,6895694,NA,complete,NA,62f135a93e7832ac25aa58bf,computer,Desktop or Laptop,Mac OS 10.15.7,Safari 15.4,1440x900,1440x789,NA,ITT Ratings,2,for,1,NA,NA,NA,NA,NA,NA,NA,NA,NA,ACCEPT,batch1pro,batch1pro,61,7,1,Screen 1,continueButton,response_rating_scale_likert_active,5842.999999999993,NA,NA,Somewhat Agree,1,0,1,0,NA,NA,NA,NA,1,statements,Reduced risk of getting COVID.,1,17/06/2021 13:01,17/06/2021 13:10,IP Address,For (I feel positively about the vaccines),Most months,Most weeks,35,Non-binary,NA,"Postgraduate degree (MSc, MA, MPhil)",control,10,1,For,For
10,1659975194791,08/08/2022 16:13:14,1659975193524,1,08/08/2022 17:13:13,94826,3,task-b5vt,NA,23527333,6895694,NA,complete,NA,62f135a93e7832ac25aa58bf,computer,Desktop or Laptop,Mac OS 10.15.7,Safari 15.4,1440x900,1440x789,NA,ITT Ratings,2,for,1,NA,NA,NA,NA,NA,NA,NA,NA,NA,ACCEPT,batch1pro,batch1pro,33,8,1,Screen 1,continueButton,response_rating_scale_likert_active,6492,NA,NA,Agree,1,0,1,0,NA,NA,NA,NA,1,statements,More vaccinations will hopefully mean less admissions and deaths and less pressure on the nhs,1,17/06/2021 12:31,17/06/2021 12:41,IP Address,For (I feel positively about the vaccines),Rarely,A few times a year,31,Female,NA,"Undergraduate degree (BSc, BA)",choice,5,3,For,For
11,1659975201306,08/08/2022 16:13:21,1659975200040,1,08/08/2022 17:13:20,94826,3,task-b5vt,NA,23527333,6895694,NA,complete,NA,62f135a93e7832ac25aa58bf,computer,Desktop or Laptop,Mac OS 10.15.7,Safari 15.4,1440x900,1440x789,NA,ITT Ratings,2,for,1,NA,NA,NA,NA,NA,NA,NA,NA,NA,ACCEPT,batch1pro,batch1pro,43,9,1,Screen 1,continueButton,response_rating_scale_likert_active,6497.000000000007,NA,NA,Somewhat Agree,1,0,1,0,NA,NA,NA,NA,1,statements,It is the only way we can effectively eliminate the virus from the world.,1,17/06/2021 12:35,17/06/2021 12:42,IP Address,For (I feel positively about the vaccines),Once or twice a year,A few times a year,20,Female,NA,"GCSEs,A levels",control,7,1,For,For
12,1659975205375,08/08/2022 16:13:25,1659975204101,1,08/08/2022 17:13:24,94826,3,task-b5vt,NA,23527333,6895694,NA,complete,NA,62f135a93e7832ac25aa58bf,computer,Desktop or Laptop,Mac OS 10.15.7,Safari 15.4,1440x900,1440x789,NA,ITT Ratings,2,for,1,NA,NA,NA,NA,NA,NA,NA,NA,NA,ACCEPT,batch1pro,batch1pro,16,10,1,Screen 1,continueButton,response_rating_scale_likert_active,4040.9999999999927,NA,NA,Disagree,1,0,1,0,NA,NA,NA,NA,1,statements,Hasn't been tested for long enough,1,17/06/2021 12:29,17/06/2021 12:41,IP Address,For (I feel positively about the vaccines),Rarely,A few times a year,55,Female,NA,A levels,choice,3,1,For,Against
13,1659975215134,08/08/2022 16:13:35,1659975213863,1,08/08/2022 17:13:33,94826,3,task-b5vt,NA,23527333,6895694,NA,complete,NA,62f135a93e7832ac25aa58bf,computer,Desktop or Laptop,Mac OS 10.15.7,Safari 15.4,1440x900,1440x789,NA,ITT Ratings,2,for,1,NA,NA,NA,NA,NA,NA,NA,NA,NA,ACCEPT,batch1pro,batch1pro,51,11,1,Screen 1,continueButton,response_rating_scale_likert_active,9743,NA,NA,Agree,1,0,1,0,NA,NA,NA,NA,1,statements,To help end the negative social impact of the virus such as lockdowns and online education,1,17/06/2021 12:29,17/06/2021 12:42,IP Address,For (I feel positively about the vaccines),Most months,Most months,20,Male,NA,A levels,choice,8,3,For,For
14,1659975218631,08/08/2022 16:13:38,1659975217362,1,08/08/2022 17:13:37,94826,3,task-b5vt,NA,23527333,6895694,NA,complete,NA,62f135a93e7832ac25aa58bf,computer,Desktop or Laptop,Mac OS 10.15.7,Safari 15.4,1440x900,1440x789,NA,ITT Ratings,2,for,1,NA,NA,NA,NA,NA,NA,NA,NA,NA,ACCEPT,batch1pro,batch1pro,54,12,1,Screen 1,continueButton,response_rating_scale_likert_active,3482,NA,NA,Strongly Disagree,1,0,1,0,NA,NA,NA,NA,1,statements,The vaccines don't work and will not be affective,1,17/06/2021 12:36,17/06/2021 12:43,IP Address,For (I feel positively about the vaccines),Rarely,Most days,38,Male,NA,"GCSEs,Vocational Training / Apprenticeship",choice,9,3,For,Against
15,1659975227061,08/08/2022 16:13:47,1659975225794,1,08/08/2022 17:13:45,94826,3,task-b5vt,NA,23527333,6895694,NA,complete,NA,62f135a93e7832ac25aa58bf,computer,Desktop or Laptop,Mac OS 10.15.7,Safari 15.4,1440x900,1440x789,NA,ITT Ratings,2,for,1,NA,NA,NA,NA,NA,NA,NA,NA,NA,ACCEPT,batch1pro,batch1pro,63,13,1,Screen 1,continueButton,response_rating_scale_likert_active,8413,NA,NA,Somewhat Agree,1,0,1,0,NA,NA,NA,NA,1,statements,Less restrictions on behaviour due to immunity.,1,17/06/2021 13:01,17/06/2021 13:10,IP Address,For (I feel positively about the vaccines),Most months,Most weeks,35,Non-binary,NA,"Postgraduate degree (MSc, MA, MPhil)",control,10,3,For,For
16,1659975232300,08/08/2022 16:13:52,1659975231027,1,08/08/2022 17:13:51,94826,3,task-b5vt,NA,23527333,6895694,NA,complete,NA,62f135a93e7832ac25aa58bf,computer,Desktop or Laptop,Mac OS 10.15.7,Safari 15.4,1440x900,1440x789,NA,ITT Ratings,2,for,1,NA,NA,NA,NA,NA,NA,NA,NA,NA,ACCEPT,batch1pro,batch1pro,42,14,1,Screen 1,continueButton,response_rating_scale_likert_active,5215.000000000015,NA,NA,Disagree,1,0,1,0,NA,NA,NA,NA,1,statements,They are unsafe and can cause long-term effects.,1,17/06/2021 12:35,17/06/2021 12:42,IP Address,For (I feel positively about the vaccines),Once or twice a year,A few times a year,20,Female,NA,"GCSEs,A levels",control,7,3,For,Against
17,1659975238483,08/08/2022 16:13:58,1659975237209,1,08/08/2022 17:13:57,94826,3,task-b5vt,NA,23527333,6895694,NA,complete,NA,62f135a93e7832ac25aa58bf,computer,Desktop or Laptop,Mac OS 10.15.7,Safari 15.4,1440x900,1440x789,NA,ITT Ratings,2,for,1,NA,NA,NA,NA,NA,NA,NA,NA,NA,ACCEPT,batch1pro,batch1pro,7,15,1,Screen 1,continueButton,response_rating_scale_likert_active,6163.999999999985,NA,NA,Strongly Agree,1,0,1,0,NA,NA,NA,NA,1,statements,It's the right thing to do to protect everyone else,1,17/06/2021 12:34,17/06/2021 12:39,IP Address,For (I feel positively about the vaccines),Rarely,A few times a year,26,Female,NA,"Undergraduate degree (BSc, BA)",control,1,1,For,For
18,1659975243164,08/08/2022 16:14:03,1659975241883,1,08/08/2022 17:14:01,94826,3,task-b5vt,NA,23527333,6895694,NA,complete,NA,62f135a93e7832ac25aa58bf,computer,Desktop or Laptop,Mac OS 10.15.7,Safari 15.4,1440x900,1440x789,NA,ITT Ratings,2,for,1,NA,NA,NA,NA,NA,NA,NA,NA,NA,ACCEPT,batch1pro,batch1pro,2,16,1,Screen 1,continueButton,response_rating_scale_likert_active,4656,NA,NA,Somewhat Agree,1,0,1,0,NA,NA,NA,NA,1,statements,We would like to check you are reading each argument carefully. Please select 'Somewhat Agree' for this answer,1,NA,NA,NA,NA,NA,NA,NA,NA,NA,NA,NA,NA,check1,NA,NA
19,1659975246524,08/08/2022 16:14:06,1659975245246,1,08/08/2022 17:14:05,94826,3,task-b5vt,NA,23527333,6895694,NA,complete,NA,62f135a93e7832ac25aa58bf,computer,Desktop or Laptop,Mac OS 10.15.7,Safari 15.4,1440x900,1440x789,NA,ITT Ratings,2,for,1,NA,NA,NA,NA,NA,NA,NA,NA,NA,ACCEPT,batch1pro,batch1pro,56,17,1,Screen 1,continueButton,response_rating_scale_likert_active,3343.9999999999854,NA,NA,Agree,1,0,1,0,NA,NA,NA,NA,1,statements,The vaccines are safe enough to use,1,17/06/2021 12:36,17/06/2021 12:43,IP Address,For (I feel positively about the vaccines),Rarely,Most days,38,Male,NA,"GCSEs,Vocational Training / Apprenticeship",choice,9,2,For,For
20,1659975251665,08/08/2022 16:14:11,1659975250395,1,08/08/2022 17:14:10,94826,3,task-b5vt,NA,23527333,6895694,NA,complete,NA,62f135a93e7832ac25aa58bf,computer,Desktop or Laptop,Mac OS 10.15.7,Safari 15.4,1440x900,1440x789,NA,ITT Ratings,2,for,1,NA,NA,NA,NA,NA,NA,NA,NA,NA,ACCEPT,batch1pro,batch1pro,6,18,1,Screen 1,continueButton,response_rating_scale_likert_active,5132,NA,NA,Disagree,1,0,1,0,NA,NA,NA,NA,1,statements,I'm a healthy young adult and I'd rather they give my dose to someone else who is more vulnerable,1,17/06/2021 12:34,17/06/2021 12:39,IP Address,For (I feel positively about the vaccines),Rarely,A few times a year,26,Female,NA,"Undergraduate degree (BSc, BA)",control,1,3,For,Against
21,1659975266027,08/08/2022 16:14:26,1659975264758,1,08/08/2022 17:14:24,94826,3,task-b5vt,NA,23527333,6895694,NA,complete,NA,62f135a93e7832ac25aa58bf,computer,Desktop or Laptop,Mac OS 10.15.7,Safari 15.4,1440x900,1440x789,NA,ITT Ratings,2,for,1,NA,NA,NA,NA,NA,NA,NA,NA,NA,ACCEPT,batch1pro,batch1pro,29,19,1,Screen 1,continueButton,response_rating_scale_likert_active,14338.999999999984,NA,NA,Disagree,1,0,1,0,NA,NA,NA,NA,1,statements,"The outcomes of the virus are not significant for that person, therefore the risk of the vaccine is greater than the risk of covid 19 side effects",1,17/06/2021 12:31,17/06/2021 12:41,IP Address,For (I feel positively about the vaccines),Rarely,A few times a year,31,Female,NA,"Undergraduate degree (BSc, BA)",choice,5,2,For,Against
22,1659975270674,08/08/2022 16:14:30,1659975269380,1,08/08/2022 17:14:29,94826,3,task-b5vt,NA,23527333,6895694,NA,complete,NA,62f135a93e7832ac25aa58bf,computer,Desktop or Laptop,Mac OS 10.15.7,Safari 15.4,1440x900,1440x789,NA,ITT Ratings,2,for,1,NA,NA,NA,NA,NA,NA,NA,NA,NA,ACCEPT,batch1pro,batch1pro,45,20,1,Screen 1,continueButton,response_rating_scale_likert_active,4603,NA,NA,Agree,1,0,1,0,NA,NA,NA,NA,1,statements,The risk of dying from covid reduces with a vaccine.,1,17/06/2021 12:35,17/06/2021 12:42,IP Address,For (I feel positively about the vaccines),Once or twice a year,A few times a year,20,Female,NA,"GCSEs,A levels",control,7,3,For,For
23,1659975275079,08/08/2022 16:14:35,1659975273753,1,08/08/2022 17:14:33,94826,3,task-b5vt,NA,23527333,6895694,NA,complete,NA,62f135a93e7832ac25aa58bf,computer,Desktop or Laptop,Mac OS 10.15.7,Safari 15.4,1440x900,1440x789,NA,ITT Ratings,2,for,1,NA,NA,NA,NA,NA,NA,NA,NA,NA,ACCEPT,batch1pro,batch1pro,14,21,1,Screen 1,continueButton,response_rating_scale_likert_active,4356,NA,NA,Agree,1,0,1,0,NA,NA,NA,NA,1,statements,It's one of the only ways we will return to normal life,1,17/06/2021 12:34,17/06/2021 12:40,IP Address,For (I feel positively about the vaccines),Rarely,Most weeks,26,Female,NA,"Undergraduate degree (BSc, BA)",choice,2,2,For,For
24,1659975279358,08/08/2022 16:14:39,1659975278084,1,08/08/2022 17:14:38,94826,3,task-b5vt,NA,23527333,6895694,NA,complete,NA,62f135a93e7832ac25aa58bf,computer,Desktop or Laptop,Mac OS 10.15.7,Safari 15.4,1440x900,1440x789,NA,ITT Ratings,2,for,1,NA,NA,NA,NA,NA,NA,NA,NA,NA,ACCEPT,batch1pro,batch1pro,39,22,1,Screen 1,continueButton,response_rating_scale_likert_active,4313.999999999971,NA,NA,Agree,1,0,1,0,NA,NA,NA,NA,1,statements,Alot of people have died from getting Covid and I want to keep my self safe and I trust it,1,17/06/2021 12:16,17/06/2021 12:42,IP Address,For (I feel positively about the vaccines),Rarely,Most days,34,Male,NA,GCSEs,control,6,3,For,For
25,1659975287576,08/08/2022 16:14:47,1659975286293,1,08/08/2022 17:14:46,94826,3,task-b5vt,NA,23527333,6895694,NA,complete,NA,62f135a93e7832ac25aa58bf,computer,Desktop or Laptop,Mac OS 10.15.7,Safari 15.4,1440x900,1440x789,NA,ITT Ratings,2,for,1,NA,NA,NA,NA,NA,NA,NA,NA,NA,ACCEPT,batch1pro,batch1pro,47,23,1,Screen 1,continueButton,response_rating_scale_likert_active,8190.999999999971,NA,NA,Somewhat Disagree,1,0,1,0,NA,NA,NA,NA,1,statements,there are negative side effects,1,17/06/2021 12:29,17/06/2021 12:42,IP Address,For (I feel positively about the vaccines),Most months,Most months,20,Male,NA,A levels,choice,8,2,For,Against
26,1659975297186,08/08/2022 16:14:57,1659975295910,1,08/08/2022 17:14:55,94826,3,task-b5vt,NA,23527333,6895694,NA,complete,NA,62f135a93e7832ac25aa58bf,computer,Desktop or Laptop,Mac OS 10.15.7,Safari 15.4,1440x900,1440x789,NA,ITT Ratings,2,for,1,NA,NA,NA,NA,NA,NA,NA,NA,NA,ACCEPT,batch1pro,batch1pro,49,24,1,Screen 1,continueButton,response_rating_scale_likert_active,9599,NA,NA,Somewhat Agree,1,0,1,0,NA,NA,NA,NA,1,statements,To gain immunity against COVID 19.,1,17/06/2021 12:29,17/06/2021 12:42,IP Address,For (I feel positively about the vaccines),Most months,Most months,20,Male,NA,A levels,choice,8,1,For,For
27,1659975301226,08/08/2022 16:15:01,1659975299951,1,08/08/2022 17:14:59,94826,3,task-b5vt,NA,23527333,6895694,NA,complete,NA,62f135a93e7832ac25aa58bf,computer,Desktop or Laptop,Mac OS 10.15.7,Safari 15.4,1440x900,1440x789,NA,ITT Ratings,2,for,1,NA,NA,NA,NA,NA,NA,NA,NA,NA,ACCEPT,batch1pro,batch1pro,23,25,1,Screen 1,continueButton,response_rating_scale_likert_active,4025,NA,NA,Strongly Disagree,1,0,1,0,NA,NA,NA,NA,1,statements,The government is trying to control us through this vaccine,1,17/06/2021 12:33,17/06/2021 12:41,IP Address,For (I feel positively about the vaccines),Most months,Most months,20,Female,NA,"Undergraduate degree (BSc, BA),Postgraduate degree (MSc, MA, MPhil)",control,4,2,For,Against
28,1659975308037,08/08/2022 16:15:08,1659975306764,1,08/08/2022 17:15:06,94826,3,task-b5vt,NA,23527333,6895694,NA,complete,NA,62f135a93e7832ac25aa58bf,computer,Desktop or Laptop,Mac OS 10.15.7,Safari 15.4,1440x900,1440x789,NA,ITT Ratings,2,for,1,NA,NA,NA,NA,NA,NA,NA,NA,NA,ACCEPT,batch1pro,batch1pro,24,26,1,Screen 1,continueButton,response_rating_scale_likert_active,6795,NA,NA,Neither Agree nor Disagree,1,0,1,0,NA,NA,NA,NA,1,statements,There are too many on the market at the moment,1,17/06/2021 12:33,17/06/2021 12:41,IP Address,For (I feel positively about the vaccines),Most months,Most months,20,Female,NA,"Undergraduate degree (BSc, BA),Postgraduate degree (MSc, MA, MPhil)",control,4,3,For,Against
29,1659975313051,08/08/2022 16:15:13,1659975311779,1,08/08/2022 17:15:11,94826,3,task-b5vt,NA,23527333,6895694,NA,complete,NA,62f135a93e7832ac25aa58bf,computer,Desktop or Laptop,Mac OS 10.15.7,Safari 15.4,1440x900,1440x789,NA,ITT Ratings,2,for,1,NA,NA,NA,NA,NA,NA,NA,NA,NA,ACCEPT,batch1pro,batch1pro,22,27,1,Screen 1,continueButton,response_rating_scale_likert_active,4997,NA,NA,Disagree,1,0,1,0,NA,NA,NA,NA,1,statements,It's not qualified or tested enough,1,17/06/2021 12:33,17/06/2021 12:41,IP Address,For (I feel positively about the vaccines),Most months,Most months,20,Female,NA,"Undergraduate degree (BSc, BA),Postgraduate degree (MSc, MA, MPhil)",control,4,1,For,Against
30,1659975316343,08/08/2022 16:15:16,1659975315070,1,08/08/2022 17:15:15,94826,3,task-b5vt,NA,23527333,6895694,NA,complete,NA,62f135a93e7832ac25aa58bf,computer,Desktop or Laptop,Mac OS 10.15.7,Safari 15.4,1440x900,1440x789,NA,ITT Ratings,2,for,1,NA,NA,NA,NA,NA,NA,NA,NA,NA,ACCEPT,batch1pro,batch1pro,55,28,1,Screen 1,continueButton,response_rating_scale_likert_active,3272,NA,NA,Agree,1,0,1,0,NA,NA,NA,NA,1,statements,It's essential to be vaccinated to regain normality.,1,17/06/2021 12:36,17/06/2021 12:43,IP Address,For (I feel positively about the vaccines),Rarely,Most days,38,Male,NA,"GCSEs,Vocational Training / Apprenticeship",choice,9,1,For,For
31,1659975320204,08/08/2022 16:15:20,1659975318922,1,08/08/2022 17:15:18,94826,3,task-b5vt,NA,23527333,6895694,NA,complete,NA,62f135a93e7832ac25aa58bf,computer,Desktop or Laptop,Mac OS 10.15.7,Safari 15.4,1440x900,1440x789,NA,ITT Ratings,2,for,1,NA,NA,NA,NA,NA,NA,NA,NA,NA,ACCEPT,batch1pro,batch1pro,46,29,1,Screen 1,continueButton,response_rating_scale_likert_active,3834,NA,NA,Strongly Disagree,1,0,1,0,NA,NA,NA,NA,1,statements,The government is trying to microchip me,1,17/06/2021 12:29,17/06/2021 12:42,IP Address,For (I feel positively about the vaccines),Most months,Most months,20,Male,NA,A levels,choice,8,1,For,Against
32,1659975327228,08/08/2022 16:15:27,1659975325952,1,08/08/2022 17:15:25,94826,3,task-b5vt,NA,23527333,6895694,NA,complete,NA,62f135a93e7832ac25aa58bf,computer,Desktop or Laptop,Mac OS 10.15.7,Safari 15.4,1440x900,1440x789,NA,ITT Ratings,2,for,1,NA,NA,NA,NA,NA,NA,NA,NA,NA,ACCEPT,batch1pro,batch1pro,38,30,1,Screen 1,continueButton,response_rating_scale_likert_active,7013,NA,NA,Agree,1,0,1,0,NA,NA,NA,NA,1,statements,"A member of my family can catch anything really easily , so I want to do this to help keep them safe",1,17/06/2021 12:16,17/06/2021 12:42,IP Address,For (I feel positively about the vaccines),Rarely,Most days,34,Male,NA,GCSEs,control,6,2,For,For
33,1659975341548,08/08/2022 16:15:41,1659975340268,1,08/08/2022 17:15:40,94826,3,task-b5vt,NA,23527333,6895694,NA,complete,NA,62f135a93e7832ac25aa58bf,computer,Desktop or Laptop,Mac OS 10.15.7,Safari 15.4,1440x900,1440x789,NA,ITT Ratings,2,for,1,NA,NA,NA,NA,NA,NA,NA,NA,NA,ACCEPT,batch1pro,batch1pro,35,31,1,Screen 1,continueButton,response_rating_scale_likert_active,14296.00000000003,NA,NA,Disagree,1,0,1,0,NA,NA,NA,NA,1,statements,Someone has told me there experience is bad which has now put me of the idear,1,17/06/2021 12:16,17/06/2021 12:42,IP Address,For (I feel positively about the vaccines),Rarely,Most days,34,Male,NA,GCSEs,control,6,2,For,Against
34,1659975344921,08/08/2022 16:15:44,1659975343648,1,08/08/2022 17:15:43,94826,3,task-b5vt,NA,23527333,6895694,NA,complete,NA,62f135a93e7832ac25aa58bf,computer,Desktop or Laptop,Mac OS 10.15.7,Safari 15.4,1440x900,1440x789,NA,ITT Ratings,2,for,1,NA,NA,NA,NA,NA,NA,NA,NA,NA,ACCEPT,batch1pro,batch1pro,41,32,1,Screen 1,continueButton,response_rating_scale_likert_active,3361,NA,NA,Strongly Disagree,1,0,1,0,NA,NA,NA,NA,1,statements,The vaccines contain trackers that allow the government to control us.,1,17/06/2021 12:35,17/06/2021 12:42,IP Address,For (I feel positively about the vaccines),Once or twice a year,A few times a year,20,Female,NA,"GCSEs,A levels",control,7,2,For,Against
35,1659975352753,08/08/2022 16:15:52,1659975351478,1,08/08/2022 17:15:51,94826,3,task-b5vt,NA,23527333,6895694,NA,complete,NA,62f135a93e7832ac25aa58bf,computer,Desktop or Laptop,Mac OS 10.15.7,Safari 15.4,1440x900,1440x789,NA,ITT Ratings,2,for,1,NA,NA,NA,NA,NA,NA,NA,NA,NA,ACCEPT,batch1pro,batch1pro,40,33,1,Screen 1,continueButton,response_rating_scale_likert_active,7810.999999999971,NA,NA,Disagree,1,0,1,0,NA,NA,NA,NA,1,statements,They believe we have not had enough time to develop an effective vaccine.,1,17/06/2021 12:35,17/06/2021 12:42,IP Address,For (I feel positively about the vaccines),Once or twice a year,A few times a year,20,Female,NA,"GCSEs,A levels",control,7,1,For,Against
36,1659975367628,08/08/2022 16:16:07,1659975366347,1,08/08/2022 17:16:06,94826,3,task-b5vt,NA,23527333,6895694,NA,complete,NA,62f135a93e7832ac25aa58bf,computer,Desktop or Laptop,Mac OS 10.15.7,Safari 15.4,1440x900,1440x789,NA,ITT Ratings,2,for,1,NA,NA,NA,NA,NA,NA,NA,NA,NA,ACCEPT,batch1pro,batch1pro,30,34,1,Screen 1,continueButton,response_rating_scale_likert_active,14851,NA,NA,Disagree,1,0,1,0,NA,NA,NA,NA,1,statements,The risks of side effects to su h as blood clots with vaccines are too high.,1,17/06/2021 12:31,17/06/2021 12:41,IP Address,For (I feel positively about the vaccines),Rarely,A few times a year,31,Female,NA,"Undergraduate degree (BSc, BA)",choice,5,3,For,Against
37,1659975373465,08/08/2022 16:16:13,1659975372184,1,08/08/2022 17:16:12,94826,3,task-b5vt,NA,23527333,6895694,NA,complete,NA,62f135a93e7832ac25aa58bf,computer,Desktop or Laptop,Mac OS 10.15.7,Safari 15.4,1440x900,1440x789,NA,ITT Ratings,2,for,1,NA,NA,NA,NA,NA,NA,NA,NA,NA,ACCEPT,batch1pro,batch1pro,37,35,1,Screen 1,continueButton,response_rating_scale_likert_active,5820.000000000029,NA,NA,Agree,1,0,1,0,NA,NA,NA,NA,1,statements,I am scared and if this vaccine will help then I'll do it,1,17/06/2021 12:16,17/06/2021 12:42,IP Address,For (I feel positively about the vaccines),Rarely,Most days,34,Male,NA,GCSEs,control,6,1,For,For
38,1659975376155,08/08/2022 16:16:16,1659975374798,1,08/08/2022 17:16:14,94826,3,task-b5vt,NA,23527333,6895694,NA,complete,NA,62f135a93e7832ac25aa58bf,computer,Desktop or Laptop,Mac OS 10.15.7,Safari 15.4,1440x900,1440x789,NA,ITT Ratings,2,for,1,NA,NA,NA,NA,NA,NA,NA,NA,NA,ACCEPT,batch1pro,batch1pro,27,36,1,Screen 1,continueButton,response_rating_scale_likert_active,2596.000000000029,NA,NA,Agree,1,0,1,0,NA,NA,NA,NA,1,statements,Doctors are trying to help,1,17/06/2021 12:33,17/06/2021 12:41,IP Address,For (I feel positively about the vaccines),Most months,Most months,20,Female,NA,"Undergraduate degree (BSc, BA),Postgraduate degree (MSc, MA, MPhil)",control,4,3,For,For
39,1659975385793,08/08/2022 16:16:25,1659975384519,1,08/08/2022 17:16:24,94826,3,task-b5vt,NA,23527333,6895694,NA,complete,NA,62f135a93e7832ac25aa58bf,computer,Desktop or Laptop,Mac OS 10.15.7,Safari 15.4,1440x900,1440x789,NA,ITT Ratings,2,for,1,NA,NA,NA,NA,NA,NA,NA,NA,NA,ACCEPT,batch1pro,batch1pro,28,37,1,Screen 1,continueButton,response_rating_scale_likert_active,9705,NA,NA,Disagree,1,0,1,0,NA,NA,NA,NA,1,statements,Do not want to be used as a government experiment - there has not been enough testing and the safety is not known.,1,17/06/2021 12:31,17/06/2021 12:41,IP Address,For (I feel positively about the vaccines),Rarely,A few times a year,31,Female,NA,"Undergraduate degree (BSc, BA)",choice,5,1,For,Against
40,1659975388286,08/08/2022 16:16:28,1659975387020,1,08/08/2022 17:16:27,94826,3,task-b5vt,NA,23527333,6895694,NA,complete,NA,62f135a93e7832ac25aa58bf,computer,Desktop or Laptop,Mac OS 10.15.7,Safari 15.4,1440x900,1440x789,NA,ITT Ratings,2,for,1,NA,NA,NA,NA,NA,NA,NA,NA,NA,ACCEPT,batch1pro,batch1pro,53,38,1,Screen 1,continueButton,response_rating_scale_likert_active,2484,NA,NA,Disagree,1,0,1,0,NA,NA,NA,NA,1,statements,The vaccines are not safe enough yet,1,17/06/2021 12:36,17/06/2021 12:43,IP Address,For (I feel positively about the vaccines),Rarely,Most days,38,Male,NA,"GCSEs,Vocational Training / Apprenticeship",choice,9,2,For,Against
41,1659975397862,08/08/2022 16:16:37,1659975396589,1,08/08/2022 17:16:36,94826,3,task-b5vt,NA,23527333,6895694,NA,complete,NA,62f135a93e7832ac25aa58bf,computer,Desktop or Laptop,Mac OS 10.15.7,Safari 15.4,1440x900,1440x789,NA,ITT Ratings,2,for,1,NA,NA,NA,NA,NA,NA,NA,NA,NA,ACCEPT,batch1pro,batch1pro,59,39,1,Screen 1,continueButton,response_rating_scale_likert_active,9553.00000000003,NA,NA,Disagree,1,0,1,0,NA,NA,NA,NA,1,statements,Concerns about the truthfulness of the pandemic and the true motivations behind mass vaccination.,1,17/06/2021 13:01,17/06/2021 13:10,IP Address,For (I feel positively about the vaccines),Most months,Most weeks,35,Non-binary,NA,"Postgraduate degree (MSc, MA, MPhil)",control,10,2,For,Against
42,1659975401742,08/08/2022 16:16:41,1659975400467,1,08/08/2022 17:16:40,94826,3,task-b5vt,NA,23527333,6895694,NA,complete,NA,62f135a93e7832ac25aa58bf,computer,Desktop or Laptop,Mac OS 10.15.7,Safari 15.4,1440x900,1440x789,NA,ITT Ratings,2,for,1,NA,NA,NA,NA,NA,NA,NA,NA,NA,ACCEPT,batch1pro,batch1pro,60,40,1,Screen 1,continueButton,response_rating_scale_likert_active,3860,NA,NA,Disagree,1,0,1,0,NA,NA,NA,NA,1,statements,Concerns about fertility and the population control conspiracy.,1,17/06/2021 13:01,17/06/2021 13:10,IP Address,For (I feel positively about the vaccines),Most months,Most weeks,35,Non-binary,NA,"Postgraduate degree (MSc, MA, MPhil)",control,10,3,For,Against
43,1659975407949,08/08/2022 16:16:47,1659975406672,1,08/08/2022 17:16:46,94826,3,task-b5vt,NA,23527333,6895694,NA,complete,NA,62f135a93e7832ac25aa58bf,computer,Desktop or Laptop,Mac OS 10.15.7,Safari 15.4,1440x900,1440x789,NA,ITT Ratings,2,for,1,NA,NA,NA,NA,NA,NA,NA,NA,NA,ACCEPT,batch1pro,batch1pro,50,41,1,Screen 1,continueButton,response_rating_scale_likert_active,6183,NA,NA,Somewhat Agree,1,0,1,0,NA,NA,NA,NA,1,statements,To protect others by giving herd immunity.,1,17/06/2021 12:29,17/06/2021 12:42,IP Address,For (I feel positively about the vaccines),Most months,Most months,20,Male,NA,A levels,choice,8,2,For,For
44,1659975417318,08/08/2022 16:16:57,1659975416038,1,08/08/2022 17:16:56,94826,3,task-b5vt,NA,23527333,6895694,NA,complete,NA,62f135a93e7832ac25aa58bf,computer,Desktop or Laptop,Mac OS 10.15.7,Safari 15.4,1440x900,1440x789,NA,ITT Ratings,2,for,1,NA,NA,NA,NA,NA,NA,NA,NA,NA,ACCEPT,batch1pro,batch1pro,58,42,1,Screen 1,continueButton,response_rating_scale_likert_active,9346,NA,NA,Disagree,1,0,1,0,NA,NA,NA,NA,1,statements,"Concerns about dangerous side effects, such as blood clots and neurological damage.",1,17/06/2021 13:01,17/06/2021 13:10,IP Address,For (I feel positively about the vaccines),Most months,Most weeks,35,Non-binary,NA,"Postgraduate degree (MSc, MA, MPhil)",control,10,1,For,Against
45,1659975422387,08/08/2022 16:17:02,1659975421107,1,08/08/2022 17:17:01,94826,3,task-b5vt,NA,23527333,6895694,NA,complete,NA,62f135a93e7832ac25aa58bf,computer,Desktop or Laptop,Mac OS 10.15.7,Safari 15.4,1440x900,1440x789,NA,ITT Ratings,2,for,1,NA,NA,NA,NA,NA,NA,NA,NA,NA,ACCEPT,batch1pro,batch1pro,26,43,1,Screen 1,continueButton,response_rating_scale_likert_active,5053,NA,NA,Agree,1,0,1,0,NA,NA,NA,NA,1,statements,Many people have got it and have survived,1,17/06/2021 12:33,17/06/2021 12:41,IP Address,For (I feel positively about the vaccines),Most months,Most months,20,Female,NA,"Undergraduate degree (BSc, BA),Postgraduate degree (MSc, MA, MPhil)",control,4,2,For,For
46,1659975432449,08/08/2022 16:17:12,1659975431174,1,08/08/2022 17:17:11,94826,3,task-b5vt,NA,23527333,6895694,NA,complete,NA,62f135a93e7832ac25aa58bf,computer,Desktop or Laptop,Mac OS 10.15.7,Safari 15.4,1440x900,1440x789,NA,ITT Ratings,2,for,1,NA,NA,NA,NA,NA,NA,NA,NA,NA,ACCEPT,batch1pro,batch1pro,9,44,1,Screen 1,continueButton,response_rating_scale_likert_active,10050,NA,NA,Agree,1,0,1,0,NA,NA,NA,NA,1,statements,I want to reduce the risk of myself catching the virus at work,1,17/06/2021 12:34,17/06/2021 12:39,IP Address,For (I feel positively about the vaccines),Rarely,A few times a year,26,Female,NA,"Undergraduate degree (BSc, BA)",control,1,3,For,For
47,1659975437301,08/08/2022 16:17:17,1659975436030,1,08/08/2022 17:17:16,94826,3,task-b5vt,NA,23527333,6895694,NA,complete,NA,62f135a93e7832ac25aa58bf,computer,Desktop or Laptop,Mac OS 10.15.7,Safari 15.4,1440x900,1440x789,NA,ITT Ratings,2,for,1,NA,NA,NA,NA,NA,NA,NA,NA,NA,ACCEPT,batch1pro,batch1pro,4,45,1,Screen 1,continueButton,response_rating_scale_likert_active,4837.999999999942,NA,NA,Somewhat Disagree,1,0,1,0,NA,NA,NA,NA,1,statements,"It was developed too quickly, I think they should have taken more time on it",1,17/06/2021 12:34,17/06/2021 12:39,IP Address,For (I feel positively about the vaccines),Rarely,A few times a year,26,Female,NA,"Undergraduate degree (BSc, BA)",control,1,1,For,Against
48,1659975443025,08/08/2022 16:17:23,1659975441757,1,08/08/2022 17:17:21,94826,3,task-b5vt,NA,23527333,6895694,NA,complete,NA,62f135a93e7832ac25aa58bf,computer,Desktop or Laptop,Mac OS 10.15.7,Safari 15.4,1440x900,1440x789,NA,ITT Ratings,2,for,1,NA,NA,NA,NA,NA,NA,NA,NA,NA,ACCEPT,batch1pro,batch1pro,3,46,1,Screen 1,continueButton,response_rating_scale_likert_active,5711.000000000058,NA,NA,Somewhat Disagree,1,0,1,0,NA,NA,NA,NA,1,statements,We would like to check you are reading each argument carefully. Please select 'Somewhat Disagree' for this answer,1,NA,NA,NA,NA,NA,NA,NA,NA,NA,NA,NA,NA,check2,NA,NA
49,1659975451024,08/08/2022 16:17:31,1659975449746,1,08/08/2022 17:17:29,94826,3,task-b5vt,NA,23527333,6895694,NA,complete,NA,62f135a93e7832ac25aa58bf,computer,Desktop or Laptop,Mac OS 10.15.7,Safari 15.4,1440x900,1440x789,NA,ITT Ratings,2,for,1,NA,NA,NA,NA,NA,NA,NA,NA,NA,ACCEPT,batch1pro,batch1pro,15,47,1,Screen 1,continueButton,response_rating_scale_likert_active,7973,NA,NA,Agree,1,0,1,0,NA,NA,NA,NA,1,statements,"Vaccines are important, they help us all live safely and healthily",1,17/06/2021 12:34,17/06/2021 12:40,IP Address,For (I feel positively about the vaccines),Rarely,Most weeks,26,Female,NA,"Undergraduate degree (BSc, BA)",choice,2,3,For,For
50,1659975452756,08/08/2022 16:17:32,1659975451477,1,08/08/2022 17:17:31,94826,3,task-b5vt,NA,23527333,6895694,NA,complete,NA,62f135a93e7832ac25aa58bf,computer,Desktop or Laptop,Mac OS 10.15.7,Safari 15.4,1440x900,1440x789,NA,ITT Ratings,2,for,1,NA,NA,NA,NA,NA,NA,NA,NA,NA,ACCEPT,batch1pro,batch1pro,20,48,1,Screen 1,continueButton,response_rating_scale_likert_active,1714.0000000000582,NA,NA,Agree,1,0,1,0,NA,NA,NA,NA,1,statements,I want to help society,1,17/06/2021 12:29,17/06/2021 12:41,IP Address,For (I feel positively about the vaccines),Rarely,A few times a year,55,Female,NA,A levels,choice,3,2,For,For
51,1659975458054,08/08/2022 16:17:38,1659975456772,1,08/08/2022 17:17:36,94826,3,task-b5vt,NA,23527333,6895694,NA,complete,NA,62f135a93e7832ac25aa58bf,computer,Desktop or Laptop,Mac OS 10.15.7,Safari 15.4,1440x900,1440x789,NA,ITT Ratings,2,for,1,NA,NA,NA,NA,NA,NA,NA,NA,NA,ACCEPT,batch1pro,batch1pro,5,49,1,Screen 1,continueButton,response_rating_scale_likert_active,5278,NA,NA,Disagree,1,0,1,0,NA,NA,NA,NA,1,statements,I don't want any of the side effects on me or my family,1,17/06/2021 12:34,17/06/2021 12:39,IP Address,For (I feel positively about the vaccines),Rarely,A few times a year,26,Female,NA,"Undergraduate degree (BSc, BA)",control,1,2,For,Against
52,1659975462657,08/08/2022 16:17:42,1659975461384,1,08/08/2022 17:17:41,94826,3,task-b5vt,NA,23527333,6895694,NA,complete,NA,62f135a93e7832ac25aa58bf,computer,Desktop or Laptop,Mac OS 10.15.7,Safari 15.4,1440x900,1440x789,NA,ITT Ratings,2,for,1,NA,NA,NA,NA,NA,NA,NA,NA,NA,ACCEPT,batch1pro,batch1pro,10,50,1,Screen 1,continueButton,response_rating_scale_likert_active,4592,NA,NA,Strongly Disagree,1,0,1,0,NA,NA,NA,NA,1,statements,I am one of those idiots who thinks I will become magnetic or have trackers in me,1,17/06/2021 12:34,17/06/2021 12:40,IP Address,For (I feel positively about the vaccines),Rarely,Most weeks,26,Female,NA,"Undergraduate degree (BSc, BA)",choice,2,1,For,Against
53,1659975468031,08/08/2022 16:17:48,1659975466755,1,08/08/2022 17:17:46,94826,3,task-b5vt,NA,23527333,6895694,NA,complete,NA,62f135a93e7832ac25aa58bf,computer,Desktop or Laptop,Mac OS 10.15.7,Safari 15.4,1440x900,1440x789,NA,ITT Ratings,2,for,1,NA,NA,NA,NA,NA,NA,NA,NA,NA,ACCEPT,batch1pro,batch1pro,44,51,1,Screen 1,continueButton,response_rating_scale_likert_active,5356,NA,NA,Agree,1,0,1,0,NA,NA,NA,NA,1,statements,It will help to protect the most vulnerable groups in our society.,1,17/06/2021 12:35,17/06/2021 12:42,IP Address,For (I feel positively about the vaccines),Once or twice a year,A few times a year,20,Female,NA,"GCSEs,A levels",control,7,2,For,For
54,1659975472335,08/08/2022 16:17:52,1659975471056,1,08/08/2022 17:17:51,94826,3,task-b5vt,NA,23527333,6895694,NA,complete,NA,62f135a93e7832ac25aa58bf,computer,Desktop or Laptop,Mac OS 10.15.7,Safari 15.4,1440x900,1440x789,NA,ITT Ratings,2,for,1,NA,NA,NA,NA,NA,NA,NA,NA,NA,ACCEPT,batch1pro,batch1pro,57,52,1,Screen 1,continueButton,response_rating_scale_likert_active,4286,NA,NA,Somewhat Agree,1,0,1,0,NA,NA,NA,NA,1,statements,Being vaccinated is reassuring,1,17/06/2021 12:36,17/06/2021 12:43,IP Address,For (I feel positively about the vaccines),Rarely,Most days,38,Male,NA,"GCSEs,Vocational Training / Apprenticeship",choice,9,3,For,For
55,1659975476717,08/08/2022 16:17:56,1659975475445,1,08/08/2022 17:17:55,94826,3,task-b5vt,NA,23527333,6895694,NA,complete,NA,62f135a93e7832ac25aa58bf,computer,Desktop or Laptop,Mac OS 10.15.7,Safari 15.4,1440x900,1440x789,NA,ITT Ratings,2,for,1,NA,NA,NA,NA,NA,NA,NA,NA,NA,ACCEPT,batch1pro,batch1pro,21,53,1,Screen 1,continueButton,response_rating_scale_likert_active,4371,NA,NA,Agree,1,0,1,0,NA,NA,NA,NA,1,statements,I want to help in defeating this virus,1,17/06/2021 12:29,17/06/2021 12:41,IP Address,For (I feel positively about the vaccines),Rarely,A few times a year,55,Female,NA,A levels,choice,3,3,For,For
56,1659975480739,08/08/2022 16:18:00,1659975479458,1,08/08/2022 17:17:59,94826,3,task-b5vt,NA,23527333,6895694,NA,complete,NA,62f135a93e7832ac25aa58bf,computer,Desktop or Laptop,Mac OS 10.15.7,Safari 15.4,1440x900,1440x789,NA,ITT Ratings,2,for,1,NA,NA,NA,NA,NA,NA,NA,NA,NA,ACCEPT,batch1pro,batch1pro,12,54,1,Screen 1,continueButton,response_rating_scale_likert_active,3997,NA,NA,Strongly Disagree,1,0,1,0,NA,NA,NA,NA,1,statements,I think that the vaccine is fake,1,17/06/2021 12:34,17/06/2021 12:40,IP Address,For (I feel positively about the vaccines),Rarely,Most weeks,26,Female,NA,"Undergraduate degree (BSc, BA)",choice,2,3,For,Against
57,1659975486655,08/08/2022 16:18:06,1659975485383,1,08/08/2022 17:18:05,94826,3,task-b5vt,NA,23527333,6895694,NA,complete,NA,62f135a93e7832ac25aa58bf,computer,Desktop or Laptop,Mac OS 10.15.7,Safari 15.4,1440x900,1440x789,NA,ITT Ratings,2,for,1,NA,NA,NA,NA,NA,NA,NA,NA,NA,ACCEPT,batch1pro,batch1pro,34,55,1,Screen 1,continueButton,response_rating_scale_likert_active,5909,NA,NA,Somewhat Agree,1,0,1,0,NA,NA,NA,NA,1,statements,They have herd there could be side effects,1,17/06/2021 12:16,17/06/2021 12:42,IP Address,For (I feel positively about the vaccines),Rarely,Most days,34,Male,NA,GCSEs,control,6,1,For,Against
58,1659975491313,08/08/2022 16:18:11,1659975490038,1,08/08/2022 17:18:10,94826,3,task-b5vt,NA,23527333,6895694,NA,complete,NA,62f135a93e7832ac25aa58bf,computer,Desktop or Laptop,Mac OS 10.15.7,Safari 15.4,1440x900,1440x789,NA,ITT Ratings,2,for,1,NA,NA,NA,NA,NA,NA,NA,NA,NA,ACCEPT,batch1pro,batch1pro,25,56,1,Screen 1,continueButton,response_rating_scale_likert_active,4640,NA,NA,Agree,1,0,1,0,NA,NA,NA,NA,1,statements,It's been tried and tested and has been approved by many doctors around the world,1,17/06/2021 12:33,17/06/2021 12:41,IP Address,For (I feel positively about the vaccines),Most months,Most months,20,Female,NA,"Undergraduate degree (BSc, BA),Postgraduate degree (MSc, MA, MPhil)",control,4,1,For,For
59,1659975494522,08/08/2022 16:18:14,1659975493244,1,08/08/2022 17:18:13,94826,3,task-b5vt,NA,23527333,6895694,NA,complete,NA,62f135a93e7832ac25aa58bf,computer,Desktop or Laptop,Mac OS 10.15.7,Safari 15.4,1440x900,1440x789,NA,ITT Ratings,2,for,1,NA,NA,NA,NA,NA,NA,NA,NA,NA,ACCEPT,batch1pro,batch1pro,17,57,1,Screen 1,continueButton,response_rating_scale_likert_active,3189.000000000058,NA,NA,Somewhat Agree,1,0,1,0,NA,NA,NA,NA,1,statements,Future side effects are unknown,1,17/06/2021 12:29,17/06/2021 12:41,IP Address,For (I feel positively about the vaccines),Rarely,A few times a year,55,Female,NA,A levels,choice,3,2,For,Against
60,1659975505662,08/08/2022 16:18:25,1659975504347,1,08/08/2022 17:18:24,94826,3,task-b5vt,NA,23527333,6895694,NA,complete,NA,62f135a93e7832ac25aa58bf,computer,Desktop or Laptop,Mac OS 10.15.7,Safari 15.4,1440x900,1440x789,NA,ITT Ratings,2,for,1,NA,NA,NA,NA,NA,NA,NA,NA,NA,ACCEPT,batch1pro,batch1pro,19,58,1,Screen 1,continueButton,response_rating_scale_likert_active,11069,NA,NA,Agree,1,0,1,0,NA,NA,NA,NA,1,statements,I want to have it for my own and my family’s protection,1,17/06/2021 12:29,17/06/2021 12:41,IP Address,For (I feel positively about the vaccines),Rarely,A few times a year,55,Female,NA,A levels,choice,3,1,For,For
61,1659975508663,08/08/2022 16:18:28,1659975507362,1,08/08/2022 17:18:27,94826,3,task-b5vt,NA,23527333,6895694,NA,complete,NA,62f135a93e7832ac25aa58bf,computer,Desktop or Laptop,Mac OS 10.15.7,Safari 15.4,1440x900,1440x789,NA,ITT Ratings,2,for,1,NA,NA,NA,NA,NA,NA,NA,NA,NA,ACCEPT,batch1pro,batch1pro,8,59,1,Screen 1,continueButton,response_rating_scale_likert_active,2998.999999999942,NA,NA,Agree,1,0,1,0,NA,NA,NA,NA,1,statements,I want to protect my family and be able to see them again,1,17/06/2021 12:34,17/06/2021 12:39,IP Address,For (I feel positively about the vaccines),Rarely,A few times a year,26,Female,NA,"Undergraduate degree (BSc, BA)",control,1,2,For,For
62,1659975512960,08/08/2022 16:18:32,1659975511687,1,08/08/2022 17:18:31,94826,3,task-b5vt,NA,23527333,6895694,NA,complete,NA,62f135a93e7832ac25aa58bf,computer,Desktop or Laptop,Mac OS 10.15.7,Safari 15.4,1440x900,1440x789,NA,ITT Ratings,2,for,1,NA,NA,NA,NA,NA,NA,NA,NA,NA,ACCEPT,batch1pro,batch1pro,36,60,1,Screen 1,continueButton,response_rating_scale_likert_active,4308,NA,NA,Disagree,1,0,1,0,NA,NA,NA,NA,1,statements,I am scared and I don't believe that the Vaccine will help me,1,17/06/2021 12:16,17/06/2021 12:42,IP Address,For (I feel positively about the vaccines),Rarely,Most days,34,Male,NA,GCSEs,control,6,3,For,Against
63,1659975518107,08/08/2022 16:18:38,1659975516822,1,08/08/2022 17:18:36,94826,3,task-b5vt,NA,23527333,6895694,NA,complete,NA,62f135a93e7832ac25aa58bf,computer,Desktop or Laptop,Mac OS 10.15.7,Safari 15.4,1440x900,1440x789,NA,ITT Ratings,2,for,1,NA,NA,NA,NA,NA,NA,NA,NA,NA,ACCEPT,batch1pro,batch1pro,13,61,1,Screen 1,continueButton,response_rating_scale_likert_active,5122,NA,NA,Agree,1,0,1,0,NA,NA,NA,NA,1,statements,It's important to protect the people you love who are a higher risk than you,1,17/06/2021 12:34,17/06/2021 12:40,IP Address,For (I feel positively about the vaccines),Rarely,Most weeks,26,Female,NA,"Undergraduate degree (BSc, BA)",choice,2,1,For,For
64,1659975521808,08/08/2022 16:18:41,1659975520531,1,08/08/2022 17:18:40,94826,3,task-b5vt,NA,23527333,6895694,NA,complete,NA,62f135a93e7832ac25aa58bf,computer,Desktop or Laptop,Mac OS 10.15.7,Safari 15.4,1440x900,1440x789,NA,ITT Ratings,2,for,1,NA,NA,NA,NA,NA,NA,NA,NA,NA,ACCEPT,batch1pro,batch1pro,62,62,1,Screen 1,continueButton,response_rating_scale_likert_active,3695,NA,NA,Agree,1,0,1,0,NA,NA,NA,NA,1,statements,Reduced risk of passing on COVID.,1,17/06/2021 13:01,17/06/2021 13:10,IP Address,For (I feel positively about the vaccines),Most months,Most weeks,35,Non-binary,NA,"Postgraduate degree (MSc, MA, MPhil)",control,10,2,For,For
65,1659975521851,08/08/2022 16:18:41,1659975520536,1,08/08/2022 17:18:40,94826,3,task-b5vt,NA,23527333,6895694,NA,complete,NA,62f135a93e7832ac25aa58bf,computer,Desktop or Laptop,Mac OS 10.15.7,Safari 15.4,1440x900,1440x789,NA,ITT Ratings,2,for,1,NA,NA,NA,NA,NA,NA,NA,NA,NA,ACCEPT,batch1pro,NA,NA,END TASK,NA,NA,NA,NA,384721,NA,NA,NA,NA,0,1,0,NA,NA,NA,NA,NA,NA,NA,NA,NA,NA,NA,NA,NA,NA,NA,NA,NA,NA,NA,NA,NA,NA,NA
1,1659975233482,08/08/2022 16:13:53,1659975234330,1,08/08/2022 17:13:54,94826,3,task-b5vt,NA,23527364,6895701,NA,complete,NA,62f1362730f4a6950454d0f4,computer,Desktop or Laptop,Windows 10,Chrome 104.0.0.0,1920x1080,1920x969,NA,ITT Ratings,2,for,1,NA,NA,NA,NA,NA,NA,NA,NA,NA,ACCEPT,batch1pro,NA,NA,BEGIN TASK,NA,NA,NA,NA,NA,NA,NA,NA,NA,0,1,0,NA,NA,NA,NA,NA,NA,NA,NA,NA,NA,NA,NA,NA,NA,NA,NA,NA,NA,NA,NA,NA,NA,NA
2,1659975236848,08/08/2022 16:13:56,1659975237729,1,08/08/2022 17:13:57,94826,3,task-b5vt,NA,23527364,6895701,NA,complete,NA,62f1362730f4a6950454d0f4,computer,Desktop or Laptop,Windows 10,Chrome 104.0.0.0,1920x1080,1920x969,NA,ITT Ratings,2,for,1,NA,NA,NA,NA,NA,NA,NA,NA,NA,ACCEPT,batch1pro,batch1pro,1,1,1,Screen 1,advancementZone,continue_button,3378.900000002235,NA,NA,NA,NA,0,1,0,NA,NA,NA,NA,NA,instructions,NA,NA,NA,NA,NA,NA,NA,NA,NA,NA,NA,NA,NA,NA,NA,NA,NA
3,1659975244441,08/08/2022 16:14:04,1659975245323,1,08/08/2022 17:14:05,94826,3,task-b5vt,NA,23527364,6895701,NA,complete,NA,62f1362730f4a6950454d0f4,computer,Desktop or Laptop,Windows 10,Chrome 104.0.0.0,1920x1080,1920x969,NA,ITT Ratings,2,for,1,NA,NA,NA,NA,NA,NA,NA,NA,NA,ACCEPT,batch1pro,batch1pro,19,1,1,Screen 1,continueButton,response_rating_scale_likert_active,7562.199999999255,NA,NA,Strongly Agree,1,0,1,0,NA,NA,NA,NA,1,statements,I want to have it for my own and my family’s protection,1,17/06/2021 12:29,17/06/2021 12:41,IP Address,For (I feel positively about the vaccines),Rarely,A few times a year,55,Female,NA,A levels,choice,3,1,For,For
4,1659975250963,08/08/2022 16:14:10,1659975251849,1,08/08/2022 17:14:11,94826,3,task-b5vt,NA,23527364,6895701,NA,complete,NA,62f1362730f4a6950454d0f4,computer,Desktop or Laptop,Windows 10,Chrome 104.0.0.0,1920x1080,1920x969,NA,ITT Ratings,2,for,1,NA,NA,NA,NA,NA,NA,NA,NA,NA,ACCEPT,batch1pro,batch1pro,10,2,1,Screen 1,continueButton,response_rating_scale_likert_active,6519.199999999255,NA,NA,Strongly Disagree,1,0,1,0,NA,NA,NA,NA,1,statements,I am one of those idiots who thinks I will become magnetic or have trackers in me,1,17/06/2021 12:34,17/06/2021 12:40,IP Address,For (I feel positively about the vaccines),Rarely,Most weeks,26,Female,NA,"Undergraduate degree (BSc, BA)",choice,2,1,For,Against
5,1659975255252,08/08/2022 16:14:15,1659975256146,1,08/08/2022 17:14:16,94826,3,task-b5vt,NA,23527364,6895701,NA,complete,NA,62f1362730f4a6950454d0f4,computer,Desktop or Laptop,Windows 10,Chrome 104.0.0.0,1920x1080,1920x969,NA,ITT Ratings,2,for,1,NA,NA,NA,NA,NA,NA,NA,NA,NA,ACCEPT,batch1pro,batch1pro,38,3,1,Screen 1,continueButton,response_rating_scale_likert_active,4290.699999999255,NA,NA,Strongly Agree,1,0,1,0,NA,NA,NA,NA,1,statements,"A member of my family can catch anything really easily , so I want to do this to help keep them safe",1,17/06/2021 12:16,17/06/2021 12:42,IP Address,For (I feel positively about the vaccines),Rarely,Most days,34,Male,NA,GCSEs,control,6,2,For,For
6,1659975257848,08/08/2022 16:14:17,1659975258721,1,08/08/2022 17:14:18,94826,3,task-b5vt,NA,23527364,6895701,NA,complete,NA,62f1362730f4a6950454d0f4,computer,Desktop or Laptop,Windows 10,Chrome 104.0.0.0,1920x1080,1920x969,NA,ITT Ratings,2,for,1,NA,NA,NA,NA,NA,NA,NA,NA,NA,ACCEPT,batch1pro,batch1pro,18,4,1,Screen 1,continueButton,response_rating_scale_likert_active,2569.800000000745,NA,NA,Disagree,1,0,1,0,NA,NA,NA,NA,1,statements,Unless everyone has it then what is the point,1,17/06/2021 12:29,17/06/2021 12:41,IP Address,For (I feel positively about the vaccines),Rarely,A few times a year,55,Female,NA,A levels,choice,3,3,For,Against
7,1659975260525,08/08/2022 16:14:20,1659975261412,1,08/08/2022 17:14:21,94826,3,task-b5vt,NA,23527364,6895701,NA,complete,NA,62f1362730f4a6950454d0f4,computer,Desktop or Laptop,Windows 10,Chrome 104.0.0.0,1920x1080,1920x969,NA,ITT Ratings,2,for,1,NA,NA,NA,NA,NA,NA,NA,NA,NA,ACCEPT,batch1pro,batch1pro,20,5,1,Screen 1,continueButton,response_rating_scale_likert_active,2686,NA,NA,Somewhat Agree,1,0,1,0,NA,NA,NA,NA,1,statements,I want to help society,1,17/06/2021 12:29,17/06/2021 12:41,IP Address,For (I feel positively about the vaccines),Rarely,A few times a year,55,Female,NA,A levels,choice,3,2,For,For
8,1659975269439,08/08/2022 16:14:29,1659975270338,1,08/08/2022 17:14:30,94826,3,task-b5vt,NA,23527364,6895701,NA,complete,NA,62f1362730f4a6950454d0f4,computer,Desktop or Laptop,Windows 10,Chrome 104.0.0.0,1920x1080,1920x969,NA,ITT Ratings,2,for,1,NA,NA,NA,NA,NA,NA,NA,NA,NA,ACCEPT,batch1pro,batch1pro,51,6,1,Screen 1,continueButton,response_rating_scale_likert_active,8920.79999999702,NA,NA,Neither Agree nor Disagree,1,0,1,0,NA,NA,NA,NA,1,statements,To help end the negative social impact of the virus such as lockdowns and online education,1,17/06/2021 12:29,17/06/2021 12:42,IP Address,For (I feel positively about the vaccines),Most months,Most months,20,Male,NA,A levels,choice,8,3,For,For
9,1659975271896,08/08/2022 16:14:31,1659975272782,1,08/08/2022 17:14:32,94826,3,task-b5vt,NA,23527364,6895701,NA,complete,NA,62f1362730f4a6950454d0f4,computer,Desktop or Laptop,Windows 10,Chrome 104.0.0.0,1920x1080,1920x969,NA,ITT Ratings,2,for,1,NA,NA,NA,NA,NA,NA,NA,NA,NA,ACCEPT,batch1pro,batch1pro,41,7,1,Screen 1,continueButton,response_rating_scale_likert_active,2438.300000000745,NA,NA,Strongly Disagree,1,0,1,0,NA,NA,NA,NA,1,statements,The vaccines contain trackers that allow the government to control us.,1,17/06/2021 12:35,17/06/2021 12:42,IP Address,For (I feel positively about the vaccines),Once or twice a year,A few times a year,20,Female,NA,"GCSEs,A levels",control,7,2,For,Against
10,1659975276274,08/08/2022 16:14:36,1659975277166,1,08/08/2022 17:14:37,94826,3,task-b5vt,NA,23527364,6895701,NA,complete,NA,62f1362730f4a6950454d0f4,computer,Desktop or Laptop,Windows 10,Chrome 104.0.0.0,1920x1080,1920x969,NA,ITT Ratings,2,for,1,NA,NA,NA,NA,NA,NA,NA,NA,NA,ACCEPT,batch1pro,batch1pro,43,8,1,Screen 1,continueButton,response_rating_scale_likert_active,4378.300000000745,NA,NA,Somewhat Agree,1,0,1,0,NA,NA,NA,NA,1,statements,It is the only way we can effectively eliminate the virus from the world.,1,17/06/2021 12:35,17/06/2021 12:42,IP Address,For (I feel positively about the vaccines),Once or twice a year,A few times a year,20,Female,NA,"GCSEs,A levels",control,7,1,For,For
11,1659975280233,08/08/2022 16:14:40,1659975281126,1,08/08/2022 17:14:41,94826,3,task-b5vt,NA,23527364,6895701,NA,complete,NA,62f1362730f4a6950454d0f4,computer,Desktop or Laptop,Windows 10,Chrome 104.0.0.0,1920x1080,1920x969,NA,ITT Ratings,2,for,1,NA,NA,NA,NA,NA,NA,NA,NA,NA,ACCEPT,batch1pro,batch1pro,39,9,1,Screen 1,continueButton,response_rating_scale_likert_active,3949.39999999851,NA,NA,Agree,1,0,1,0,NA,NA,NA,NA,1,statements,Alot of people have died from getting Covid and I want to keep my self safe and I trust it,1,17/06/2021 12:16,17/06/2021 12:42,IP Address,For (I feel positively about the vaccines),Rarely,Most days,34,Male,NA,GCSEs,control,6,3,For,For
12,1659975284191,08/08/2022 16:14:44,1659975285079,1,08/08/2022 17:14:45,94826,3,task-b5vt,NA,23527364,6895701,NA,complete,NA,62f1362730f4a6950454d0f4,computer,Desktop or Laptop,Windows 10,Chrome 104.0.0.0,1920x1080,1920x969,NA,ITT Ratings,2,for,1,NA,NA,NA,NA,NA,NA,NA,NA,NA,ACCEPT,batch1pro,batch1pro,33,10,1,Screen 1,continueButton,response_rating_scale_likert_active,3946.699999999255,NA,NA,Strongly Agree,1,0,1,0,NA,NA,NA,NA,1,statements,More vaccinations will hopefully mean less admissions and deaths and less pressure on the nhs,1,17/06/2021 12:31,17/06/2021 12:41,IP Address,For (I feel positively about the vaccines),Rarely,A few times a year,31,Female,NA,"Undergraduate degree (BSc, BA)",choice,5,3,For,For
13,1659975287542,08/08/2022 16:14:47,1659975288438,1,08/08/2022 17:14:48,94826,3,task-b5vt,NA,23527364,6895701,NA,complete,NA,62f1362730f4a6950454d0f4,computer,Desktop or Laptop,Windows 10,Chrome 104.0.0.0,1920x1080,1920x969,NA,ITT Ratings,2,for,1,NA,NA,NA,NA,NA,NA,NA,NA,NA,ACCEPT,batch1pro,batch1pro,36,11,1,Screen 1,continueButton,response_rating_scale_likert_active,3354.199999999255,NA,NA,Strongly Disagree,1,0,1,0,NA,NA,NA,NA,1,statements,I am scared and I don't believe that the Vaccine will help me,1,17/06/2021 12:16,17/06/2021 12:42,IP Address,For (I feel positively about the vaccines),Rarely,Most days,34,Male,NA,GCSEs,control,6,3,For,Against
14,1659975291807,08/08/2022 16:14:51,1659975292698,1,08/08/2022 17:14:52,94826,3,task-b5vt,NA,23527364,6895701,NA,complete,NA,62f1362730f4a6950454d0f4,computer,Desktop or Laptop,Windows 10,Chrome 104.0.0.0,1920x1080,1920x969,NA,ITT Ratings,2,for,1,NA,NA,NA,NA,NA,NA,NA,NA,NA,ACCEPT,batch1pro,batch1pro,63,12,1,Screen 1,continueButton,response_rating_scale_likert_active,4255.400000002235,NA,NA,Neither Agree nor Disagree,1,0,1,0,NA,NA,NA,NA,1,statements,Less restrictions on behaviour due to immunity.,1,17/06/2021 13:01,17/06/2021 13:10,IP Address,For (I feel positively about the vaccines),Most months,Most weeks,35,Non-binary,NA,"Postgraduate degree (MSc, MA, MPhil)",control,10,3,For,For
15,1659975293827,08/08/2022 16:14:53,1659975294718,1,08/08/2022 17:14:54,94826,3,task-b5vt,NA,23527364,6895701,NA,complete,NA,62f1362730f4a6950454d0f4,computer,Desktop or Laptop,Windows 10,Chrome 104.0.0.0,1920x1080,1920x969,NA,ITT Ratings,2,for,1,NA,NA,NA,NA,NA,NA,NA,NA,NA,ACCEPT,batch1pro,batch1pro,46,13,1,Screen 1,continueButton,response_rating_scale_likert_active,2014.300000000745,NA,NA,Strongly Disagree,1,0,1,0,NA,NA,NA,NA,1,statements,The government is trying to microchip me,1,17/06/2021 12:29,17/06/2021 12:42,IP Address,For (I feel positively about the vaccines),Most months,Most months,20,Male,NA,A levels,choice,8,1,For,Against
16,1659975295881,08/08/2022 16:14:55,1659975296774,1,08/08/2022 17:14:56,94826,3,task-b5vt,NA,23527364,6895701,NA,complete,NA,62f1362730f4a6950454d0f4,computer,Desktop or Laptop,Windows 10,Chrome 104.0.0.0,1920x1080,1920x969,NA,ITT Ratings,2,for,1,NA,NA,NA,NA,NA,NA,NA,NA,NA,ACCEPT,batch1pro,batch1pro,53,14,1,Screen 1,continueButton,response_rating_scale_likert_active,2050.5,NA,NA,Disagree,1,0,1,0,NA,NA,NA,NA,1,statements,The vaccines are not safe enough yet,1,17/06/2021 12:36,17/06/2021 12:43,IP Address,For (I feel positively about the vaccines),Rarely,Most days,38,Male,NA,"GCSEs,Vocational Training / Apprenticeship",choice,9,2,For,Against
17,1659975298226,08/08/2022 16:14:58,1659975299118,1,08/08/2022 17:14:59,94826,3,task-b5vt,NA,23527364,6895701,NA,complete,NA,62f1362730f4a6950454d0f4,computer,Desktop or Laptop,Windows 10,Chrome 104.0.0.0,1920x1080,1920x969,NA,ITT Ratings,2,for,1,NA,NA,NA,NA,NA,NA,NA,NA,NA,ACCEPT,batch1pro,batch1pro,47,15,1,Screen 1,continueButton,response_rating_scale_likert_active,2339.5,NA,NA,Disagree,1,0,1,0,NA,NA,NA,NA,1,statements,there are negative side effects,1,17/06/2021 12:29,17/06/2021 12:42,IP Address,For (I feel positively about the vaccines),Most months,Most months,20,Male,NA,A levels,choice,8,2,For,Against
18,1659975301413,08/08/2022 16:15:01,1659975302306,1,08/08/2022 17:15:02,94826,3,task-b5vt,NA,23527364,6895701,NA,complete,NA,62f1362730f4a6950454d0f4,computer,Desktop or Laptop,Windows 10,Chrome 104.0.0.0,1920x1080,1920x969,NA,ITT Ratings,2,for,1,NA,NA,NA,NA,NA,NA,NA,NA,NA,ACCEPT,batch1pro,batch1pro,25,16,1,Screen 1,continueButton,response_rating_scale_likert_active,3182.699999999255,NA,NA,Strongly Agree,1,0,1,0,NA,NA,NA,NA,1,statements,It's been tried and tested and has been approved by many doctors around the world,1,17/06/2021 12:33,17/06/2021 12:41,IP Address,For (I feel positively about the vaccines),Most months,Most months,20,Female,NA,"Undergraduate degree (BSc, BA),Postgraduate degree (MSc, MA, MPhil)",control,4,1,For,For
19,1659975303716,08/08/2022 16:15:03,1659975304608,1,08/08/2022 17:15:04,94826,3,task-b5vt,NA,23527364,6895701,NA,complete,NA,62f1362730f4a6950454d0f4,computer,Desktop or Laptop,Windows 10,Chrome 104.0.0.0,1920x1080,1920x969,NA,ITT Ratings,2,for,1,NA,NA,NA,NA,NA,NA,NA,NA,NA,ACCEPT,batch1pro,batch1pro,56,17,1,Screen 1,continueButton,response_rating_scale_likert_active,2297.400000002235,NA,NA,Strongly Agree,1,0,1,0,NA,NA,NA,NA,1,statements,The vaccines are safe enough to use,1,17/06/2021 12:36,17/06/2021 12:43,IP Address,For (I feel positively about the vaccines),Rarely,Most days,38,Male,NA,"GCSEs,Vocational Training / Apprenticeship",choice,9,2,For,For
20,1659975307311,08/08/2022 16:15:07,1659975308202,1,08/08/2022 17:15:08,94826,3,task-b5vt,NA,23527364,6895701,NA,complete,NA,62f1362730f4a6950454d0f4,computer,Desktop or Laptop,Windows 10,Chrome 104.0.0.0,1920x1080,1920x969,NA,ITT Ratings,2,for,1,NA,NA,NA,NA,NA,NA,NA,NA,NA,ACCEPT,batch1pro,batch1pro,30,18,1,Screen 1,continueButton,response_rating_scale_likert_active,3589.300000000745,NA,NA,Disagree,1,0,1,0,NA,NA,NA,NA,1,statements,The risks of side effects to su h as blood clots with vaccines are too high.,1,17/06/2021 12:31,17/06/2021 12:41,IP Address,For (I feel positively about the vaccines),Rarely,A few times a year,31,Female,NA,"Undergraduate degree (BSc, BA)",choice,5,3,For,Against
21,1659975313565,08/08/2022 16:15:13,1659975314452,1,08/08/2022 17:15:14,94826,3,task-b5vt,NA,23527364,6895701,NA,complete,NA,62f1362730f4a6950454d0f4,computer,Desktop or Laptop,Windows 10,Chrome 104.0.0.0,1920x1080,1920x969,NA,ITT Ratings,2,for,1,NA,NA,NA,NA,NA,NA,NA,NA,NA,ACCEPT,batch1pro,batch1pro,29,19,1,Screen 1,continueButton,response_rating_scale_likert_active,6244,NA,NA,Strongly Disagree,1,0,1,0,NA,NA,NA,NA,1,statements,"The outcomes of the virus are not significant for that person, therefore the risk of the vaccine is greater than the risk of covid 19 side effects",1,17/06/2021 12:31,17/06/2021 12:41,IP Address,For (I feel positively about the vaccines),Rarely,A few times a year,31,Female,NA,"Undergraduate degree (BSc, BA)",choice,5,2,For,Against
22,1659975319517,08/08/2022 16:15:19,1659975320385,1,08/08/2022 17:15:20,94826,3,task-b5vt,NA,23527364,6895701,NA,complete,NA,62f1362730f4a6950454d0f4,computer,Desktop or Laptop,Windows 10,Chrome 104.0.0.0,1920x1080,1920x969,NA,ITT Ratings,2,for,1,NA,NA,NA,NA,NA,NA,NA,NA,NA,ACCEPT,batch1pro,batch1pro,34,20,1,Screen 1,continueButton,response_rating_scale_likert_active,5927.900000002235,NA,NA,Neither Agree nor Disagree,1,0,1,0,NA,NA,NA,NA,1,statements,They have herd there could be side effects,1,17/06/2021 12:16,17/06/2021 12:42,IP Address,For (I feel positively about the vaccines),Rarely,Most days,34,Male,NA,GCSEs,control,6,1,For,Against
23,1659975321715,08/08/2022 16:15:21,1659975322606,1,08/08/2022 17:15:22,94826,3,task-b5vt,NA,23527364,6895701,NA,complete,NA,62f1362730f4a6950454d0f4,computer,Desktop or Laptop,Windows 10,Chrome 104.0.0.0,1920x1080,1920x969,NA,ITT Ratings,2,for,1,NA,NA,NA,NA,NA,NA,NA,NA,NA,ACCEPT,batch1pro,batch1pro,27,21,1,Screen 1,continueButton,response_rating_scale_likert_active,2215.89999999851,NA,NA,Strongly Agree,1,0,1,0,NA,NA,NA,NA,1,statements,Doctors are trying to help,1,17/06/2021 12:33,17/06/2021 12:41,IP Address,For (I feel positively about the vaccines),Most months,Most months,20,Female,NA,"Undergraduate degree (BSc, BA),Postgraduate degree (MSc, MA, MPhil)",control,4,3,For,For
24,1659975324146,08/08/2022 16:15:24,1659975325041,1,08/08/2022 17:15:25,94826,3,task-b5vt,NA,23527364,6895701,NA,complete,NA,62f1362730f4a6950454d0f4,computer,Desktop or Laptop,Windows 10,Chrome 104.0.0.0,1920x1080,1920x969,NA,ITT Ratings,2,for,1,NA,NA,NA,NA,NA,NA,NA,NA,NA,ACCEPT,batch1pro,batch1pro,17,22,1,Screen 1,continueButton,response_rating_scale_likert_active,2429.29999999702,NA,NA,Neither Agree nor Disagree,1,0,1,0,NA,NA,NA,NA,1,statements,Future side effects are unknown,1,17/06/2021 12:29,17/06/2021 12:41,IP Address,For (I feel positively about the vaccines),Rarely,A few times a year,55,Female,NA,A levels,choice,3,2,For,Against
25,1659975329737,08/08/2022 16:15:29,1659975330629,1,08/08/2022 17:15:30,94826,3,task-b5vt,NA,23527364,6895701,NA,complete,NA,62f1362730f4a6950454d0f4,computer,Desktop or Laptop,Windows 10,Chrome 104.0.0.0,1920x1080,1920x969,NA,ITT Ratings,2,for,1,NA,NA,NA,NA,NA,NA,NA,NA,NA,ACCEPT,batch1pro,batch1pro,31,23,1,Screen 1,continueButton,response_rating_scale_likert_active,5584.10000000149,NA,NA,Agree,1,0,1,0,NA,NA,NA,NA,1,statements,They wish for life to return to normal and the best way to achieve this is maximum uptake,1,17/06/2021 12:31,17/06/2021 12:41,IP Address,For (I feel positively about the vaccines),Rarely,A few times a year,31,Female,NA,"Undergraduate degree (BSc, BA)",choice,5,1,For,For
26,1659975333686,08/08/2022 16:15:33,1659975334579,1,08/08/2022 17:15:34,94826,3,task-b5vt,NA,23527364,6895701,NA,complete,NA,62f1362730f4a6950454d0f4,computer,Desktop or Laptop,Windows 10,Chrome 104.0.0.0,1920x1080,1920x969,NA,ITT Ratings,2,for,1,NA,NA,NA,NA,NA,NA,NA,NA,NA,ACCEPT,batch1pro,batch1pro,62,24,1,Screen 1,continueButton,response_rating_scale_likert_active,3944.60000000149,NA,NA,Agree,1,0,1,0,NA,NA,NA,NA,1,statements,Reduced risk of passing on COVID.,1,17/06/2021 13:01,17/06/2021 13:10,IP Address,For (I feel positively about the vaccines),Most months,Most weeks,35,Non-binary,NA,"Postgraduate degree (MSc, MA, MPhil)",control,10,2,For,For
27,1659975336405,08/08/2022 16:15:36,1659975337289,1,08/08/2022 17:15:37,94826,3,task-b5vt,NA,23527364,6895701,NA,complete,NA,62f1362730f4a6950454d0f4,computer,Desktop or Laptop,Windows 10,Chrome 104.0.0.0,1920x1080,1920x969,NA,ITT Ratings,2,for,1,NA,NA,NA,NA,NA,NA,NA,NA,NA,ACCEPT,batch1pro,batch1pro,24,25,1,Screen 1,continueButton,response_rating_scale_likert_active,2705.5,NA,NA,Strongly Disagree,1,0,1,0,NA,NA,NA,NA,1,statements,There are too many on the market at the moment,1,17/06/2021 12:33,17/06/2021 12:41,IP Address,For (I feel positively about the vaccines),Most months,Most months,20,Female,NA,"Undergraduate degree (BSc, BA),Postgraduate degree (MSc, MA, MPhil)",control,4,3,For,Against
28,1659975339874,08/08/2022 16:15:39,1659975340766,1,08/08/2022 17:15:40,94826,3,task-b5vt,NA,23527364,6895701,NA,complete,NA,62f1362730f4a6950454d0f4,computer,Desktop or Laptop,Windows 10,Chrome 104.0.0.0,1920x1080,1920x969,NA,ITT Ratings,2,for,1,NA,NA,NA,NA,NA,NA,NA,NA,NA,ACCEPT,batch1pro,batch1pro,58,26,1,Screen 1,continueButton,response_rating_scale_likert_active,3472.300000000745,NA,NA,Neither Agree nor Disagree,1,0,1,0,NA,NA,NA,NA,1,statements,"Concerns about dangerous side effects, such as blood clots and neurological damage.",1,17/06/2021 13:01,17/06/2021 13:10,IP Address,For (I feel positively about the vaccines),Most months,Most weeks,35,Non-binary,NA,"Postgraduate degree (MSc, MA, MPhil)",control,10,1,For,Against
29,1659975344348,08/08/2022 16:15:44,1659975345244,1,08/08/2022 17:15:45,94826,3,task-b5vt,NA,23527364,6895701,NA,complete,NA,62f1362730f4a6950454d0f4,computer,Desktop or Laptop,Windows 10,Chrome 104.0.0.0,1920x1080,1920x969,NA,ITT Ratings,2,for,1,NA,NA,NA,NA,NA,NA,NA,NA,NA,ACCEPT,batch1pro,batch1pro,37,27,1,Screen 1,continueButton,response_rating_scale_likert_active,4473,NA,NA,Agree,1,0,1,0,NA,NA,NA,NA,1,statements,I am scared and if this vaccine will help then I'll do it,1,17/06/2021 12:16,17/06/2021 12:42,IP Address,For (I feel positively about the vaccines),Rarely,Most days,34,Male,NA,GCSEs,control,6,1,For,For
30,1659975346212,08/08/2022 16:15:46,1659975347096,1,08/08/2022 17:15:47,94826,3,task-b5vt,NA,23527364,6895701,NA,complete,NA,62f1362730f4a6950454d0f4,computer,Desktop or Laptop,Windows 10,Chrome 104.0.0.0,1920x1080,1920x969,NA,ITT Ratings,2,for,1,NA,NA,NA,NA,NA,NA,NA,NA,NA,ACCEPT,batch1pro,batch1pro,57,28,1,Screen 1,continueButton,response_rating_scale_likert_active,1847.39999999851,NA,NA,Strongly Agree,1,0,1,0,NA,NA,NA,NA,1,statements,Being vaccinated is reassuring,1,17/06/2021 12:36,17/06/2021 12:43,IP Address,For (I feel positively about the vaccines),Rarely,Most days,38,Male,NA,"GCSEs,Vocational Training / Apprenticeship",choice,9,3,For,For
31,1659975348202,08/08/2022 16:15:48,1659975349094,1,08/08/2022 17:15:49,94826,3,task-b5vt,NA,23527364,6895701,NA,complete,NA,62f1362730f4a6950454d0f4,computer,Desktop or Laptop,Windows 10,Chrome 104.0.0.0,1920x1080,1920x969,NA,ITT Ratings,2,for,1,NA,NA,NA,NA,NA,NA,NA,NA,NA,ACCEPT,batch1pro,batch1pro,16,29,1,Screen 1,continueButton,response_rating_scale_likert_active,1992.699999999255,NA,NA,Strongly Disagree,1,0,1,0,NA,NA,NA,NA,1,statements,Hasn't been tested for long enough,1,17/06/2021 12:29,17/06/2021 12:41,IP Address,For (I feel positively about the vaccines),Rarely,A few times a year,55,Female,NA,A levels,choice,3,1,For,Against
32,1659975352985,08/08/2022 16:15:52,1659975353877,1,08/08/2022 17:15:53,94826,3,task-b5vt,NA,23527364,6895701,NA,complete,NA,62f1362730f4a6950454d0f4,computer,Desktop or Laptop,Windows 10,Chrome 104.0.0.0,1920x1080,1920x969,NA,ITT Ratings,2,for,1,NA,NA,NA,NA,NA,NA,NA,NA,NA,ACCEPT,batch1pro,batch1pro,2,30,1,Screen 1,continueButton,response_rating_scale_likert_active,4778,NA,NA,Somewhat Agree,1,0,1,0,NA,NA,NA,NA,1,statements,We would like to check you are reading each argument carefully. Please select 'Somewhat Agree' for this answer,1,NA,NA,NA,NA,NA,NA,NA,NA,NA,NA,NA,NA,check1,NA,NA
33,1659975356881,08/08/2022 16:15:56,1659975357768,1,08/08/2022 17:15:57,94826,3,task-b5vt,NA,23527364,6895701,NA,complete,NA,62f1362730f4a6950454d0f4,computer,Desktop or Laptop,Windows 10,Chrome 104.0.0.0,1920x1080,1920x969,NA,ITT Ratings,2,for,1,NA,NA,NA,NA,NA,NA,NA,NA,NA,ACCEPT,batch1pro,batch1pro,21,31,1,Screen 1,continueButton,response_rating_scale_likert_active,3886.800000000745,NA,NA,Strongly Agree,1,0,1,0,NA,NA,NA,NA,1,statements,I want to help in defeating this virus,1,17/06/2021 12:29,17/06/2021 12:41,IP Address,For (I feel positively about the vaccines),Rarely,A few times a year,55,Female,NA,A levels,choice,3,3,For,For
34,1659975358888,08/08/2022 16:15:58,1659975359770,1,08/08/2022 17:15:59,94826,3,task-b5vt,NA,23527364,6895701,NA,complete,NA,62f1362730f4a6950454d0f4,computer,Desktop or Laptop,Windows 10,Chrome 104.0.0.0,1920x1080,1920x969,NA,ITT Ratings,2,for,1,NA,NA,NA,NA,NA,NA,NA,NA,NA,ACCEPT,batch1pro,batch1pro,8,32,1,Screen 1,continueButton,response_rating_scale_likert_active,1997.5999999977648,NA,NA,Strongly Agree,1,0,1,0,NA,NA,NA,NA,1,statements,I want to protect my family and be able to see them again,1,17/06/2021 12:34,17/06/2021 12:39,IP Address,For (I feel positively about the vaccines),Rarely,A few times a year,26,Female,NA,"Undergraduate degree (BSc, BA)",control,1,2,For,For
35,1659975361975,08/08/2022 16:16:01,1659975362858,1,08/08/2022 17:16:02,94826,3,task-b5vt,NA,23527364,6895701,NA,complete,NA,62f1362730f4a6950454d0f4,computer,Desktop or Laptop,Windows 10,Chrome 104.0.0.0,1920x1080,1920x969,NA,ITT Ratings,2,for,1,NA,NA,NA,NA,NA,NA,NA,NA,NA,ACCEPT,batch1pro,batch1pro,59,33,1,Screen 1,continueButton,response_rating_scale_likert_active,3082.699999999255,NA,NA,Disagree,1,0,1,0,NA,NA,NA,NA,1,statements,Concerns about the truthfulness of the pandemic and the true motivations behind mass vaccination.,1,17/06/2021 13:01,17/06/2021 13:10,IP Address,For (I feel positively about the vaccines),Most months,Most weeks,35,Non-binary,NA,"Postgraduate degree (MSc, MA, MPhil)",control,10,2,For,Against
36,1659975364506,08/08/2022 16:16:04,1659975365392,1,08/08/2022 17:16:05,94826,3,task-b5vt,NA,23527364,6895701,NA,complete,NA,62f1362730f4a6950454d0f4,computer,Desktop or Laptop,Windows 10,Chrome 104.0.0.0,1920x1080,1920x969,NA,ITT Ratings,2,for,1,NA,NA,NA,NA,NA,NA,NA,NA,NA,ACCEPT,batch1pro,batch1pro,42,34,1,Screen 1,continueButton,response_rating_scale_likert_active,2528.900000002235,NA,NA,Strongly Disagree,1,0,1,0,NA,NA,NA,NA,1,statements,They are unsafe and can cause long-term effects.,1,17/06/2021 12:35,17/06/2021 12:42,IP Address,For (I feel positively about the vaccines),Once or twice a year,A few times a year,20,Female,NA,"GCSEs,A levels",control,7,3,For,Against
37,1659975370617,08/08/2022 16:16:10,1659975371512,1,08/08/2022 17:16:11,94826,3,task-b5vt,NA,23527364,6895701,NA,complete,NA,62f1362730f4a6950454d0f4,computer,Desktop or Laptop,Windows 10,Chrome 104.0.0.0,1920x1080,1920x969,NA,ITT Ratings,2,for,1,NA,NA,NA,NA,NA,NA,NA,NA,NA,ACCEPT,batch1pro,batch1pro,32,35,1,Screen 1,continueButton,response_rating_scale_likert_active,6115.199999999255,NA,NA,Strongly Agree,1,0,1,0,NA,NA,NA,NA,1,statements,I am aware of the risks and complications of contracting xovid 19 and wish to protect myself and others,1,17/06/2021 12:31,17/06/2021 12:41,IP Address,For (I feel positively about the vaccines),Rarely,A few times a year,31,Female,NA,"Undergraduate degree (BSc, BA)",choice,5,2,For,For
38,1659975372557,08/08/2022 16:16:12,1659975373453,1,08/08/2022 17:16:13,94826,3,task-b5vt,NA,23527364,6895701,NA,complete,NA,62f1362730f4a6950454d0f4,computer,Desktop or Laptop,Windows 10,Chrome 104.0.0.0,1920x1080,1920x969,NA,ITT Ratings,2,for,1,NA,NA,NA,NA,NA,NA,NA,NA,NA,ACCEPT,batch1pro,batch1pro,7,36,1,Screen 1,continueButton,response_rating_scale_likert_active,1936.39999999851,NA,NA,Strongly Agree,1,0,1,0,NA,NA,NA,NA,1,statements,It's the right thing to do to protect everyone else,1,17/06/2021 12:34,17/06/2021 12:39,IP Address,For (I feel positively about the vaccines),Rarely,A few times a year,26,Female,NA,"Undergraduate degree (BSc, BA)",control,1,1,For,For
39,1659975374725,08/08/2022 16:16:14,1659975375607,1,08/08/2022 17:16:15,94826,3,task-b5vt,NA,23527364,6895701,NA,complete,NA,62f1362730f4a6950454d0f4,computer,Desktop or Laptop,Windows 10,Chrome 104.0.0.0,1920x1080,1920x969,NA,ITT Ratings,2,for,1,NA,NA,NA,NA,NA,NA,NA,NA,NA,ACCEPT,batch1pro,batch1pro,22,37,1,Screen 1,continueButton,response_rating_scale_likert_active,2148.89999999851,NA,NA,Strongly Disagree,1,0,1,0,NA,NA,NA,NA,1,statements,It's not qualified or tested enough,1,17/06/2021 12:33,17/06/2021 12:41,IP Address,For (I feel positively about the vaccines),Most months,Most months,20,Female,NA,"Undergraduate degree (BSc, BA),Postgraduate degree (MSc, MA, MPhil)",control,4,1,For,Against
40,1659975377475,08/08/2022 16:16:17,1659975378372,1,08/08/2022 17:16:18,94826,3,task-b5vt,NA,23527364,6895701,NA,complete,NA,62f1362730f4a6950454d0f4,computer,Desktop or Laptop,Windows 10,Chrome 104.0.0.0,1920x1080,1920x969,NA,ITT Ratings,2,for,1,NA,NA,NA,NA,NA,NA,NA,NA,NA,ACCEPT,batch1pro,batch1pro,35,38,1,Screen 1,continueButton,response_rating_scale_likert_active,2760.5,NA,NA,Strongly Disagree,1,0,1,0,NA,NA,NA,NA,1,statements,Someone has told me there experience is bad which has now put me of the idear,1,17/06/2021 12:16,17/06/2021 12:42,IP Address,For (I feel positively about the vaccines),Rarely,Most days,34,Male,NA,GCSEs,control,6,2,For,Against
41,1659975380995,08/08/2022 16:16:20,1659975381890,1,08/08/2022 17:16:21,94826,3,task-b5vt,NA,23527364,6895701,NA,complete,NA,62f1362730f4a6950454d0f4,computer,Desktop or Laptop,Windows 10,Chrome 104.0.0.0,1920x1080,1920x969,NA,ITT Ratings,2,for,1,NA,NA,NA,NA,NA,NA,NA,NA,NA,ACCEPT,batch1pro,batch1pro,3,39,1,Screen 1,continueButton,response_rating_scale_likert_active,3512.70000000298,NA,NA,Somewhat Disagree,1,0,1,0,NA,NA,NA,NA,1,statements,We would like to check you are reading each argument carefully. Please select 'Somewhat Disagree' for this answer,1,NA,NA,NA,NA,NA,NA,NA,NA,NA,NA,NA,NA,check2,NA,NA
42,1659975382931,08/08/2022 16:16:22,1659975383820,1,08/08/2022 17:16:23,94826,3,task-b5vt,NA,23527364,6895701,NA,complete,NA,62f1362730f4a6950454d0f4,computer,Desktop or Laptop,Windows 10,Chrome 104.0.0.0,1920x1080,1920x969,NA,ITT Ratings,2,for,1,NA,NA,NA,NA,NA,NA,NA,NA,NA,ACCEPT,batch1pro,batch1pro,12,40,1,Screen 1,continueButton,response_rating_scale_likert_active,1925.39999999851,NA,NA,Strongly Disagree,1,0,1,0,NA,NA,NA,NA,1,statements,I think that the vaccine is fake,1,17/06/2021 12:34,17/06/2021 12:40,IP Address,For (I feel positively about the vaccines),Rarely,Most weeks,26,Female,NA,"Undergraduate degree (BSc, BA)",choice,2,3,For,Against
43,1659975386405,08/08/2022 16:16:26,1659975387288,1,08/08/2022 17:16:27,94826,3,task-b5vt,NA,23527364,6895701,NA,complete,NA,62f1362730f4a6950454d0f4,computer,Desktop or Laptop,Windows 10,Chrome 104.0.0.0,1920x1080,1920x969,NA,ITT Ratings,2,for,1,NA,NA,NA,NA,NA,NA,NA,NA,NA,ACCEPT,batch1pro,batch1pro,52,41,1,Screen 1,continueButton,response_rating_scale_likert_active,3463.599999997765,NA,NA,Strongly Disagree,1,0,1,0,NA,NA,NA,NA,1,statements,The covid 19 vaccines are a conspiracy,1,17/06/2021 12:36,17/06/2021 12:43,IP Address,For (I feel positively about the vaccines),Rarely,Most days,38,Male,NA,"GCSEs,Vocational Training / Apprenticeship",choice,9,1,For,Against
44,1659975390096,08/08/2022 16:16:30,1659975390982,1,08/08/2022 17:16:30,94826,3,task-b5vt,NA,23527364,6895701,NA,complete,NA,62f1362730f4a6950454d0f4,computer,Desktop or Laptop,Windows 10,Chrome 104.0.0.0,1920x1080,1920x969,NA,ITT Ratings,2,for,1,NA,NA,NA,NA,NA,NA,NA,NA,NA,ACCEPT,batch1pro,batch1pro,13,42,1,Screen 1,continueButton,response_rating_scale_likert_active,3688.199999999255,NA,NA,Strongly Agree,1,0,1,0,NA,NA,NA,NA,1,statements,It's important to protect the people you love who are a higher risk than you,1,17/06/2021 12:34,17/06/2021 12:40,IP Address,For (I feel positively about the vaccines),Rarely,Most weeks,26,Female,NA,"Undergraduate degree (BSc, BA)",choice,2,1,For,For
45,1659975391927,08/08/2022 16:16:31,1659975392813,1,08/08/2022 17:16:32,94826,3,task-b5vt,NA,23527364,6895701,NA,complete,NA,62f1362730f4a6950454d0f4,computer,Desktop or Laptop,Windows 10,Chrome 104.0.0.0,1920x1080,1920x969,NA,ITT Ratings,2,for,1,NA,NA,NA,NA,NA,NA,NA,NA,NA,ACCEPT,batch1pro,batch1pro,61,43,1,Screen 1,continueButton,response_rating_scale_likert_active,1826,NA,NA,Agree,1,0,1,0,NA,NA,NA,NA,1,statements,Reduced risk of getting COVID.,1,17/06/2021 13:01,17/06/2021 13:10,IP Address,For (I feel positively about the vaccines),Most months,Most weeks,35,Non-binary,NA,"Postgraduate degree (MSc, MA, MPhil)",control,10,1,For,For
46,1659975395531,08/08/2022 16:16:35,1659975396410,1,08/08/2022 17:16:36,94826,3,task-b5vt,NA,23527364,6895701,NA,complete,NA,62f1362730f4a6950454d0f4,computer,Desktop or Laptop,Windows 10,Chrome 104.0.0.0,1920x1080,1920x969,NA,ITT Ratings,2,for,1,NA,NA,NA,NA,NA,NA,NA,NA,NA,ACCEPT,batch1pro,batch1pro,28,44,1,Screen 1,continueButton,response_rating_scale_likert_active,3592.599999997765,NA,NA,Strongly Disagree,1,0,1,0,NA,NA,NA,NA,1,statements,Do not want to be used as a government experiment - there has not been enough testing and the safety is not known.,1,17/06/2021 12:31,17/06/2021 12:41,IP Address,For (I feel positively about the vaccines),Rarely,A few times a year,31,Female,NA,"Undergraduate degree (BSc, BA)",choice,5,1,For,Against
47,1659975398337,08/08/2022 16:16:38,1659975399225,1,08/08/2022 17:16:39,94826,3,task-b5vt,NA,23527364,6895701,NA,complete,NA,62f1362730f4a6950454d0f4,computer,Desktop or Laptop,Windows 10,Chrome 104.0.0.0,1920x1080,1920x969,NA,ITT Ratings,2,for,1,NA,NA,NA,NA,NA,NA,NA,NA,NA,ACCEPT,batch1pro,batch1pro,26,45,1,Screen 1,continueButton,response_rating_scale_likert_active,2809.800000000745,NA,NA,Agree,1,0,1,0,NA,NA,NA,NA,1,statements,Many people have got it and have survived,1,17/06/2021 12:33,17/06/2021 12:41,IP Address,For (I feel positively about the vaccines),Most months,Most months,20,Female,NA,"Undergraduate degree (BSc, BA),Postgraduate degree (MSc, MA, MPhil)",control,4,2,For,For
48,1659975403281,08/08/2022 16:16:43,1659975404168,1,08/08/2022 17:16:44,94826,3,task-b5vt,NA,23527364,6895701,NA,complete,NA,62f1362730f4a6950454d0f4,computer,Desktop or Laptop,Windows 10,Chrome 104.0.0.0,1920x1080,1920x969,NA,ITT Ratings,2,for,1,NA,NA,NA,NA,NA,NA,NA,NA,NA,ACCEPT,batch1pro,batch1pro,55,46,1,Screen 1,continueButton,response_rating_scale_likert_active,4938.300000000745,NA,NA,Agree,1,0,1,0,NA,NA,NA,NA,1,statements,It's essential to be vaccinated to regain normality.,1,17/06/2021 12:36,17/06/2021 12:43,IP Address,For (I feel positively about the vaccines),Rarely,Most days,38,Male,NA,"GCSEs,Vocational Training / Apprenticeship",choice,9,1,For,For
49,1659975405540,08/08/2022 16:16:45,1659975406430,1,08/08/2022 17:16:46,94826,3,task-b5vt,NA,23527364,6895701,NA,complete,NA,62f1362730f4a6950454d0f4,computer,Desktop or Laptop,Windows 10,Chrome 104.0.0.0,1920x1080,1920x969,NA,ITT Ratings,2,for,1,NA,NA,NA,NA,NA,NA,NA,NA,NA,ACCEPT,batch1pro,batch1pro,49,47,1,Screen 1,continueButton,response_rating_scale_likert_active,2257.599999997765,NA,NA,Agree,1,0,1,0,NA,NA,NA,NA,1,statements,To gain immunity against COVID 19.,1,17/06/2021 12:29,17/06/2021 12:42,IP Address,For (I feel positively about the vaccines),Most months,Most months,20,Male,NA,A levels,choice,8,1,For,For
50,1659975410506,08/08/2022 16:16:50,1659975411402,1,08/08/2022 17:16:51,94826,3,task-b5vt,NA,23527364,6895701,NA,complete,NA,62f1362730f4a6950454d0f4,computer,Desktop or Laptop,Windows 10,Chrome 104.0.0.0,1920x1080,1920x969,NA,ITT Ratings,2,for,1,NA,NA,NA,NA,NA,NA,NA,NA,NA,ACCEPT,batch1pro,batch1pro,5,48,1,Screen 1,continueButton,response_rating_scale_likert_active,4966.599999997765,NA,NA,Disagree,1,0,1,0,NA,NA,NA,NA,1,statements,I don't want any of the side effects on me or my family,1,17/06/2021 12:34,17/06/2021 12:39,IP Address,For (I feel positively about the vaccines),Rarely,A few times a year,26,Female,NA,"Undergraduate degree (BSc, BA)",control,1,2,For,Against
51,1659975413199,08/08/2022 16:16:53,1659975414094,1,08/08/2022 17:16:54,94826,3,task-b5vt,NA,23527364,6895701,NA,complete,NA,62f1362730f4a6950454d0f4,computer,Desktop or Laptop,Windows 10,Chrome 104.0.0.0,1920x1080,1920x969,NA,ITT Ratings,2,for,1,NA,NA,NA,NA,NA,NA,NA,NA,NA,ACCEPT,batch1pro,batch1pro,11,49,1,Screen 1,continueButton,response_rating_scale_likert_active,2687.199999999255,NA,NA,Strongly Disagree,1,0,1,0,NA,NA,NA,NA,1,statements,I believe that the vaccine is ineffective or rushed,1,17/06/2021 12:34,17/06/2021 12:40,IP Address,For (I feel positively about the vaccines),Rarely,Most weeks,26,Female,NA,"Undergraduate degree (BSc, BA)",choice,2,2,For,Against
52,1659975415257,08/08/2022 16:16:55,1659975416143,1,08/08/2022 17:16:56,94826,3,task-b5vt,NA,23527364,6895701,NA,complete,NA,62f1362730f4a6950454d0f4,computer,Desktop or Laptop,Windows 10,Chrome 104.0.0.0,1920x1080,1920x969,NA,ITT Ratings,2,for,1,NA,NA,NA,NA,NA,NA,NA,NA,NA,ACCEPT,batch1pro,batch1pro,4,50,1,Screen 1,continueButton,response_rating_scale_likert_active,2044.29999999702,NA,NA,Strongly Disagree,1,0,1,0,NA,NA,NA,NA,1,statements,"It was developed too quickly, I think they should have taken more time on it",1,17/06/2021 12:34,17/06/2021 12:39,IP Address,For (I feel positively about the vaccines),Rarely,A few times a year,26,Female,NA,"Undergraduate degree (BSc, BA)",control,1,1,For,Against
53,1659975418213,08/08/2022 16:16:58,1659975419107,1,08/08/2022 17:16:59,94826,3,task-b5vt,NA,23527364,6895701,NA,complete,NA,62f1362730f4a6950454d0f4,computer,Desktop or Laptop,Windows 10,Chrome 104.0.0.0,1920x1080,1920x969,NA,ITT Ratings,2,for,1,NA,NA,NA,NA,NA,NA,NA,NA,NA,ACCEPT,batch1pro,batch1pro,54,51,1,Screen 1,continueButton,response_rating_scale_likert_active,2958.89999999851,NA,NA,Strongly Disagree,1,0,1,0,NA,NA,NA,NA,1,statements,The vaccines don't work and will not be affective,1,17/06/2021 12:36,17/06/2021 12:43,IP Address,For (I feel positively about the vaccines),Rarely,Most days,38,Male,NA,"GCSEs,Vocational Training / Apprenticeship",choice,9,3,For,Against
54,1659975421698,08/08/2022 16:17:01,1659975422584,1,08/08/2022 17:17:02,94826,3,task-b5vt,NA,23527364,6895701,NA,complete,NA,62f1362730f4a6950454d0f4,computer,Desktop or Laptop,Windows 10,Chrome 104.0.0.0,1920x1080,1920x969,NA,ITT Ratings,2,for,1,NA,NA,NA,NA,NA,NA,NA,NA,NA,ACCEPT,batch1pro,batch1pro,40,52,1,Screen 1,continueButton,response_rating_scale_likert_active,3472.5,NA,NA,Strongly Disagree,1,0,1,0,NA,NA,NA,NA,1,statements,They believe we have not had enough time to develop an effective vaccine.,1,17/06/2021 12:35,17/06/2021 12:42,IP Address,For (I feel positively about the vaccines),Once or twice a year,A few times a year,20,Female,NA,"GCSEs,A levels",control,7,1,For,Against
55,1659975423388,08/08/2022 16:17:03,1659975424253,1,08/08/2022 17:17:04,94826,3,task-b5vt,NA,23527364,6895701,NA,complete,NA,62f1362730f4a6950454d0f4,computer,Desktop or Laptop,Windows 10,Chrome 104.0.0.0,1920x1080,1920x969,NA,ITT Ratings,2,for,1,NA,NA,NA,NA,NA,NA,NA,NA,NA,ACCEPT,batch1pro,batch1pro,23,53,1,Screen 1,continueButton,response_rating_scale_likert_active,1664.5,NA,NA,Strongly Disagree,1,0,1,0,NA,NA,NA,NA,1,statements,The government is trying to control us through this vaccine,1,17/06/2021 12:33,17/06/2021 12:41,IP Address,For (I feel positively about the vaccines),Most months,Most months,20,Female,NA,"Undergraduate degree (BSc, BA),Postgraduate degree (MSc, MA, MPhil)",control,4,2,For,Against
56,1659975425574,08/08/2022 16:17:05,1659975426466,1,08/08/2022 17:17:06,94826,3,task-b5vt,NA,23527364,6895701,NA,complete,NA,62f1362730f4a6950454d0f4,computer,Desktop or Laptop,Windows 10,Chrome 104.0.0.0,1920x1080,1920x969,NA,ITT Ratings,2,for,1,NA,NA,NA,NA,NA,NA,NA,NA,NA,ACCEPT,batch1pro,batch1pro,44,54,1,Screen 1,continueButton,response_rating_scale_likert_active,2207.10000000149,NA,NA,Agree,1,0,1,0,NA,NA,NA,NA,1,statements,It will help to protect the most vulnerable groups in our society.,1,17/06/2021 12:35,17/06/2021 12:42,IP Address,For (I feel positively about the vaccines),Once or twice a year,A few times a year,20,Female,NA,"GCSEs,A levels",control,7,2,For,For
57,1659975427675,08/08/2022 16:17:07,1659975428557,1,08/08/2022 17:17:08,94826,3,task-b5vt,NA,23527364,6895701,NA,complete,NA,62f1362730f4a6950454d0f4,computer,Desktop or Laptop,Windows 10,Chrome 104.0.0.0,1920x1080,1920x969,NA,ITT Ratings,2,for,1,NA,NA,NA,NA,NA,NA,NA,NA,NA,ACCEPT,batch1pro,batch1pro,60,55,1,Screen 1,continueButton,response_rating_scale_likert_active,2086.699999999255,NA,NA,Strongly Disagree,1,0,1,0,NA,NA,NA,NA,1,statements,Concerns about fertility and the population control conspiracy.,1,17/06/2021 13:01,17/06/2021 13:10,IP Address,For (I feel positively about the vaccines),Most months,Most weeks,35,Non-binary,NA,"Postgraduate degree (MSc, MA, MPhil)",control,10,3,For,Against
58,1659975429897,08/08/2022 16:17:09,1659975430782,1,08/08/2022 17:17:10,94826,3,task-b5vt,NA,23527364,6895701,NA,complete,NA,62f1362730f4a6950454d0f4,computer,Desktop or Laptop,Windows 10,Chrome 104.0.0.0,1920x1080,1920x969,NA,ITT Ratings,2,for,1,NA,NA,NA,NA,NA,NA,NA,NA,NA,ACCEPT,batch1pro,batch1pro,14,56,1,Screen 1,continueButton,response_rating_scale_likert_active,2220.60000000149,NA,NA,Agree,1,0,1,0,NA,NA,NA,NA,1,statements,It's one of the only ways we will return to normal life,1,17/06/2021 12:34,17/06/2021 12:40,IP Address,For (I feel positively about the vaccines),Rarely,Most weeks,26,Female,NA,"Undergraduate degree (BSc, BA)",choice,2,2,For,For
59,1659975432380,08/08/2022 16:17:12,1659975433265,1,08/08/2022 17:17:13,94826,3,task-b5vt,NA,23527364,6895701,NA,complete,NA,62f1362730f4a6950454d0f4,computer,Desktop or Laptop,Windows 10,Chrome 104.0.0.0,1920x1080,1920x969,NA,ITT Ratings,2,for,1,NA,NA,NA,NA,NA,NA,NA,NA,NA,ACCEPT,batch1pro,batch1pro,45,57,1,Screen 1,continueButton,response_rating_scale_likert_active,2478.599999997765,NA,NA,Agree,1,0,1,0,NA,NA,NA,NA,1,statements,The risk of dying from covid reduces with a vaccine.,1,17/06/2021 12:35,17/06/2021 12:42,IP Address,For (I feel positively about the vaccines),Once or twice a year,A few times a year,20,Female,NA,"GCSEs,A levels",control,7,3,For,For
60,1659975436178,08/08/2022 16:17:16,1659975437063,1,08/08/2022 17:17:17,94826,3,task-b5vt,NA,23527364,6895701,NA,complete,NA,62f1362730f4a6950454d0f4,computer,Desktop or Laptop,Windows 10,Chrome 104.0.0.0,1920x1080,1920x969,NA,ITT Ratings,2,for,1,NA,NA,NA,NA,NA,NA,NA,NA,NA,ACCEPT,batch1pro,batch1pro,50,58,1,Screen 1,continueButton,response_rating_scale_likert_active,3793.300000000745,NA,NA,Disagree,1,0,1,0,NA,NA,NA,NA,1,statements,To protect others by giving herd immunity.,1,17/06/2021 12:29,17/06/2021 12:42,IP Address,For (I feel positively about the vaccines),Most months,Most months,20,Male,NA,A levels,choice,8,2,For,For
61,1659975440224,08/08/2022 16:17:20,1659975441118,1,08/08/2022 17:17:21,94826,3,task-b5vt,NA,23527364,6895701,NA,complete,NA,62f1362730f4a6950454d0f4,computer,Desktop or Laptop,Windows 10,Chrome 104.0.0.0,1920x1080,1920x969,NA,ITT Ratings,2,for,1,NA,NA,NA,NA,NA,NA,NA,NA,NA,ACCEPT,batch1pro,batch1pro,9,59,1,Screen 1,continueButton,response_rating_scale_likert_active,4049.699999999255,NA,NA,Agree,1,0,1,0,NA,NA,NA,NA,1,statements,I want to reduce the risk of myself catching the virus at work,1,17/06/2021 12:34,17/06/2021 12:39,IP Address,For (I feel positively about the vaccines),Rarely,A few times a year,26,Female,NA,"Undergraduate degree (BSc, BA)",control,1,3,For,For
62,1659975442162,08/08/2022 16:17:22,1659975443057,1,08/08/2022 17:17:23,94826,3,task-b5vt,NA,23527364,6895701,NA,complete,NA,62f1362730f4a6950454d0f4,computer,Desktop or Laptop,Windows 10,Chrome 104.0.0.0,1920x1080,1920x969,NA,ITT Ratings,2,for,1,NA,NA,NA,NA,NA,NA,NA,NA,NA,ACCEPT,batch1pro,batch1pro,15,60,1,Screen 1,continueButton,response_rating_scale_likert_active,1934.39999999851,NA,NA,Strongly Agree,1,0,1,0,NA,NA,NA,NA,1,statements,"Vaccines are important, they help us all live safely and healthily",1,17/06/2021 12:34,17/06/2021 12:40,IP Address,For (I feel positively about the vaccines),Rarely,Most weeks,26,Female,NA,"Undergraduate degree (BSc, BA)",choice,2,3,For,For
63,1659975445787,08/08/2022 16:17:25,1659975446667,1,08/08/2022 17:17:26,94826,3,task-b5vt,NA,23527364,6895701,NA,complete,NA,62f1362730f4a6950454d0f4,computer,Desktop or Laptop,Windows 10,Chrome 104.0.0.0,1920x1080,1920x969,NA,ITT Ratings,2,for,1,NA,NA,NA,NA,NA,NA,NA,NA,NA,ACCEPT,batch1pro,batch1pro,6,61,1,Screen 1,continueButton,response_rating_scale_likert_active,3606.900000002235,NA,NA,Neither Agree nor Disagree,1,0,1,0,NA,NA,NA,NA,1,statements,I'm a healthy young adult and I'd rather they give my dose to someone else who is more vulnerable,1,17/06/2021 12:34,17/06/2021 12:39,IP Address,For (I feel positively about the vaccines),Rarely,A few times a year,26,Female,NA,"Undergraduate degree (BSc, BA)",control,1,3,For,Against
64,1659975448833,08/08/2022 16:17:28,1659975449725,1,08/08/2022 17:17:29,94826,3,task-b5vt,NA,23527364,6895701,NA,complete,NA,62f1362730f4a6950454d0f4,computer,Desktop or Laptop,Windows 10,Chrome 104.0.0.0,1920x1080,1920x969,NA,ITT Ratings,2,for,1,NA,NA,NA,NA,NA,NA,NA,NA,NA,ACCEPT,batch1pro,batch1pro,48,62,1,Screen 1,continueButton,response_rating_scale_likert_active,3053.599999997765,NA,NA,Disagree,1,0,1,0,NA,NA,NA,NA,1,statements,I'm young and healthy so why should I get vaccinated?,1,17/06/2021 12:29,17/06/2021 12:42,IP Address,For (I feel positively about the vaccines),Most months,Most months,20,Male,NA,A levels,choice,8,3,For,Against
65,1659975448896,08/08/2022 16:17:28,1659975449729,1,08/08/2022 17:17:29,94826,3,task-b5vt,NA,23527364,6895701,NA,complete,NA,62f1362730f4a6950454d0f4,computer,Desktop or Laptop,Windows 10,Chrome 104.0.0.0,1920x1080,1920x969,NA,ITT Ratings,2,for,1,NA,NA,NA,NA,NA,NA,NA,NA,NA,ACCEPT,batch1pro,NA,NA,END TASK,NA,NA,NA,NA,215399,NA,NA,NA,NA,0,1,0,NA,NA,NA,NA,NA,NA,NA,NA,NA,NA,NA,NA,NA,NA,NA,NA,NA,NA,NA,NA,NA,NA,NA
1,1659975378446,08/08/2022 16:16:18,1659975377745,1,08/08/2022 17:16:17,94826,3,task-b5vt,NA,23527411,6895716,NA,complete,NA,62f1369d8b68bcd8f5a19964,computer,Desktop or Laptop,Chromium OS 14816.131.0,Chrome 103.0.0.0,1366x768,1366x665,NA,ITT Ratings,2,for,1,NA,NA,NA,NA,NA,NA,NA,NA,NA,ACCEPT,batch1pro,NA,NA,BEGIN TASK,NA,NA,NA,NA,NA,NA,NA,NA,NA,0,1,0,NA,NA,NA,NA,NA,NA,NA,NA,NA,NA,NA,NA,NA,NA,NA,NA,NA,NA,NA,NA,NA,NA,NA
2,1659975421419,08/08/2022 16:17:01,1659975420769,1,08/08/2022 17:17:00,94826,3,task-b5vt,NA,23527411,6895716,NA,complete,NA,62f1369d8b68bcd8f5a19964,computer,Desktop or Laptop,Chromium OS 14816.131.0,Chrome 103.0.0.0,1366x768,1366x665,NA,ITT Ratings,2,for,1,NA,NA,NA,NA,NA,NA,NA,NA,NA,ACCEPT,batch1pro,batch1pro,1,1,1,Screen 1,advancementZone,continue_button,42934.19999998808,NA,NA,NA,NA,0,1,0,NA,NA,NA,NA,NA,instructions,NA,NA,NA,NA,NA,NA,NA,NA,NA,NA,NA,NA,NA,NA,NA,NA,NA
3,1659975434492,08/08/2022 16:17:14,1659975433854,1,08/08/2022 17:17:13,94826,3,task-b5vt,NA,23527411,6895716,NA,complete,NA,62f1369d8b68bcd8f5a19964,computer,Desktop or Laptop,Chromium OS 14816.131.0,Chrome 103.0.0.0,1366x768,1366x665,NA,ITT Ratings,2,for,1,NA,NA,NA,NA,NA,NA,NA,NA,NA,ACCEPT,batch1pro,batch1pro,9,1,1,Screen 1,continueButton,response_rating_scale_likert_active,13050.40000000596,NA,NA,Agree,1,0,1,0,NA,NA,NA,NA,1,statements,I want to reduce the risk of myself catching the virus at work,1,17/06/2021 12:34,17/06/2021 12:39,IP Address,For (I feel positively about the vaccines),Rarely,A few times a year,26,Female,NA,"Undergraduate degree (BSc, BA)",control,1,3,For,For
4,1659975464701,08/08/2022 16:17:44,1659975463989,1,08/08/2022 17:17:43,94826,3,task-b5vt,NA,23527411,6895716,NA,complete,NA,62f1369d8b68bcd8f5a19964,computer,Desktop or Laptop,Chromium OS 14816.131.0,Chrome 103.0.0.0,1366x768,1366x665,NA,ITT Ratings,2,for,1,NA,NA,NA,NA,NA,NA,NA,NA,NA,ACCEPT,batch1pro,batch1pro,26,2,1,Screen 1,continueButton,response_rating_scale_likert_active,30091.89999997616,NA,NA,Neither Agree nor Disagree,1,0,1,0,NA,NA,NA,NA,1,statements,Many people have got it and have survived,1,17/06/2021 12:33,17/06/2021 12:41,IP Address,For (I feel positively about the vaccines),Most months,Most months,20,Female,NA,"Undergraduate degree (BSc, BA),Postgraduate degree (MSc, MA, MPhil)",control,4,2,For,For
5,1659975481079,08/08/2022 16:18:01,1659975480418,1,08/08/2022 17:18:00,94826,3,task-b5vt,NA,23527411,6895716,NA,complete,NA,62f1369d8b68bcd8f5a19964,computer,Desktop or Laptop,Chromium OS 14816.131.0,Chrome 103.0.0.0,1366x768,1366x665,NA,ITT Ratings,2,for,1,NA,NA,NA,NA,NA,NA,NA,NA,NA,ACCEPT,batch1pro,batch1pro,15,3,1,Screen 1,continueButton,response_rating_scale_likert_active,16403.59999999404,NA,NA,Agree,1,0,1,0,NA,NA,NA,NA,1,statements,"Vaccines are important, they help us all live safely and healthily",1,17/06/2021 12:34,17/06/2021 12:40,IP Address,For (I feel positively about the vaccines),Rarely,Most weeks,26,Female,NA,"Undergraduate degree (BSc, BA)",choice,2,3,For,For
6,1659975489434,08/08/2022 16:18:09,1659975488778,1,08/08/2022 17:18:08,94826,3,task-b5vt,NA,23527411,6895716,NA,complete,NA,62f1369d8b68bcd8f5a19964,computer,Desktop or Laptop,Chromium OS 14816.131.0,Chrome 103.0.0.0,1366x768,1366x665,NA,ITT Ratings,2,for,1,NA,NA,NA,NA,NA,NA,NA,NA,NA,ACCEPT,batch1pro,batch1pro,7,4,1,Screen 1,continueButton,response_rating_scale_likert_active,8331.90000000596,NA,NA,Agree,1,0,1,0,NA,NA,NA,NA,1,statements,It's the right thing to do to protect everyone else,1,17/06/2021 12:34,17/06/2021 12:39,IP Address,For (I feel positively about the vaccines),Rarely,A few times a year,26,Female,NA,"Undergraduate degree (BSc, BA)",control,1,1,For,For
7,1659975503087,08/08/2022 16:18:23,1659975502444,1,08/08/2022 17:18:22,94826,3,task-b5vt,NA,23527411,6895716,NA,complete,NA,62f1369d8b68bcd8f5a19964,computer,Desktop or Laptop,Chromium OS 14816.131.0,Chrome 103.0.0.0,1366x768,1366x665,NA,ITT Ratings,2,for,1,NA,NA,NA,NA,NA,NA,NA,NA,NA,ACCEPT,batch1pro,batch1pro,31,5,1,Screen 1,continueButton,response_rating_scale_likert_active,13637.5,NA,NA,Agree,1,0,1,0,NA,NA,NA,NA,1,statements,They wish for life to return to normal and the best way to achieve this is maximum uptake,1,17/06/2021 12:31,17/06/2021 12:41,IP Address,For (I feel positively about the vaccines),Rarely,A few times a year,31,Female,NA,"Undergraduate degree (BSc, BA)",choice,5,1,For,For
8,1659975508343,08/08/2022 16:18:28,1659975507705,1,08/08/2022 17:18:27,94826,3,task-b5vt,NA,23527411,6895716,NA,complete,NA,62f1369d8b68bcd8f5a19964,computer,Desktop or Laptop,Chromium OS 14816.131.0,Chrome 103.0.0.0,1366x768,1366x665,NA,ITT Ratings,2,for,1,NA,NA,NA,NA,NA,NA,NA,NA,NA,ACCEPT,batch1pro,batch1pro,50,6,1,Screen 1,continueButton,response_rating_scale_likert_active,5235.9000000059605,NA,NA,Neither Agree nor Disagree,1,0,1,0,NA,NA,NA,NA,1,statements,To protect others by giving herd immunity.,1,17/06/2021 12:29,17/06/2021 12:42,IP Address,For (I feel positively about the vaccines),Most months,Most months,20,Male,NA,A levels,choice,8,2,For,For
9,1659975518948,08/08/2022 16:18:38,1659975518301,1,08/08/2022 17:18:38,94826,3,task-b5vt,NA,23527411,6895716,NA,complete,NA,62f1369d8b68bcd8f5a19964,computer,Desktop or Laptop,Chromium OS 14816.131.0,Chrome 103.0.0.0,1366x768,1366x665,NA,ITT Ratings,2,for,1,NA,NA,NA,NA,NA,NA,NA,NA,NA,ACCEPT,batch1pro,batch1pro,2,7,1,Screen 1,continueButton,response_rating_scale_likert_active,10572.09999999404,NA,NA,Somewhat Agree,1,0,1,0,NA,NA,NA,NA,1,statements,We would like to check you are reading each argument carefully. Please select 'Somewhat Agree' for this answer,1,NA,NA,NA,NA,NA,NA,NA,NA,NA,NA,NA,NA,check1,NA,NA
10,1659975550469,08/08/2022 16:19:10,1659975549820,1,08/08/2022 17:19:09,94826,3,task-b5vt,NA,23527411,6895716,NA,complete,NA,62f1369d8b68bcd8f5a19964,computer,Desktop or Laptop,Chromium OS 14816.131.0,Chrome 103.0.0.0,1366x768,1366x665,NA,ITT Ratings,2,for,1,NA,NA,NA,NA,NA,NA,NA,NA,NA,ACCEPT,batch1pro,batch1pro,33,8,1,Screen 1,continueButton,response_rating_scale_likert_active,31495.30000001192,NA,NA,Agree,1,0,1,0,NA,NA,NA,NA,1,statements,More vaccinations will hopefully mean less admissions and deaths and less pressure on the nhs,1,17/06/2021 12:31,17/06/2021 12:41,IP Address,For (I feel positively about the vaccines),Rarely,A few times a year,31,Female,NA,"Undergraduate degree (BSc, BA)",choice,5,3,For,For
11,1659975555945,08/08/2022 16:19:15,1659975555303,1,08/08/2022 17:19:15,94826,3,task-b5vt,NA,23527411,6895716,NA,complete,NA,62f1369d8b68bcd8f5a19964,computer,Desktop or Laptop,Chromium OS 14816.131.0,Chrome 103.0.0.0,1366x768,1366x665,NA,ITT Ratings,2,for,1,NA,NA,NA,NA,NA,NA,NA,NA,NA,ACCEPT,batch1pro,batch1pro,49,9,1,Screen 1,continueButton,response_rating_scale_likert_active,5455.5,NA,NA,Agree,1,0,1,0,NA,NA,NA,NA,1,statements,To gain immunity against COVID 19.,1,17/06/2021 12:29,17/06/2021 12:42,IP Address,For (I feel positively about the vaccines),Most months,Most months,20,Male,NA,A levels,choice,8,1,For,For
12,1659975557666,08/08/2022 16:19:17,1659975557006,1,08/08/2022 17:19:17,94826,3,task-b5vt,NA,23527411,6895716,NA,complete,NA,62f1369d8b68bcd8f5a19964,computer,Desktop or Laptop,Chromium OS 14816.131.0,Chrome 103.0.0.0,1366x768,1366x665,NA,ITT Ratings,2,for,1,NA,NA,NA,NA,NA,NA,NA,NA,NA,ACCEPT,batch1pro,batch1pro,61,10,1,Screen 1,continueButton,response_rating_scale_likert_active,1678.300000011921,NA,NA,Agree,1,0,1,0,NA,NA,NA,NA,1,statements,Reduced risk of getting COVID.,1,17/06/2021 13:01,17/06/2021 13:10,IP Address,For (I feel positively about the vaccines),Most months,Most weeks,35,Non-binary,NA,"Postgraduate degree (MSc, MA, MPhil)",control,10,1,For,For
13,1659975562199,08/08/2022 16:19:22,1659975561564,1,08/08/2022 17:19:21,94826,3,task-b5vt,NA,23527411,6895716,NA,complete,NA,62f1369d8b68bcd8f5a19964,computer,Desktop or Laptop,Chromium OS 14816.131.0,Chrome 103.0.0.0,1366x768,1366x665,NA,ITT Ratings,2,for,1,NA,NA,NA,NA,NA,NA,NA,NA,NA,ACCEPT,batch1pro,batch1pro,48,11,1,Screen 1,continueButton,response_rating_scale_likert_active,4524.4000000059605,NA,NA,Disagree,1,0,1,0,NA,NA,NA,NA,1,statements,I'm young and healthy so why should I get vaccinated?,1,17/06/2021 12:29,17/06/2021 12:42,IP Address,For (I feel positively about the vaccines),Most months,Most months,20,Male,NA,A levels,choice,8,3,For,Against
14,1659975564999,08/08/2022 16:19:24,1659975564325,1,08/08/2022 17:19:24,94826,3,task-b5vt,NA,23527411,6895716,NA,complete,NA,62f1369d8b68bcd8f5a19964,computer,Desktop or Laptop,Chromium OS 14816.131.0,Chrome 103.0.0.0,1366x768,1366x665,NA,ITT Ratings,2,for,1,NA,NA,NA,NA,NA,NA,NA,NA,NA,ACCEPT,batch1pro,batch1pro,57,12,1,Screen 1,continueButton,response_rating_scale_likert_active,2725.4000000059605,NA,NA,Agree,1,0,1,0,NA,NA,NA,NA,1,statements,Being vaccinated is reassuring,1,17/06/2021 12:36,17/06/2021 12:43,IP Address,For (I feel positively about the vaccines),Rarely,Most days,38,Male,NA,"GCSEs,Vocational Training / Apprenticeship",choice,9,3,For,For
15,1659975567566,08/08/2022 16:19:27,1659975566926,1,08/08/2022 17:19:26,94826,3,task-b5vt,NA,23527411,6895716,NA,complete,NA,62f1369d8b68bcd8f5a19964,computer,Desktop or Laptop,Chromium OS 14816.131.0,Chrome 103.0.0.0,1366x768,1366x665,NA,ITT Ratings,2,for,1,NA,NA,NA,NA,NA,NA,NA,NA,NA,ACCEPT,batch1pro,batch1pro,62,13,1,Screen 1,continueButton,response_rating_scale_likert_active,2579.7999999821186,NA,NA,Agree,1,0,1,0,NA,NA,NA,NA,1,statements,Reduced risk of passing on COVID.,1,17/06/2021 13:01,17/06/2021 13:10,IP Address,For (I feel positively about the vaccines),Most months,Most weeks,35,Non-binary,NA,"Postgraduate degree (MSc, MA, MPhil)",control,10,2,For,For
16,1659975587264,08/08/2022 16:19:47,1659975586616,1,08/08/2022 17:19:46,94826,3,task-b5vt,NA,23527411,6895716,NA,complete,NA,62f1369d8b68bcd8f5a19964,computer,Desktop or Laptop,Chromium OS 14816.131.0,Chrome 103.0.0.0,1366x768,1366x665,NA,ITT Ratings,2,for,1,NA,NA,NA,NA,NA,NA,NA,NA,NA,ACCEPT,batch1pro,batch1pro,59,14,1,Screen 1,continueButton,response_rating_scale_likert_active,19666.59999999404,NA,NA,Neither Agree nor Disagree,1,0,1,0,NA,NA,NA,NA,1,statements,Concerns about the truthfulness of the pandemic and the true motivations behind mass vaccination.,1,17/06/2021 13:01,17/06/2021 13:10,IP Address,For (I feel positively about the vaccines),Most months,Most weeks,35,Non-binary,NA,"Postgraduate degree (MSc, MA, MPhil)",control,10,2,For,Against
17,1659975594199,08/08/2022 16:19:54,1659975593551,1,08/08/2022 17:19:53,94826,3,task-b5vt,NA,23527411,6895716,NA,complete,NA,62f1369d8b68bcd8f5a19964,computer,Desktop or Laptop,Chromium OS 14816.131.0,Chrome 103.0.0.0,1366x768,1366x665,NA,ITT Ratings,2,for,1,NA,NA,NA,NA,NA,NA,NA,NA,NA,ACCEPT,batch1pro,batch1pro,32,15,1,Screen 1,continueButton,response_rating_scale_likert_active,6903.199999988079,NA,NA,Agree,1,0,1,0,NA,NA,NA,NA,1,statements,I am aware of the risks and complications of contracting xovid 19 and wish to protect myself and others,1,17/06/2021 12:31,17/06/2021 12:41,IP Address,For (I feel positively about the vaccines),Rarely,A few times a year,31,Female,NA,"Undergraduate degree (BSc, BA)",choice,5,2,For,For
18,1659975621157,08/08/2022 16:20:21,1659975620516,1,08/08/2022 17:20:20,94826,3,task-b5vt,NA,23527411,6895716,NA,complete,NA,62f1369d8b68bcd8f5a19964,computer,Desktop or Laptop,Chromium OS 14816.131.0,Chrome 103.0.0.0,1366x768,1366x665,NA,ITT Ratings,2,for,1,NA,NA,NA,NA,NA,NA,NA,NA,NA,ACCEPT,batch1pro,batch1pro,58,16,1,Screen 1,continueButton,response_rating_scale_likert_active,26943.19999998808,NA,NA,Somewhat Disagree,1,0,1,0,NA,NA,NA,NA,1,statements,"Concerns about dangerous side effects, such as blood clots and neurological damage.",1,17/06/2021 13:01,17/06/2021 13:10,IP Address,For (I feel positively about the vaccines),Most months,Most weeks,35,Non-binary,NA,"Postgraduate degree (MSc, MA, MPhil)",control,10,1,For,Against
19,1659975628628,08/08/2022 16:20:28,1659975627932,1,08/08/2022 17:20:27,94826,3,task-b5vt,NA,23527411,6895716,NA,complete,NA,62f1369d8b68bcd8f5a19964,computer,Desktop or Laptop,Chromium OS 14816.131.0,Chrome 103.0.0.0,1366x768,1366x665,NA,ITT Ratings,2,for,1,NA,NA,NA,NA,NA,NA,NA,NA,NA,ACCEPT,batch1pro,batch1pro,3,17,1,Screen 1,continueButton,response_rating_scale_likert_active,7392.90000000596,NA,NA,Somewhat Disagree,1,0,1,0,NA,NA,NA,NA,1,statements,We would like to check you are reading each argument carefully. Please select 'Somewhat Disagree' for this answer,1,NA,NA,NA,NA,NA,NA,NA,NA,NA,NA,NA,NA,check2,NA,NA
20,1659975643168,08/08/2022 16:20:43,1659975642528,1,08/08/2022 17:20:42,94826,3,task-b5vt,NA,23527411,6895716,NA,complete,NA,62f1369d8b68bcd8f5a19964,computer,Desktop or Laptop,Chromium OS 14816.131.0,Chrome 103.0.0.0,1366x768,1366x665,NA,ITT Ratings,2,for,1,NA,NA,NA,NA,NA,NA,NA,NA,NA,ACCEPT,batch1pro,batch1pro,30,18,1,Screen 1,continueButton,response_rating_scale_likert_active,14574.40000000596,NA,NA,Disagree,1,0,1,0,NA,NA,NA,NA,1,statements,The risks of side effects to su h as blood clots with vaccines are too high.,1,17/06/2021 12:31,17/06/2021 12:41,IP Address,For (I feel positively about the vaccines),Rarely,A few times a year,31,Female,NA,"Undergraduate degree (BSc, BA)",choice,5,3,For,Against
