Event.Index,UTC.Timestamp,UTC.Date,Local.Timestamp,Local.Timezone,Local.Date,Experiment.ID,Experiment.Version,Tree.Node.Key,Repeat.Key,Schedule.ID,Participant.Private.ID,Participant.Starting.Group,Participant.Status,Participant.Completion.Code,Participant.External.Session.ID,Participant.Device.Type,Participant.Device,Participant.OS,Participant.Browser,Participant.Monitor.Size,Participant.Viewport.Size,Checkpoint,Task.Name,Task.Version,branch.69an,randomiser.8vg2,quota.bqtt,quota.rycs,quota.wtfi,quota.usve,quota.zgic,quota.f3yz,quota.r9vy,quota.tfqq,quota.3dga,quota.dtj6,Spreadsheet,Spreadsheet.Name,Spreadsheet.Row,Trial.Number,Screen.Number,Screen.Name,Zone.Name,Zone.Type,Reaction.Time,Reaction.Onset,Response.Type,Response,Attempt,Correct,Incorrect,Dishonest,X.Coordinate,Y.Coordinate,Timed.Out,randomise_blocks,randomise_trials,display,Arguments,ShowProgressBar,StartDate,EndDate,Status,prolif_check,discuss_1,read_1,age,gender,gender_4_TEXT,edu,condition,ID,arg_ID,Position,Arg_Position
1,1659975749535,08/08/2022 16:22:29,1659975749480,1,08/08/2022 17:22:29,94826,3,task-mn1e,NA,23527520,6895753,NA,complete,NA,62f13825cb3422889bafe90a,computer,Desktop or Laptop,Linux x86_64,Firefox 103.0,1920x1080,1266x808,NA,ITT Ratings,2,for,4,NA,NA,ACCEPT,NA,NA,NA,NA,NA,NA,NA,batch4pro,NA,NA,BEGIN TASK,NA,NA,NA,NA,NA,NA,NA,NA,NA,0,1,0,NA,NA,NA,NA,NA,NA,NA,NA,NA,NA,NA,NA,NA,NA,NA,NA,NA,NA,NA,NA,NA,NA,NA
2,1659975754313,08/08/2022 16:22:34,1659975754278,1,08/08/2022 17:22:34,94826,3,task-mn1e,NA,23527520,6895753,NA,complete,NA,62f13825cb3422889bafe90a,computer,Desktop or Laptop,Linux x86_64,Firefox 103.0,1920x1080,1266x808,NA,ITT Ratings,2,for,4,NA,NA,ACCEPT,NA,NA,NA,NA,NA,NA,NA,batch4pro,batch4pro,1,1,1,Screen 1,advancementZone,continue_button,4773,NA,NA,NA,NA,0,1,0,NA,NA,NA,NA,NA,instructions,NA,NA,NA,NA,NA,NA,NA,NA,NA,NA,NA,NA,NA,NA,NA,NA,NA
3,1659975764284,08/08/2022 16:22:44,1659975764264,1,08/08/2022 17:22:44,94826,3,task-mn1e,NA,23527520,6895753,NA,complete,NA,62f13825cb3422889bafe90a,computer,Desktop or Laptop,Linux x86_64,Firefox 103.0,1920x1080,1266x808,NA,ITT Ratings,2,for,4,NA,NA,ACCEPT,NA,NA,NA,NA,NA,NA,NA,batch4pro,batch4pro,12,1,1,Screen 1,continueButton,response_rating_scale_likert_active,9967,NA,NA,Disagree,1,0,1,0,NA,NA,NA,NA,1,statements,I might get covid anyway so what's the point,1,17/06/2021 12:43,17/06/2021 12:52,IP Address,For (I feel positively about the vaccines),Rarely,Most weeks,25,Female,NA,"Postgraduate degree (MSc, MA, MPhil)",choice,32,3,For,Against
4,1659975773655,08/08/2022 16:22:53,1659975773628,1,08/08/2022 17:22:53,94826,3,task-mn1e,NA,23527520,6895753,NA,complete,NA,62f13825cb3422889bafe90a,computer,Desktop or Laptop,Linux x86_64,Firefox 103.0,1920x1080,1266x808,NA,ITT Ratings,2,for,4,NA,NA,ACCEPT,NA,NA,NA,NA,NA,NA,NA,batch4pro,batch4pro,55,2,1,Screen 1,continueButton,response_rating_scale_likert_active,9351,NA,NA,Somewhat Agree,1,0,1,0,NA,NA,NA,NA,1,statements,We need to get back to normal life,1,17/06/2021 12:47,17/06/2021 12:54,IP Address,For (I feel positively about the vaccines),Rarely,A few times a year,31,Female,NA,"Postgraduate degree (MSc, MA, MPhil)",choice,39,1,For,For
5,1659975776555,08/08/2022 16:22:56,1659975776544,1,08/08/2022 17:22:56,94826,3,task-mn1e,NA,23527520,6895753,NA,complete,NA,62f13825cb3422889bafe90a,computer,Desktop or Laptop,Linux x86_64,Firefox 103.0,1920x1080,1266x808,NA,ITT Ratings,2,for,4,NA,NA,ACCEPT,NA,NA,NA,NA,NA,NA,NA,batch4pro,batch4pro,48,3,1,Screen 1,continueButton,response_rating_scale_likert_active,2904,NA,NA,Somewhat Agree,1,0,1,0,NA,NA,NA,NA,1,statements,You will most likely need it to travel,1,17/06/2021 12:49,17/06/2021 12:54,IP Address,For (I feel positively about the vaccines),Rarely,Once or twice a year,20,Female,NA,Vocational Training / Apprenticeship,control,38,3,For,Against
6,1659975798832,08/08/2022 16:23:18,1659975798788,1,08/08/2022 17:23:18,94826,3,task-mn1e,NA,23527520,6895753,NA,complete,NA,62f13825cb3422889bafe90a,computer,Desktop or Laptop,Linux x86_64,Firefox 103.0,1920x1080,1266x808,NA,ITT Ratings,2,for,4,NA,NA,ACCEPT,NA,NA,NA,NA,NA,NA,NA,batch4pro,batch4pro,36,4,1,Screen 1,continueButton,response_rating_scale_likert_active,22232,NA,NA,Strongly Disagree,1,0,1,0,NA,NA,NA,NA,1,statements,They think Covid-19 is a media hoax,1,17/06/2021 12:46,17/06/2021 12:53,IP Address,For (I feel positively about the vaccines),Rarely,Most weeks,22,Non-binary,NA,"Undergraduate degree (BSc, BA)",control,36,3,For,Against
7,1659975801937,08/08/2022 16:23:21,1659975801912,1,08/08/2022 17:23:21,94826,3,task-mn1e,NA,23527520,6895753,NA,complete,NA,62f13825cb3422889bafe90a,computer,Desktop or Laptop,Linux x86_64,Firefox 103.0,1920x1080,1266x808,NA,ITT Ratings,2,for,4,NA,NA,ACCEPT,NA,NA,NA,NA,NA,NA,NA,batch4pro,batch4pro,34,5,1,Screen 1,continueButton,response_rating_scale_likert_active,3104,NA,NA,Strongly Disagree,1,0,1,0,NA,NA,NA,NA,1,statements,The government is denying our right to say no,1,17/06/2021 12:46,17/06/2021 12:53,IP Address,For (I feel positively about the vaccines),Rarely,Most weeks,22,Non-binary,NA,"Undergraduate degree (BSc, BA)",control,36,1,For,Against
8,1659975809328,08/08/2022 16:23:29,1659975809297,1,08/08/2022 17:23:29,94826,3,task-mn1e,NA,23527520,6895753,NA,complete,NA,62f13825cb3422889bafe90a,computer,Desktop or Laptop,Linux x86_64,Firefox 103.0,1920x1080,1266x808,NA,ITT Ratings,2,for,4,NA,NA,ACCEPT,NA,NA,NA,NA,NA,NA,NA,batch4pro,batch4pro,19,6,1,Screen 1,continueButton,response_rating_scale_likert_active,7373,NA,NA,Agree,1,0,1,0,NA,NA,NA,NA,1,statements,To be safe and healthy,1,17/06/2021 12:41,17/06/2021 12:53,IP Address,For (I feel positively about the vaccines),Rarely,Rarely,45,Female,NA,"Undergraduate degree (BSc, BA)",choice,33,1,For,For
9,1659975813902,08/08/2022 16:23:33,1659975813886,1,08/08/2022 17:23:33,94826,3,task-mn1e,NA,23527520,6895753,NA,complete,NA,62f13825cb3422889bafe90a,computer,Desktop or Laptop,Linux x86_64,Firefox 103.0,1920x1080,1266x808,NA,ITT Ratings,2,for,4,NA,NA,ACCEPT,NA,NA,NA,NA,NA,NA,NA,batch4pro,batch4pro,8,7,1,Screen 1,continueButton,response_rating_scale_likert_active,4578,NA,NA,Strongly Agree,1,0,1,0,NA,NA,NA,NA,1,statements,It helps me to protect myself and others from becoming seriously ill.,1,17/06/2021 12:43,17/06/2021 12:52,IP Address,For (I feel positively about the vaccines),Rarely,Rarely,34,Male,NA,Doctorate (PhD),control,31,2,For,For
10,1659975817957,08/08/2022 16:23:37,1659975817939,1,08/08/2022 17:23:37,94826,3,task-mn1e,NA,23527520,6895753,NA,complete,NA,62f13825cb3422889bafe90a,computer,Desktop or Laptop,Linux x86_64,Firefox 103.0,1920x1080,1266x808,NA,ITT Ratings,2,for,4,NA,NA,ACCEPT,NA,NA,NA,NA,NA,NA,NA,batch4pro,batch4pro,39,8,1,Screen 1,continueButton,response_rating_scale_likert_active,4041,NA,NA,Agree,1,0,1,0,NA,NA,NA,NA,1,statements,I don't want to risk being affected by the symptoms of 'long covid' for the rest of my life,1,17/06/2021 12:46,17/06/2021 12:53,IP Address,For (I feel positively about the vaccines),Rarely,Most weeks,22,Non-binary,NA,"Undergraduate degree (BSc, BA)",control,36,3,For,For
11,1659975821233,08/08/2022 16:23:41,1659975821217,1,08/08/2022 17:23:41,94826,3,task-mn1e,NA,23527520,6895753,NA,complete,NA,62f13825cb3422889bafe90a,computer,Desktop or Laptop,Linux x86_64,Firefox 103.0,1920x1080,1266x808,NA,ITT Ratings,2,for,4,NA,NA,ACCEPT,NA,NA,NA,NA,NA,NA,NA,batch4pro,batch4pro,30,9,1,Screen 1,continueButton,response_rating_scale_likert_active,3267,NA,NA,Disagree,1,0,1,0,NA,NA,NA,NA,1,statements,I don't need a vaccine - I'm young and healthy.,1,17/06/2021 12:45,17/06/2021 12:53,IP Address,For (I feel positively about the vaccines),Rarely,Once or twice a year,30,Female,NA,"Undergraduate degree (BSc, BA)",choice,35,3,For,Against
12,1659975823766,08/08/2022 16:23:43,1659975823748,1,08/08/2022 17:23:43,94826,3,task-mn1e,NA,23527520,6895753,NA,complete,NA,62f13825cb3422889bafe90a,computer,Desktop or Laptop,Linux x86_64,Firefox 103.0,1920x1080,1266x808,NA,ITT Ratings,2,for,4,NA,NA,ACCEPT,NA,NA,NA,NA,NA,NA,NA,batch4pro,batch4pro,38,10,1,Screen 1,continueButton,response_rating_scale_likert_active,2524,NA,NA,Strongly Agree,1,0,1,0,NA,NA,NA,NA,1,statements,I want to protect elderly relatives and friends,1,17/06/2021 12:46,17/06/2021 12:53,IP Address,For (I feel positively about the vaccines),Rarely,Most weeks,22,Non-binary,NA,"Undergraduate degree (BSc, BA)",control,36,2,For,For
13,1659975828378,08/08/2022 16:23:48,1659975828366,1,08/08/2022 17:23:48,94826,3,task-mn1e,NA,23527520,6895753,NA,complete,NA,62f13825cb3422889bafe90a,computer,Desktop or Laptop,Linux x86_64,Firefox 103.0,1920x1080,1266x808,NA,ITT Ratings,2,for,4,NA,NA,ACCEPT,NA,NA,NA,NA,NA,NA,NA,batch4pro,batch4pro,9,11,1,Screen 1,continueButton,response_rating_scale_likert_active,4605,NA,NA,Strongly Agree,1,0,1,0,NA,NA,NA,NA,1,statements,Aren't we lucky/fortunate how quickly this has been developed and we are in a position where we can get a vaccine.,1,17/06/2021 12:43,17/06/2021 12:52,IP Address,For (I feel positively about the vaccines),Rarely,Rarely,34,Male,NA,Doctorate (PhD),control,31,3,For,For
14,1659975831408,08/08/2022 16:23:51,1659975831388,1,08/08/2022 17:23:51,94826,3,task-mn1e,NA,23527520,6895753,NA,complete,NA,62f13825cb3422889bafe90a,computer,Desktop or Laptop,Linux x86_64,Firefox 103.0,1920x1080,1266x808,NA,ITT Ratings,2,for,4,NA,NA,ACCEPT,NA,NA,NA,NA,NA,NA,NA,batch4pro,batch4pro,2,12,1,Screen 1,continueButton,response_rating_scale_likert_active,3013,NA,NA,Somewhat Agree,1,0,1,0,NA,NA,NA,NA,1,statements,We would like to check you are reading each argument carefully. Please select 'Somewhat Agree' for this answer,1,NA,NA,NA,NA,NA,NA,NA,NA,NA,NA,NA,NA,check1,NA,NA
15,1659975833144,08/08/2022 16:23:53,1659975833127,1,08/08/2022 17:23:53,94826,3,task-mn1e,NA,23527520,6895753,NA,complete,NA,62f13825cb3422889bafe90a,computer,Desktop or Laptop,Linux x86_64,Firefox 103.0,1920x1080,1266x808,NA,ITT Ratings,2,for,4,NA,NA,ACCEPT,NA,NA,NA,NA,NA,NA,NA,batch4pro,batch4pro,22,13,1,Screen 1,continueButton,response_rating_scale_likert_active,1730,NA,NA,Agree,1,0,1,0,NA,NA,NA,NA,1,statements,Protection for yourself,1,17/06/2021 12:45,17/06/2021 12:53,IP Address,For (I feel positively about the vaccines),Rarely,Rarely,38,Male,NA,"Undergraduate degree (BSc, BA)",choice,34,1,For,Against
16,1659975835592,08/08/2022 16:23:55,1659975835566,1,08/08/2022 17:23:55,94826,3,task-mn1e,NA,23527520,6895753,NA,complete,NA,62f13825cb3422889bafe90a,computer,Desktop or Laptop,Linux x86_64,Firefox 103.0,1920x1080,1266x808,NA,ITT Ratings,2,for,4,NA,NA,ACCEPT,NA,NA,NA,NA,NA,NA,NA,batch4pro,batch4pro,44,14,1,Screen 1,continueButton,response_rating_scale_likert_active,2431,NA,NA,Agree,1,0,1,0,NA,NA,NA,NA,1,statements,To stop me becoming unwell with it,1,17/06/2021 12:45,17/06/2021 12:54,IP Address,For (I feel positively about the vaccines),Rarely,Rarely,30,Female,NA,"Undergraduate degree (BSc, BA)",choice,37,2,For,For
17,1659975837999,08/08/2022 16:23:57,1659975837983,1,08/08/2022 17:23:57,94826,3,task-mn1e,NA,23527520,6895753,NA,complete,NA,62f13825cb3422889bafe90a,computer,Desktop or Laptop,Linux x86_64,Firefox 103.0,1920x1080,1266x808,NA,ITT Ratings,2,for,4,NA,NA,ACCEPT,NA,NA,NA,NA,NA,NA,NA,batch4pro,batch4pro,11,15,1,Screen 1,continueButton,response_rating_scale_likert_active,2409,NA,NA,Strongly Disagree,1,0,1,0,NA,NA,NA,NA,1,statements,The vaccine puts a chip in you so you can be tracked,1,17/06/2021 12:43,17/06/2021 12:52,IP Address,For (I feel positively about the vaccines),Rarely,Most weeks,25,Female,NA,"Postgraduate degree (MSc, MA, MPhil)",choice,32,2,For,Against
18,1659975841079,08/08/2022 16:24:01,1659975841056,1,08/08/2022 17:24:01,94826,3,task-mn1e,NA,23527520,6895753,NA,complete,NA,62f13825cb3422889bafe90a,computer,Desktop or Laptop,Linux x86_64,Firefox 103.0,1920x1080,1266x808,NA,ITT Ratings,2,for,4,NA,NA,ACCEPT,NA,NA,NA,NA,NA,NA,NA,batch4pro,batch4pro,43,16,1,Screen 1,continueButton,response_rating_scale_likert_active,3064,NA,NA,Strongly Agree,1,0,1,0,NA,NA,NA,NA,1,statements,To protect my family and friends,1,17/06/2021 12:45,17/06/2021 12:54,IP Address,For (I feel positively about the vaccines),Rarely,Rarely,30,Female,NA,"Undergraduate degree (BSc, BA)",choice,37,1,For,For
19,1659975842493,08/08/2022 16:24:02,1659975842469,1,08/08/2022 17:24:02,94826,3,task-mn1e,NA,23527520,6895753,NA,complete,NA,62f13825cb3422889bafe90a,computer,Desktop or Laptop,Linux x86_64,Firefox 103.0,1920x1080,1266x808,NA,ITT Ratings,2,for,4,NA,NA,ACCEPT,NA,NA,NA,NA,NA,NA,NA,batch4pro,batch4pro,62,17,1,Screen 1,continueButton,response_rating_scale_likert_active,1404,NA,NA,Strongly Agree,1,0,1,0,NA,NA,NA,NA,1,statements,"I wish to protect other people including family, friends and colleagues",1,17/06/2021 12:46,17/06/2021 12:54,IP Address,For (I feel positively about the vaccines),Once or twice a year,Once or twice a year,38,Female,NA,"Undergraduate degree (BSc, BA)",control,40,2,For,For
20,1659975845721,08/08/2022 16:24:05,1659975845711,1,08/08/2022 17:24:05,94826,3,task-mn1e,NA,23527520,6895753,NA,complete,NA,62f13825cb3422889bafe90a,computer,Desktop or Laptop,Linux x86_64,Firefox 103.0,1920x1080,1266x808,NA,ITT Ratings,2,for,4,NA,NA,ACCEPT,NA,NA,NA,NA,NA,NA,NA,batch4pro,batch4pro,59,18,1,Screen 1,continueButton,response_rating_scale_likert_active,3233,NA,NA,Disagree,1,0,1,0,NA,NA,NA,NA,1,statements,We do not know what harm they can cause in the future,1,17/06/2021 12:46,17/06/2021 12:54,IP Address,For (I feel positively about the vaccines),Once or twice a year,Once or twice a year,38,Female,NA,"Undergraduate degree (BSc, BA)",control,40,2,For,Against
21,1659975851392,08/08/2022 16:24:11,1659975851381,1,08/08/2022 17:24:11,94826,3,task-mn1e,NA,23527520,6895753,NA,complete,NA,62f13825cb3422889bafe90a,computer,Desktop or Laptop,Linux x86_64,Firefox 103.0,1920x1080,1266x808,NA,ITT Ratings,2,for,4,NA,NA,ACCEPT,NA,NA,NA,NA,NA,NA,NA,batch4pro,batch4pro,25,19,1,Screen 1,continueButton,response_rating_scale_likert_active,5661,NA,NA,Strongly Agree,1,0,1,0,NA,NA,NA,NA,1,statements,Protecting Health of yourself and protecting people around you by breaking the infection trend therefore avoiding illness and hospital stays.,1,17/06/2021 12:45,17/06/2021 12:53,IP Address,For (I feel positively about the vaccines),Rarely,Rarely,38,Male,NA,"Undergraduate degree (BSc, BA)",choice,34,1,For,For
22,1659975857352,08/08/2022 16:24:17,1659975857342,1,08/08/2022 17:24:17,94826,3,task-mn1e,NA,23527520,6895753,NA,complete,NA,62f13825cb3422889bafe90a,computer,Desktop or Laptop,Linux x86_64,Firefox 103.0,1920x1080,1266x808,NA,ITT Ratings,2,for,4,NA,NA,ACCEPT,NA,NA,NA,NA,NA,NA,NA,batch4pro,batch4pro,54,20,1,Screen 1,continueButton,response_rating_scale_likert_active,5953,NA,NA,Strongly Disagree,1,0,1,0,NA,NA,NA,NA,1,statements,It's a conspiracy - Covid is man made and the government want us all to have vaccine,1,17/06/2021 12:47,17/06/2021 12:54,IP Address,For (I feel positively about the vaccines),Rarely,A few times a year,31,Female,NA,"Postgraduate degree (MSc, MA, MPhil)",choice,39,3,For,Against
23,1659975860843,08/08/2022 16:24:20,1659975860833,1,08/08/2022 17:24:20,94826,3,task-mn1e,NA,23527520,6895753,NA,complete,NA,62f13825cb3422889bafe90a,computer,Desktop or Laptop,Linux x86_64,Firefox 103.0,1920x1080,1266x808,NA,ITT Ratings,2,for,4,NA,NA,ACCEPT,NA,NA,NA,NA,NA,NA,NA,batch4pro,batch4pro,37,21,1,Screen 1,continueButton,response_rating_scale_likert_active,3484,NA,NA,Agree,1,0,1,0,NA,NA,NA,NA,1,statements,Idon't want to die from Covid-19,1,17/06/2021 12:46,17/06/2021 12:53,IP Address,For (I feel positively about the vaccines),Rarely,Most weeks,22,Non-binary,NA,"Undergraduate degree (BSc, BA)",control,36,1,For,For
24,1659975864806,08/08/2022 16:24:24,1659975864746,1,08/08/2022 17:24:24,94826,3,task-mn1e,NA,23527520,6895753,NA,complete,NA,62f13825cb3422889bafe90a,computer,Desktop or Laptop,Linux x86_64,Firefox 103.0,1920x1080,1266x808,NA,ITT Ratings,2,for,4,NA,NA,ACCEPT,NA,NA,NA,NA,NA,NA,NA,batch4pro,batch4pro,29,22,1,Screen 1,continueButton,response_rating_scale_likert_active,3892,NA,NA,Disagree,1,0,1,0,NA,NA,NA,NA,1,statements,We don't know the long term effects,1,17/06/2021 12:45,17/06/2021 12:53,IP Address,For (I feel positively about the vaccines),Rarely,Once or twice a year,30,Female,NA,"Undergraduate degree (BSc, BA)",choice,35,2,For,Against
25,1659975882596,08/08/2022 16:24:42,1659975882547,1,08/08/2022 17:24:42,94826,3,task-mn1e,NA,23527520,6895753,NA,complete,NA,62f13825cb3422889bafe90a,computer,Desktop or Laptop,Linux x86_64,Firefox 103.0,1920x1080,1266x808,NA,ITT Ratings,2,for,4,NA,NA,ACCEPT,NA,NA,NA,NA,NA,NA,NA,batch4pro,batch4pro,14,23,1,Screen 1,continueButton,response_rating_scale_likert_active,17789,NA,NA,Neither Agree nor Disagree,1,0,1,0,NA,NA,NA,NA,1,statements,Vaccine companies are not making a profit so why not get it,1,17/06/2021 12:43,17/06/2021 12:52,IP Address,For (I feel positively about the vaccines),Rarely,Most weeks,25,Female,NA,"Postgraduate degree (MSc, MA, MPhil)",choice,32,2,For,For
26,1659975886775,08/08/2022 16:24:46,1659975886751,1,08/08/2022 17:24:46,94826,3,task-mn1e,NA,23527520,6895753,NA,complete,NA,62f13825cb3422889bafe90a,computer,Desktop or Laptop,Linux x86_64,Firefox 103.0,1920x1080,1266x808,NA,ITT Ratings,2,for,4,NA,NA,ACCEPT,NA,NA,NA,NA,NA,NA,NA,batch4pro,batch4pro,33,24,1,Screen 1,continueButton,response_rating_scale_likert_active,4194,NA,NA,Agree,1,0,1,0,NA,NA,NA,NA,1,statements,I trust those who have made the vaccine,1,17/06/2021 12:45,17/06/2021 12:53,IP Address,For (I feel positively about the vaccines),Rarely,Once or twice a year,30,Female,NA,"Undergraduate degree (BSc, BA)",choice,35,3,For,For
27,1659975890485,08/08/2022 16:24:50,1659975890471,1,08/08/2022 17:24:50,94826,3,task-mn1e,NA,23527520,6895753,NA,complete,NA,62f13825cb3422889bafe90a,computer,Desktop or Laptop,Linux x86_64,Firefox 103.0,1920x1080,1266x808,NA,ITT Ratings,2,for,4,NA,NA,ACCEPT,NA,NA,NA,NA,NA,NA,NA,batch4pro,batch4pro,7,25,1,Screen 1,continueButton,response_rating_scale_likert_active,3711,NA,NA,Somewhat Agree,1,0,1,0,NA,NA,NA,NA,1,statements,It can help us return to 'normal' sooner than if I didn't do it.,1,17/06/2021 12:43,17/06/2021 12:52,IP Address,For (I feel positively about the vaccines),Rarely,Rarely,34,Male,NA,Doctorate (PhD),control,31,1,For,For
28,1659975891856,08/08/2022 16:24:51,1659975891846,1,08/08/2022 17:24:51,94826,3,task-mn1e,NA,23527520,6895753,NA,complete,NA,62f13825cb3422889bafe90a,computer,Desktop or Laptop,Linux x86_64,Firefox 103.0,1920x1080,1266x808,NA,ITT Ratings,2,for,4,NA,NA,ACCEPT,NA,NA,NA,NA,NA,NA,NA,batch4pro,batch4pro,20,26,1,Screen 1,continueButton,response_rating_scale_likert_active,1366,NA,NA,Somewhat Agree,1,0,1,0,NA,NA,NA,NA,1,statements,To get back to a sense of normality.,1,17/06/2021 12:41,17/06/2021 12:53,IP Address,For (I feel positively about the vaccines),Rarely,Rarely,45,Female,NA,"Undergraduate degree (BSc, BA)",choice,33,2,For,For
29,1659975896305,08/08/2022 16:24:56,1659975896296,1,08/08/2022 17:24:56,94826,3,task-mn1e,NA,23527520,6895753,NA,complete,NA,62f13825cb3422889bafe90a,computer,Desktop or Laptop,Linux x86_64,Firefox 103.0,1920x1080,1266x808,NA,ITT Ratings,2,for,4,NA,NA,ACCEPT,NA,NA,NA,NA,NA,NA,NA,batch4pro,batch4pro,6,27,1,Screen 1,continueButton,response_rating_scale_likert_active,4440,NA,NA,Disagree,1,0,1,0,NA,NA,NA,NA,1,statements,I don't like needles/felt unwell for a brief period after a previous vaccine,1,17/06/2021 12:43,17/06/2021 12:52,IP Address,For (I feel positively about the vaccines),Rarely,Rarely,34,Male,NA,Doctorate (PhD),control,31,3,For,Against
30,1659975898058,08/08/2022 16:24:58,1659975898033,1,08/08/2022 17:24:58,94826,3,task-mn1e,NA,23527520,6895753,NA,complete,NA,62f13825cb3422889bafe90a,computer,Desktop or Laptop,Linux x86_64,Firefox 103.0,1920x1080,1266x808,NA,ITT Ratings,2,for,4,NA,NA,ACCEPT,NA,NA,NA,NA,NA,NA,NA,batch4pro,batch4pro,56,28,1,Screen 1,continueButton,response_rating_scale_likert_active,1728,NA,NA,Strongly Agree,1,0,1,0,NA,NA,NA,NA,1,statements,"I want to protect myself, my friends and my family",1,17/06/2021 12:47,17/06/2021 12:54,IP Address,For (I feel positively about the vaccines),Rarely,A few times a year,31,Female,NA,"Postgraduate degree (MSc, MA, MPhil)",choice,39,2,For,For
31,1659975902912,08/08/2022 16:25:02,1659975902884,1,08/08/2022 17:25:02,94826,3,task-mn1e,NA,23527520,6895753,NA,complete,NA,62f13825cb3422889bafe90a,computer,Desktop or Laptop,Linux x86_64,Firefox 103.0,1920x1080,1266x808,NA,ITT Ratings,2,for,4,NA,NA,ACCEPT,NA,NA,NA,NA,NA,NA,NA,batch4pro,batch4pro,45,29,1,Screen 1,continueButton,response_rating_scale_likert_active,4839,NA,NA,Agree,1,0,1,0,NA,NA,NA,NA,1,statements,So they don't die from it,1,17/06/2021 12:45,17/06/2021 12:54,IP Address,For (I feel positively about the vaccines),Rarely,Rarely,30,Female,NA,"Undergraduate degree (BSc, BA)",choice,37,3,For,For
32,1659975904807,08/08/2022 16:25:04,1659975904789,1,08/08/2022 17:25:04,94826,3,task-mn1e,NA,23527520,6895753,NA,complete,NA,62f13825cb3422889bafe90a,computer,Desktop or Laptop,Linux x86_64,Firefox 103.0,1920x1080,1266x808,NA,ITT Ratings,2,for,4,NA,NA,ACCEPT,NA,NA,NA,NA,NA,NA,NA,batch4pro,batch4pro,47,30,1,Screen 1,continueButton,response_rating_scale_likert_active,1897,NA,NA,Agree,1,0,1,0,NA,NA,NA,NA,1,statements,Will make the world go back to some sort of normal,1,17/06/2021 12:49,17/06/2021 12:54,IP Address,For (I feel positively about the vaccines),Rarely,Once or twice a year,20,Female,NA,Vocational Training / Apprenticeship,control,38,2,For,Against
33,1659975908590,08/08/2022 16:25:08,1659975908565,1,08/08/2022 17:25:08,94826,3,task-mn1e,NA,23527520,6895753,NA,complete,NA,62f13825cb3422889bafe90a,computer,Desktop or Laptop,Linux x86_64,Firefox 103.0,1920x1080,1266x808,NA,ITT Ratings,2,for,4,NA,NA,ACCEPT,NA,NA,NA,NA,NA,NA,NA,batch4pro,batch4pro,18,31,1,Screen 1,continueButton,response_rating_scale_likert_active,3766,NA,NA,Strongly Disagree,1,0,1,0,NA,NA,NA,NA,1,statements,I have a bee allergy,1,17/06/2021 12:41,17/06/2021 12:53,IP Address,For (I feel positively about the vaccines),Rarely,Rarely,45,Female,NA,"Undergraduate degree (BSc, BA)",choice,33,3,For,Against
34,1659975911299,08/08/2022 16:25:11,1659975911280,1,08/08/2022 17:25:11,94826,3,task-mn1e,NA,23527520,6895753,NA,complete,NA,62f13825cb3422889bafe90a,computer,Desktop or Laptop,Linux x86_64,Firefox 103.0,1920x1080,1266x808,NA,ITT Ratings,2,for,4,NA,NA,ACCEPT,NA,NA,NA,NA,NA,NA,NA,batch4pro,batch4pro,28,32,1,Screen 1,continueButton,response_rating_scale_likert_active,2706,NA,NA,Disagree,1,0,1,0,NA,NA,NA,NA,1,statements,We haven't had long enough to test the vaccines,1,17/06/2021 12:45,17/06/2021 12:53,IP Address,For (I feel positively about the vaccines),Rarely,Once or twice a year,30,Female,NA,"Undergraduate degree (BSc, BA)",choice,35,1,For,Against
35,1659975912861,08/08/2022 16:25:12,1659975912847,1,08/08/2022 17:25:12,94826,3,task-mn1e,NA,23527520,6895753,NA,complete,NA,62f13825cb3422889bafe90a,computer,Desktop or Laptop,Linux x86_64,Firefox 103.0,1920x1080,1266x808,NA,ITT Ratings,2,for,4,NA,NA,ACCEPT,NA,NA,NA,NA,NA,NA,NA,batch4pro,batch4pro,23,33,1,Screen 1,continueButton,response_rating_scale_likert_active,1559,NA,NA,Strongly Agree,1,0,1,0,NA,NA,NA,NA,1,statements,Protection for others,1,17/06/2021 12:45,17/06/2021 12:53,IP Address,For (I feel positively about the vaccines),Rarely,Rarely,38,Male,NA,"Undergraduate degree (BSc, BA)",choice,34,2,For,Against
36,1659975914141,08/08/2022 16:25:14,1659975914128,1,08/08/2022 17:25:14,94826,3,task-mn1e,NA,23527520,6895753,NA,complete,NA,62f13825cb3422889bafe90a,computer,Desktop or Laptop,Linux x86_64,Firefox 103.0,1920x1080,1266x808,NA,ITT Ratings,2,for,4,NA,NA,ACCEPT,NA,NA,NA,NA,NA,NA,NA,batch4pro,batch4pro,26,34,1,Screen 1,continueButton,response_rating_scale_likert_active,1273,NA,NA,Agree,1,0,1,0,NA,NA,NA,NA,1,statements,Avoiding severe illness,1,17/06/2021 12:45,17/06/2021 12:53,IP Address,For (I feel positively about the vaccines),Rarely,Rarely,38,Male,NA,"Undergraduate degree (BSc, BA)",choice,34,2,For,For
37,1659975917370,08/08/2022 16:25:17,1659975917352,1,08/08/2022 17:25:17,94826,3,task-mn1e,NA,23527520,6895753,NA,complete,NA,62f13825cb3422889bafe90a,computer,Desktop or Laptop,Linux x86_64,Firefox 103.0,1920x1080,1266x808,NA,ITT Ratings,2,for,4,NA,NA,ACCEPT,NA,NA,NA,NA,NA,NA,NA,batch4pro,batch4pro,42,35,1,Screen 1,continueButton,response_rating_scale_likert_active,3217,NA,NA,Disagree,1,0,1,0,NA,NA,NA,NA,1,statements,Scared of needles and injections,1,17/06/2021 12:45,17/06/2021 12:54,IP Address,For (I feel positively about the vaccines),Rarely,Rarely,30,Female,NA,"Undergraduate degree (BSc, BA)",choice,37,3,For,Against
38,1659975920125,08/08/2022 16:25:20,1659975920106,1,08/08/2022 17:25:20,94826,3,task-mn1e,NA,23527520,6895753,NA,complete,NA,62f13825cb3422889bafe90a,computer,Desktop or Laptop,Linux x86_64,Firefox 103.0,1920x1080,1266x808,NA,ITT Ratings,2,for,4,NA,NA,ACCEPT,NA,NA,NA,NA,NA,NA,NA,batch4pro,batch4pro,31,36,1,Screen 1,continueButton,response_rating_scale_likert_active,2746,NA,NA,Agree,1,0,1,0,NA,NA,NA,NA,1,statements,I want to be well protected,1,17/06/2021 12:45,17/06/2021 12:53,IP Address,For (I feel positively about the vaccines),Rarely,Once or twice a year,30,Female,NA,"Undergraduate degree (BSc, BA)",choice,35,1,For,For
39,1659975925928,08/08/2022 16:25:25,1659975925881,1,08/08/2022 17:25:25,94826,3,task-mn1e,NA,23527520,6895753,NA,complete,NA,62f13825cb3422889bafe90a,computer,Desktop or Laptop,Linux x86_64,Firefox 103.0,1920x1080,1266x808,NA,ITT Ratings,2,for,4,NA,NA,ACCEPT,NA,NA,NA,NA,NA,NA,NA,batch4pro,batch4pro,58,37,1,Screen 1,continueButton,response_rating_scale_likert_active,5766,NA,NA,Disagree,1,0,1,0,NA,NA,NA,NA,1,statements,Scientists have developed it too quickly,1,17/06/2021 12:46,17/06/2021 12:54,IP Address,For (I feel positively about the vaccines),Once or twice a year,Once or twice a year,38,Female,NA,"Undergraduate degree (BSc, BA)",control,40,1,For,Against
40,1659975928062,08/08/2022 16:25:28,1659975928045,1,08/08/2022 17:25:28,94826,3,task-mn1e,NA,23527520,6895753,NA,complete,NA,62f13825cb3422889bafe90a,computer,Desktop or Laptop,Linux x86_64,Firefox 103.0,1920x1080,1266x808,NA,ITT Ratings,2,for,4,NA,NA,ACCEPT,NA,NA,NA,NA,NA,NA,NA,batch4pro,batch4pro,52,38,1,Screen 1,continueButton,response_rating_scale_likert_active,2144,NA,NA,Disagree,1,0,1,0,NA,NA,NA,NA,1,statements,It's unsafe - not had enough time to develop safely,1,17/06/2021 12:47,17/06/2021 12:54,IP Address,For (I feel positively about the vaccines),Rarely,A few times a year,31,Female,NA,"Postgraduate degree (MSc, MA, MPhil)",choice,39,1,For,Against
41,1659975931205,08/08/2022 16:25:31,1659975931192,1,08/08/2022 17:25:31,94826,3,task-mn1e,NA,23527520,6895753,NA,complete,NA,62f13825cb3422889bafe90a,computer,Desktop or Laptop,Linux x86_64,Firefox 103.0,1920x1080,1266x808,NA,ITT Ratings,2,for,4,NA,NA,ACCEPT,NA,NA,NA,NA,NA,NA,NA,batch4pro,batch4pro,61,39,1,Screen 1,continueButton,response_rating_scale_likert_active,3133,NA,NA,Somewhat Agree,1,0,1,0,NA,NA,NA,NA,1,statements,I am vulnerable to covid 19,1,17/06/2021 12:46,17/06/2021 12:54,IP Address,For (I feel positively about the vaccines),Once or twice a year,Once or twice a year,38,Female,NA,"Undergraduate degree (BSc, BA)",control,40,1,For,For
42,1659975933539,08/08/2022 16:25:33,1659975933529,1,08/08/2022 17:25:33,94826,3,task-mn1e,NA,23527520,6895753,NA,complete,NA,62f13825cb3422889bafe90a,computer,Desktop or Laptop,Linux x86_64,Firefox 103.0,1920x1080,1266x808,NA,ITT Ratings,2,for,4,NA,NA,ACCEPT,NA,NA,NA,NA,NA,NA,NA,batch4pro,batch4pro,35,40,1,Screen 1,continueButton,response_rating_scale_likert_active,2325,NA,NA,Disagree,1,0,1,0,NA,NA,NA,NA,1,statements,Fear of needles/injections,1,17/06/2021 12:46,17/06/2021 12:53,IP Address,For (I feel positively about the vaccines),Rarely,Most weeks,22,Non-binary,NA,"Undergraduate degree (BSc, BA)",control,36,2,For,Against
43,1659975937785,08/08/2022 16:25:37,1659975937768,1,08/08/2022 17:25:37,94826,3,task-mn1e,NA,23527520,6895753,NA,complete,NA,62f13825cb3422889bafe90a,computer,Desktop or Laptop,Linux x86_64,Firefox 103.0,1920x1080,1266x808,NA,ITT Ratings,2,for,4,NA,NA,ACCEPT,NA,NA,NA,NA,NA,NA,NA,batch4pro,batch4pro,50,41,1,Screen 1,continueButton,response_rating_scale_likert_active,4231,NA,NA,Strongly Agree,1,0,1,0,NA,NA,NA,NA,1,statements,to help try and save lives,1,17/06/2021 12:49,17/06/2021 12:54,IP Address,For (I feel positively about the vaccines),Rarely,Once or twice a year,20,Female,NA,Vocational Training / Apprenticeship,control,38,2,For,For
44,1659975941525,08/08/2022 16:25:41,1659975941514,1,08/08/2022 17:25:41,94826,3,task-mn1e,NA,23527520,6895753,NA,complete,NA,62f13825cb3422889bafe90a,computer,Desktop or Laptop,Linux x86_64,Firefox 103.0,1920x1080,1266x808,NA,ITT Ratings,2,for,4,NA,NA,ACCEPT,NA,NA,NA,NA,NA,NA,NA,batch4pro,batch4pro,4,42,1,Screen 1,continueButton,response_rating_scale_likert_active,3736,NA,NA,Disagree,1,0,1,0,NA,NA,NA,NA,1,statements,We don't know what the long term impact or effects are yet,1,17/06/2021 12:43,17/06/2021 12:52,IP Address,For (I feel positively about the vaccines),Rarely,Rarely,34,Male,NA,Doctorate (PhD),control,31,1,For,Against
45,1659975943805,08/08/2022 16:25:43,1659975943796,1,08/08/2022 17:25:43,94826,3,task-mn1e,NA,23527520,6895753,NA,complete,NA,62f13825cb3422889bafe90a,computer,Desktop or Laptop,Linux x86_64,Firefox 103.0,1920x1080,1266x808,NA,ITT Ratings,2,for,4,NA,NA,ACCEPT,NA,NA,NA,NA,NA,NA,NA,batch4pro,batch4pro,5,43,1,Screen 1,continueButton,response_rating_scale_likert_active,2273,NA,NA,Strongly Disagree,1,0,1,0,NA,NA,NA,NA,1,statements,"Can cause a dramatic side effect, such as infertility",1,17/06/2021 12:43,17/06/2021 12:52,IP Address,For (I feel positively about the vaccines),Rarely,Rarely,34,Male,NA,Doctorate (PhD),control,31,2,For,Against
46,1659975946291,08/08/2022 16:25:46,1659975946275,1,08/08/2022 17:25:46,94826,3,task-mn1e,NA,23527520,6895753,NA,complete,NA,62f13825cb3422889bafe90a,computer,Desktop or Laptop,Linux x86_64,Firefox 103.0,1920x1080,1266x808,NA,ITT Ratings,2,for,4,NA,NA,ACCEPT,NA,NA,NA,NA,NA,NA,NA,batch4pro,batch4pro,40,44,1,Screen 1,continueButton,response_rating_scale_likert_active,2469,NA,NA,Strongly Disagree,1,0,1,0,NA,NA,NA,NA,1,statements,I don't believe in vaccines,1,17/06/2021 12:45,17/06/2021 12:54,IP Address,For (I feel positively about the vaccines),Rarely,Rarely,30,Female,NA,"Undergraduate degree (BSc, BA)",choice,37,1,For,Against
47,1659975950117,08/08/2022 16:25:50,1659975950106,1,08/08/2022 17:25:50,94826,3,task-mn1e,NA,23527520,6895753,NA,complete,NA,62f13825cb3422889bafe90a,computer,Desktop or Laptop,Linux x86_64,Firefox 103.0,1920x1080,1266x808,NA,ITT Ratings,2,for,4,NA,NA,ACCEPT,NA,NA,NA,NA,NA,NA,NA,batch4pro,batch4pro,15,45,1,Screen 1,continueButton,response_rating_scale_likert_active,3821,NA,NA,Somewhat Agree,1,0,1,0,NA,NA,NA,NA,1,statements,For life to return to normal you need the vaccine,1,17/06/2021 12:43,17/06/2021 12:52,IP Address,For (I feel positively about the vaccines),Rarely,Most weeks,25,Female,NA,"Postgraduate degree (MSc, MA, MPhil)",choice,32,3,For,For
48,1659975956874,08/08/2022 16:25:56,1659975956861,1,08/08/2022 17:25:56,94826,3,task-mn1e,NA,23527520,6895753,NA,complete,NA,62f13825cb3422889bafe90a,computer,Desktop or Laptop,Linux x86_64,Firefox 103.0,1920x1080,1266x808,NA,ITT Ratings,2,for,4,NA,NA,ACCEPT,NA,NA,NA,NA,NA,NA,NA,batch4pro,batch4pro,21,46,1,Screen 1,continueButton,response_rating_scale_likert_active,6746,NA,NA,Somewhat Agree,1,0,1,0,NA,NA,NA,NA,1,statements,They don’t want the potential worry of getting COVID.,1,17/06/2021 12:41,17/06/2021 12:53,IP Address,For (I feel positively about the vaccines),Rarely,Rarely,45,Female,NA,"Undergraduate degree (BSc, BA)",choice,33,3,For,For
49,1659975960071,08/08/2022 16:26:00,1659975960062,1,08/08/2022 17:26:00,94826,3,task-mn1e,NA,23527520,6895753,NA,complete,NA,62f13825cb3422889bafe90a,computer,Desktop or Laptop,Linux x86_64,Firefox 103.0,1920x1080,1266x808,NA,ITT Ratings,2,for,4,NA,NA,ACCEPT,NA,NA,NA,NA,NA,NA,NA,batch4pro,batch4pro,51,47,1,Screen 1,continueButton,response_rating_scale_likert_active,3190,NA,NA,Strongly Agree,1,0,1,0,NA,NA,NA,NA,1,statements,to help protect the nhs so they are not too busy,1,17/06/2021 12:49,17/06/2021 12:54,IP Address,For (I feel positively about the vaccines),Rarely,Once or twice a year,20,Female,NA,Vocational Training / Apprenticeship,control,38,3,For,For
50,1659975964172,08/08/2022 16:26:04,1659975964163,1,08/08/2022 17:26:04,94826,3,task-mn1e,NA,23527520,6895753,NA,complete,NA,62f13825cb3422889bafe90a,computer,Desktop or Laptop,Linux x86_64,Firefox 103.0,1920x1080,1266x808,NA,ITT Ratings,2,for,4,NA,NA,ACCEPT,NA,NA,NA,NA,NA,NA,NA,batch4pro,batch4pro,41,48,1,Screen 1,continueButton,response_rating_scale_likert_active,4092,NA,NA,Disagree,1,0,1,0,NA,NA,NA,NA,1,statements,I am worried about the side effevts,1,17/06/2021 12:45,17/06/2021 12:54,IP Address,For (I feel positively about the vaccines),Rarely,Rarely,30,Female,NA,"Undergraduate degree (BSc, BA)",choice,37,2,For,Against
51,1659975967978,08/08/2022 16:26:07,1659975967952,1,08/08/2022 17:26:07,94826,3,task-mn1e,NA,23527520,6895753,NA,complete,NA,62f13825cb3422889bafe90a,computer,Desktop or Laptop,Linux x86_64,Firefox 103.0,1920x1080,1266x808,NA,ITT Ratings,2,for,4,NA,NA,ACCEPT,NA,NA,NA,NA,NA,NA,NA,batch4pro,batch4pro,24,49,1,Screen 1,continueButton,response_rating_scale_likert_active,3780,NA,NA,Somewhat Agree,1,0,1,0,NA,NA,NA,NA,1,statements,Allow us to get back to normal life,1,17/06/2021 12:45,17/06/2021 12:53,IP Address,For (I feel positively about the vaccines),Rarely,Rarely,38,Male,NA,"Undergraduate degree (BSc, BA)",choice,34,3,For,Against
52,1659975970122,08/08/2022 16:26:10,1659975970113,1,08/08/2022 17:26:10,94826,3,task-mn1e,NA,23527520,6895753,NA,complete,NA,62f13825cb3422889bafe90a,computer,Desktop or Laptop,Linux x86_64,Firefox 103.0,1920x1080,1266x808,NA,ITT Ratings,2,for,4,NA,NA,ACCEPT,NA,NA,NA,NA,NA,NA,NA,batch4pro,batch4pro,10,50,1,Screen 1,continueButton,response_rating_scale_likert_active,2153,NA,NA,Disagree,1,0,1,0,NA,NA,NA,NA,1,statements,The has not been enough time to test the vaccine to ensure its not harmful,1,17/06/2021 12:43,17/06/2021 12:52,IP Address,For (I feel positively about the vaccines),Rarely,Most weeks,25,Female,NA,"Postgraduate degree (MSc, MA, MPhil)",choice,32,1,For,Against
53,1659975971895,08/08/2022 16:26:11,1659975971886,1,08/08/2022 17:26:11,94826,3,task-mn1e,NA,23527520,6895753,NA,complete,NA,62f13825cb3422889bafe90a,computer,Desktop or Laptop,Linux x86_64,Firefox 103.0,1920x1080,1266x808,NA,ITT Ratings,2,for,4,NA,NA,ACCEPT,NA,NA,NA,NA,NA,NA,NA,batch4pro,batch4pro,63,51,1,Screen 1,continueButton,response_rating_scale_likert_active,1765,NA,NA,Agree,1,0,1,0,NA,NA,NA,NA,1,statements,I trust the scientists/science,1,17/06/2021 12:46,17/06/2021 12:54,IP Address,For (I feel positively about the vaccines),Once or twice a year,Once or twice a year,38,Female,NA,"Undergraduate degree (BSc, BA)",control,40,3,For,For
54,1659975974882,08/08/2022 16:26:14,1659975974871,1,08/08/2022 17:26:14,94826,3,task-mn1e,NA,23527520,6895753,NA,complete,NA,62f13825cb3422889bafe90a,computer,Desktop or Laptop,Linux x86_64,Firefox 103.0,1920x1080,1266x808,NA,ITT Ratings,2,for,4,NA,NA,ACCEPT,NA,NA,NA,NA,NA,NA,NA,batch4pro,batch4pro,16,52,1,Screen 1,continueButton,response_rating_scale_likert_active,2977,NA,NA,Disagree,1,0,1,0,NA,NA,NA,NA,1,statements,Side effects worrying,1,17/06/2021 12:41,17/06/2021 12:53,IP Address,For (I feel positively about the vaccines),Rarely,Rarely,45,Female,NA,"Undergraduate degree (BSc, BA)",choice,33,1,For,Against
55,1659975977747,08/08/2022 16:26:17,1659975977735,1,08/08/2022 17:26:17,94826,3,task-mn1e,NA,23527520,6895753,NA,complete,NA,62f13825cb3422889bafe90a,computer,Desktop or Laptop,Linux x86_64,Firefox 103.0,1920x1080,1266x808,NA,ITT Ratings,2,for,4,NA,NA,ACCEPT,NA,NA,NA,NA,NA,NA,NA,batch4pro,batch4pro,46,53,1,Screen 1,continueButton,response_rating_scale_likert_active,2856,NA,NA,Agree,1,0,1,0,NA,NA,NA,NA,1,statements,Can help prevent you getting it,1,17/06/2021 12:49,17/06/2021 12:54,IP Address,For (I feel positively about the vaccines),Rarely,Once or twice a year,20,Female,NA,Vocational Training / Apprenticeship,control,38,1,For,Against
56,1659975982193,08/08/2022 16:26:22,1659975982171,1,08/08/2022 17:26:22,94826,3,task-mn1e,NA,23527520,6895753,NA,complete,NA,62f13825cb3422889bafe90a,computer,Desktop or Laptop,Linux x86_64,Firefox 103.0,1920x1080,1266x808,NA,ITT Ratings,2,for,4,NA,NA,ACCEPT,NA,NA,NA,NA,NA,NA,NA,batch4pro,batch4pro,53,54,1,Screen 1,continueButton,response_rating_scale_likert_active,4428,NA,NA,Disagree,1,0,1,0,NA,NA,NA,NA,1,statements,It's unnecessary - Covid won’t make me very unwell,1,17/06/2021 12:47,17/06/2021 12:54,IP Address,For (I feel positively about the vaccines),Rarely,A few times a year,31,Female,NA,"Postgraduate degree (MSc, MA, MPhil)",choice,39,2,For,Against
57,1659975986619,08/08/2022 16:26:26,1659975986610,1,08/08/2022 17:26:26,94826,3,task-mn1e,NA,23527520,6895753,NA,complete,NA,62f13825cb3422889bafe90a,computer,Desktop or Laptop,Linux x86_64,Firefox 103.0,1920x1080,1266x808,NA,ITT Ratings,2,for,4,NA,NA,ACCEPT,NA,NA,NA,NA,NA,NA,NA,batch4pro,batch4pro,57,55,1,Screen 1,continueButton,response_rating_scale_likert_active,4431,NA,NA,Strongly Agree,1,0,1,0,NA,NA,NA,NA,1,statements,It's the safest option rather than catching the virus,1,17/06/2021 12:47,17/06/2021 12:54,IP Address,For (I feel positively about the vaccines),Rarely,A few times a year,31,Female,NA,"Postgraduate degree (MSc, MA, MPhil)",choice,39,3,For,For
58,1659975992120,08/08/2022 16:26:32,1659975992108,1,08/08/2022 17:26:32,94826,3,task-mn1e,NA,23527520,6895753,NA,complete,NA,62f13825cb3422889bafe90a,computer,Desktop or Laptop,Linux x86_64,Firefox 103.0,1920x1080,1266x808,NA,ITT Ratings,2,for,4,NA,NA,ACCEPT,NA,NA,NA,NA,NA,NA,NA,batch4pro,batch4pro,60,56,1,Screen 1,continueButton,response_rating_scale_likert_active,5490,NA,NA,Somewhat Disagree,1,0,1,0,NA,NA,NA,NA,1,statements,There are issues around blood clots and fertility,1,17/06/2021 12:46,17/06/2021 12:54,IP Address,For (I feel positively about the vaccines),Once or twice a year,Once or twice a year,38,Female,NA,"Undergraduate degree (BSc, BA)",control,40,3,For,Against
59,1659976001719,08/08/2022 16:26:41,1659976001705,1,08/08/2022 17:26:41,94826,3,task-mn1e,NA,23527520,6895753,NA,complete,NA,62f13825cb3422889bafe90a,computer,Desktop or Laptop,Linux x86_64,Firefox 103.0,1920x1080,1266x808,NA,ITT Ratings,2,for,4,NA,NA,ACCEPT,NA,NA,NA,NA,NA,NA,NA,batch4pro,batch4pro,27,57,1,Screen 1,continueButton,response_rating_scale_likert_active,9579,NA,NA,Agree,1,0,1,0,NA,NA,NA,NA,1,statements,The ability to end lockdown and restart the economy fully in turn giving us all the freedom we have been used to. By not having the vaccine the chances of leaving lockdown and having a normal reduce,1,17/06/2021 12:45,17/06/2021 12:53,IP Address,For (I feel positively about the vaccines),Rarely,Rarely,38,Male,NA,"Undergraduate degree (BSc, BA)",choice,34,3,For,For
60,1659976003838,08/08/2022 16:26:43,1659976003824,1,08/08/2022 17:26:43,94826,3,task-mn1e,NA,23527520,6895753,NA,complete,NA,62f13825cb3422889bafe90a,computer,Desktop or Laptop,Linux x86_64,Firefox 103.0,1920x1080,1266x808,NA,ITT Ratings,2,for,4,NA,NA,ACCEPT,NA,NA,NA,NA,NA,NA,NA,batch4pro,batch4pro,49,58,1,Screen 1,continueButton,response_rating_scale_likert_active,2108,NA,NA,Agree,1,0,1,0,NA,NA,NA,NA,1,statements,To help the world go back to normal,1,17/06/2021 12:49,17/06/2021 12:54,IP Address,For (I feel positively about the vaccines),Rarely,Once or twice a year,20,Female,NA,Vocational Training / Apprenticeship,control,38,1,For,For
61,1659976006285,08/08/2022 16:26:46,1659976006261,1,08/08/2022 17:26:46,94826,3,task-mn1e,NA,23527520,6895753,NA,complete,NA,62f13825cb3422889bafe90a,computer,Desktop or Laptop,Linux x86_64,Firefox 103.0,1920x1080,1266x808,NA,ITT Ratings,2,for,4,NA,NA,ACCEPT,NA,NA,NA,NA,NA,NA,NA,batch4pro,batch4pro,17,59,1,Screen 1,continueButton,response_rating_scale_likert_active,2425,NA,NA,Disagree,1,0,1,0,NA,NA,NA,NA,1,statements,We don't know what's in it,1,17/06/2021 12:41,17/06/2021 12:53,IP Address,For (I feel positively about the vaccines),Rarely,Rarely,45,Female,NA,"Undergraduate degree (BSc, BA)",choice,33,2,For,Against
62,1659976008677,08/08/2022 16:26:48,1659976008663,1,08/08/2022 17:26:48,94826,3,task-mn1e,NA,23527520,6895753,NA,complete,NA,62f13825cb3422889bafe90a,computer,Desktop or Laptop,Linux x86_64,Firefox 103.0,1920x1080,1266x808,NA,ITT Ratings,2,for,4,NA,NA,ACCEPT,NA,NA,NA,NA,NA,NA,NA,batch4pro,batch4pro,3,60,1,Screen 1,continueButton,response_rating_scale_likert_active,2394,NA,NA,Somewhat Disagree,1,0,1,0,NA,NA,NA,NA,1,statements,We would like to check you are reading each argument carefully. Please select 'Somewhat Disagree' for this answer,1,NA,NA,NA,NA,NA,NA,NA,NA,NA,NA,NA,NA,check2,NA,NA
63,1659976010329,08/08/2022 16:26:50,1659976010303,1,08/08/2022 17:26:50,94826,3,task-mn1e,NA,23527520,6895753,NA,complete,NA,62f13825cb3422889bafe90a,computer,Desktop or Laptop,Linux x86_64,Firefox 103.0,1920x1080,1266x808,NA,ITT Ratings,2,for,4,NA,NA,ACCEPT,NA,NA,NA,NA,NA,NA,NA,batch4pro,batch4pro,32,61,1,Screen 1,continueButton,response_rating_scale_likert_active,1633,NA,NA,Strongly Agree,1,0,1,0,NA,NA,NA,NA,1,statements,I want to help protect others,1,17/06/2021 12:45,17/06/2021 12:53,IP Address,For (I feel positively about the vaccines),Rarely,Once or twice a year,30,Female,NA,"Undergraduate degree (BSc, BA)",choice,35,2,For,For
64,1659976014745,08/08/2022 16:26:54,1659976014735,1,08/08/2022 17:26:54,94826,3,task-mn1e,NA,23527520,6895753,NA,complete,NA,62f13825cb3422889bafe90a,computer,Desktop or Laptop,Linux x86_64,Firefox 103.0,1920x1080,1266x808,NA,ITT Ratings,2,for,4,NA,NA,ACCEPT,NA,NA,NA,NA,NA,NA,NA,batch4pro,batch4pro,13,62,1,Screen 1,continueButton,response_rating_scale_likert_active,4426,NA,NA,Agree,1,0,1,0,NA,NA,NA,NA,1,statements,Vaccines have been going on for years so they are good to protect us,1,17/06/2021 12:43,17/06/2021 12:52,IP Address,For (I feel positively about the vaccines),Rarely,Most weeks,25,Female,NA,"Postgraduate degree (MSc, MA, MPhil)",choice,32,1,For,For
65,1659976014808,08/08/2022 16:26:54,1659976014740,1,08/08/2022 17:26:54,94826,3,task-mn1e,NA,23527520,6895753,NA,complete,NA,62f13825cb3422889bafe90a,computer,Desktop or Laptop,Linux x86_64,Firefox 103.0,1920x1080,1266x808,NA,ITT Ratings,2,for,4,NA,NA,ACCEPT,NA,NA,NA,NA,NA,NA,NA,batch4pro,NA,NA,END TASK,NA,NA,NA,NA,265260,NA,NA,NA,NA,0,1,0,NA,NA,NA,NA,NA,NA,NA,NA,NA,NA,NA,NA,NA,NA,NA,NA,NA,NA,NA,NA,NA,NA,NA
1,1659975751041,08/08/2022 16:22:31,1659975750921,1,08/08/2022 17:22:30,94826,3,task-mn1e,NA,23527523,6895757,NA,complete,NA,62f13824c8d1eda6d6e44a57,computer,Desktop or Laptop,Windows 10,Chrome 103.0.5060.114,1920x1080,1920x937,NA,ITT Ratings,2,for,4,NA,NA,ACCEPT,NA,NA,NA,NA,NA,NA,NA,batch4pro,NA,NA,BEGIN TASK,NA,NA,NA,NA,NA,NA,NA,NA,NA,0,1,0,NA,NA,NA,NA,NA,NA,NA,NA,NA,NA,NA,NA,NA,NA,NA,NA,NA,NA,NA,NA,NA,NA,NA
2,1659975759288,08/08/2022 16:22:39,1659975759221,1,08/08/2022 17:22:39,94826,3,task-mn1e,NA,23527523,6895757,NA,complete,NA,62f13824c8d1eda6d6e44a57,computer,Desktop or Laptop,Windows 10,Chrome 103.0.5060.114,1920x1080,1920x937,NA,ITT Ratings,2,for,4,NA,NA,ACCEPT,NA,NA,NA,NA,NA,NA,NA,batch4pro,batch4pro,1,1,1,Screen 1,advancementZone,continue_button,8254.40000000596,NA,NA,NA,NA,0,1,0,NA,NA,NA,NA,NA,instructions,NA,NA,NA,NA,NA,NA,NA,NA,NA,NA,NA,NA,NA,NA,NA,NA,NA
3,1659975771132,08/08/2022 16:22:51,1659975771058,1,08/08/2022 17:22:51,94826,3,task-mn1e,NA,23527523,6895757,NA,complete,NA,62f13824c8d1eda6d6e44a57,computer,Desktop or Laptop,Windows 10,Chrome 103.0.5060.114,1920x1080,1920x937,NA,ITT Ratings,2,for,4,NA,NA,ACCEPT,NA,NA,NA,NA,NA,NA,NA,batch4pro,batch4pro,6,1,1,Screen 1,continueButton,response_rating_scale_likert_active,11819.399999976158,NA,NA,Disagree,1,0,1,0,NA,NA,NA,NA,1,statements,I don't like needles/felt unwell for a brief period after a previous vaccine,1,17/06/2021 12:43,17/06/2021 12:52,IP Address,For (I feel positively about the vaccines),Rarely,Rarely,34,Male,NA,Doctorate (PhD),control,31,3,For,Against
4,1659975775261,08/08/2022 16:22:55,1659975775169,1,08/08/2022 17:22:55,94826,3,task-mn1e,NA,23527523,6895757,NA,complete,NA,62f13824c8d1eda6d6e44a57,computer,Desktop or Laptop,Windows 10,Chrome 103.0.5060.114,1920x1080,1920x937,NA,ITT Ratings,2,for,4,NA,NA,ACCEPT,NA,NA,NA,NA,NA,NA,NA,batch4pro,batch4pro,32,2,1,Screen 1,continueButton,response_rating_scale_likert_active,4090.5,NA,NA,Strongly Agree,1,0,1,0,NA,NA,NA,NA,1,statements,I want to help protect others,1,17/06/2021 12:45,17/06/2021 12:53,IP Address,For (I feel positively about the vaccines),Rarely,Once or twice a year,30,Female,NA,"Undergraduate degree (BSc, BA)",choice,35,2,For,For
5,1659975777508,08/08/2022 16:22:57,1659975777443,1,08/08/2022 17:22:57,94826,3,task-mn1e,NA,23527523,6895757,NA,complete,NA,62f13824c8d1eda6d6e44a57,computer,Desktop or Laptop,Windows 10,Chrome 103.0.5060.114,1920x1080,1920x937,NA,ITT Ratings,2,for,4,NA,NA,ACCEPT,NA,NA,NA,NA,NA,NA,NA,batch4pro,batch4pro,37,3,1,Screen 1,continueButton,response_rating_scale_likert_active,2263.2000000178814,NA,NA,Agree,1,0,1,0,NA,NA,NA,NA,1,statements,Idon't want to die from Covid-19,1,17/06/2021 12:46,17/06/2021 12:53,IP Address,For (I feel positively about the vaccines),Rarely,Most weeks,22,Non-binary,NA,"Undergraduate degree (BSc, BA)",control,36,1,For,For
6,1659975782689,08/08/2022 16:23:02,1659975782644,1,08/08/2022 17:23:02,94826,3,task-mn1e,NA,23527523,6895757,NA,complete,NA,62f13824c8d1eda6d6e44a57,computer,Desktop or Laptop,Windows 10,Chrome 103.0.5060.114,1920x1080,1920x937,NA,ITT Ratings,2,for,4,NA,NA,ACCEPT,NA,NA,NA,NA,NA,NA,NA,batch4pro,batch4pro,28,4,1,Screen 1,continueButton,response_rating_scale_likert_active,5190.800000011921,NA,NA,Disagree,1,0,1,0,NA,NA,NA,NA,1,statements,We haven't had long enough to test the vaccines,1,17/06/2021 12:45,17/06/2021 12:53,IP Address,For (I feel positively about the vaccines),Rarely,Once or twice a year,30,Female,NA,"Undergraduate degree (BSc, BA)",choice,35,1,For,Against
7,1659975784671,08/08/2022 16:23:04,1659975784622,1,08/08/2022 17:23:04,94826,3,task-mn1e,NA,23527523,6895757,NA,complete,NA,62f13824c8d1eda6d6e44a57,computer,Desktop or Laptop,Windows 10,Chrome 103.0.5060.114,1920x1080,1920x937,NA,ITT Ratings,2,for,4,NA,NA,ACCEPT,NA,NA,NA,NA,NA,NA,NA,batch4pro,batch4pro,49,5,1,Screen 1,continueButton,response_rating_scale_likert_active,1968.800000011921,NA,NA,Strongly Agree,1,0,1,0,NA,NA,NA,NA,1,statements,To help the world go back to normal,1,17/06/2021 12:49,17/06/2021 12:54,IP Address,For (I feel positively about the vaccines),Rarely,Once or twice a year,20,Female,NA,Vocational Training / Apprenticeship,control,38,1,For,For
8,1659975798599,08/08/2022 16:23:18,1659975798536,1,08/08/2022 17:23:18,94826,3,task-mn1e,NA,23527523,6895757,NA,complete,NA,62f13824c8d1eda6d6e44a57,computer,Desktop or Laptop,Windows 10,Chrome 103.0.5060.114,1920x1080,1920x937,NA,ITT Ratings,2,for,4,NA,NA,ACCEPT,NA,NA,NA,NA,NA,NA,NA,batch4pro,batch4pro,35,6,1,Screen 1,continueButton,response_rating_scale_likert_active,13901.90000000596,NA,NA,Somewhat Disagree,1,0,1,0,NA,NA,NA,NA,1,statements,Fear of needles/injections,1,17/06/2021 12:46,17/06/2021 12:53,IP Address,For (I feel positively about the vaccines),Rarely,Most weeks,22,Non-binary,NA,"Undergraduate degree (BSc, BA)",control,36,2,For,Against
9,1659975802604,08/08/2022 16:23:22,1659975802539,1,08/08/2022 17:23:22,94826,3,task-mn1e,NA,23527523,6895757,NA,complete,NA,62f13824c8d1eda6d6e44a57,computer,Desktop or Laptop,Windows 10,Chrome 103.0.5060.114,1920x1080,1920x937,NA,ITT Ratings,2,for,4,NA,NA,ACCEPT,NA,NA,NA,NA,NA,NA,NA,batch4pro,batch4pro,2,7,1,Screen 1,continueButton,response_rating_scale_likert_active,3992.300000011921,NA,NA,Somewhat Agree,1,0,1,0,NA,NA,NA,NA,1,statements,We would like to check you are reading each argument carefully. Please select 'Somewhat Agree' for this answer,1,NA,NA,NA,NA,NA,NA,NA,NA,NA,NA,NA,NA,check1,NA,NA
10,1659975807999,08/08/2022 16:23:27,1659975807939,1,08/08/2022 17:23:27,94826,3,task-mn1e,NA,23527523,6895757,NA,complete,NA,62f13824c8d1eda6d6e44a57,computer,Desktop or Laptop,Windows 10,Chrome 103.0.5060.114,1920x1080,1920x937,NA,ITT Ratings,2,for,4,NA,NA,ACCEPT,NA,NA,NA,NA,NA,NA,NA,batch4pro,batch4pro,9,8,1,Screen 1,continueButton,response_rating_scale_likert_active,5389.800000011921,NA,NA,Agree,1,0,1,0,NA,NA,NA,NA,1,statements,Aren't we lucky/fortunate how quickly this has been developed and we are in a position where we can get a vaccine.,1,17/06/2021 12:43,17/06/2021 12:52,IP Address,For (I feel positively about the vaccines),Rarely,Rarely,34,Male,NA,Doctorate (PhD),control,31,3,For,For
11,1659975809463,08/08/2022 16:23:29,1659975809426,1,08/08/2022 17:23:29,94826,3,task-mn1e,NA,23527523,6895757,NA,complete,NA,62f13824c8d1eda6d6e44a57,computer,Desktop or Laptop,Windows 10,Chrome 103.0.5060.114,1920x1080,1920x937,NA,ITT Ratings,2,for,4,NA,NA,ACCEPT,NA,NA,NA,NA,NA,NA,NA,batch4pro,batch4pro,38,9,1,Screen 1,continueButton,response_rating_scale_likert_active,1476.0999999940395,NA,NA,Strongly Agree,1,0,1,0,NA,NA,NA,NA,1,statements,I want to protect elderly relatives and friends,1,17/06/2021 12:46,17/06/2021 12:53,IP Address,For (I feel positively about the vaccines),Rarely,Most weeks,22,Non-binary,NA,"Undergraduate degree (BSc, BA)",control,36,2,For,For
12,1659975813831,08/08/2022 16:23:33,1659975813782,1,08/08/2022 17:23:33,94826,3,task-mn1e,NA,23527523,6895757,NA,complete,NA,62f13824c8d1eda6d6e44a57,computer,Desktop or Laptop,Windows 10,Chrome 103.0.5060.114,1920x1080,1920x937,NA,ITT Ratings,2,for,4,NA,NA,ACCEPT,NA,NA,NA,NA,NA,NA,NA,batch4pro,batch4pro,59,10,1,Screen 1,continueButton,response_rating_scale_likert_active,4346.699999988079,NA,NA,Strongly Disagree,1,0,1,0,NA,NA,NA,NA,1,statements,We do not know what harm they can cause in the future,1,17/06/2021 12:46,17/06/2021 12:54,IP Address,For (I feel positively about the vaccines),Once or twice a year,Once or twice a year,38,Female,NA,"Undergraduate degree (BSc, BA)",control,40,2,For,Against
13,1659975817298,08/08/2022 16:23:37,1659975817248,1,08/08/2022 17:23:37,94826,3,task-mn1e,NA,23527523,6895757,NA,complete,NA,62f13824c8d1eda6d6e44a57,computer,Desktop or Laptop,Windows 10,Chrome 103.0.5060.114,1920x1080,1920x937,NA,ITT Ratings,2,for,4,NA,NA,ACCEPT,NA,NA,NA,NA,NA,NA,NA,batch4pro,batch4pro,7,11,1,Screen 1,continueButton,response_rating_scale_likert_active,3456.5,NA,NA,Strongly Agree,1,0,1,0,NA,NA,NA,NA,1,statements,It can help us return to 'normal' sooner than if I didn't do it.,1,17/06/2021 12:43,17/06/2021 12:52,IP Address,For (I feel positively about the vaccines),Rarely,Rarely,34,Male,NA,Doctorate (PhD),control,31,1,For,For
14,1659975821754,08/08/2022 16:23:41,1659975821681,1,08/08/2022 17:23:41,94826,3,task-mn1e,NA,23527523,6895757,NA,complete,NA,62f13824c8d1eda6d6e44a57,computer,Desktop or Laptop,Windows 10,Chrome 103.0.5060.114,1920x1080,1920x937,NA,ITT Ratings,2,for,4,NA,NA,ACCEPT,NA,NA,NA,NA,NA,NA,NA,batch4pro,batch4pro,34,12,1,Screen 1,continueButton,response_rating_scale_likert_active,4422.399999976158,NA,NA,Somewhat Disagree,1,0,1,0,NA,NA,NA,NA,1,statements,The government is denying our right to say no,1,17/06/2021 12:46,17/06/2021 12:53,IP Address,For (I feel positively about the vaccines),Rarely,Most weeks,22,Non-binary,NA,"Undergraduate degree (BSc, BA)",control,36,1,For,Against
15,1659975826275,08/08/2022 16:23:46,1659975826196,1,08/08/2022 17:23:46,94826,3,task-mn1e,NA,23527523,6895757,NA,complete,NA,62f13824c8d1eda6d6e44a57,computer,Desktop or Laptop,Windows 10,Chrome 103.0.5060.114,1920x1080,1920x937,NA,ITT Ratings,2,for,4,NA,NA,ACCEPT,NA,NA,NA,NA,NA,NA,NA,batch4pro,batch4pro,61,13,1,Screen 1,continueButton,response_rating_scale_likert_active,4504.0999999940395,NA,NA,Neither Agree nor Disagree,1,0,1,0,NA,NA,NA,NA,1,statements,I am vulnerable to covid 19,1,17/06/2021 12:46,17/06/2021 12:54,IP Address,For (I feel positively about the vaccines),Once or twice a year,Once or twice a year,38,Female,NA,"Undergraduate degree (BSc, BA)",control,40,1,For,For
16,1659975829718,08/08/2022 16:23:49,1659975829664,1,08/08/2022 17:23:49,94826,3,task-mn1e,NA,23527523,6895757,NA,complete,NA,62f13824c8d1eda6d6e44a57,computer,Desktop or Laptop,Windows 10,Chrome 103.0.5060.114,1920x1080,1920x937,NA,ITT Ratings,2,for,4,NA,NA,ACCEPT,NA,NA,NA,NA,NA,NA,NA,batch4pro,batch4pro,5,14,1,Screen 1,continueButton,response_rating_scale_likert_active,3457.5999999940395,NA,NA,Strongly Disagree,1,0,1,0,NA,NA,NA,NA,1,statements,"Can cause a dramatic side effect, such as infertility",1,17/06/2021 12:43,17/06/2021 12:52,IP Address,For (I feel positively about the vaccines),Rarely,Rarely,34,Male,NA,Doctorate (PhD),control,31,2,For,Against
17,1659975831645,08/08/2022 16:23:51,1659975831597,1,08/08/2022 17:23:51,94826,3,task-mn1e,NA,23527523,6895757,NA,complete,NA,62f13824c8d1eda6d6e44a57,computer,Desktop or Laptop,Windows 10,Chrome 103.0.5060.114,1920x1080,1920x937,NA,ITT Ratings,2,for,4,NA,NA,ACCEPT,NA,NA,NA,NA,NA,NA,NA,batch4pro,batch4pro,54,15,1,Screen 1,continueButton,response_rating_scale_likert_active,1922.2000000178816,NA,NA,Strongly Disagree,1,0,1,0,NA,NA,NA,NA,1,statements,It's a conspiracy - Covid is man made and the government want us all to have vaccine,1,17/06/2021 12:47,17/06/2021 12:54,IP Address,For (I feel positively about the vaccines),Rarely,A few times a year,31,Female,NA,"Postgraduate degree (MSc, MA, MPhil)",choice,39,3,For,Against
18,1659975835329,08/08/2022 16:23:55,1659975835241,1,08/08/2022 17:23:55,94826,3,task-mn1e,NA,23527523,6895757,NA,complete,NA,62f13824c8d1eda6d6e44a57,computer,Desktop or Laptop,Windows 10,Chrome 103.0.5060.114,1920x1080,1920x937,NA,ITT Ratings,2,for,4,NA,NA,ACCEPT,NA,NA,NA,NA,NA,NA,NA,batch4pro,batch4pro,39,16,1,Screen 1,continueButton,response_rating_scale_likert_active,3635.2999999821186,NA,NA,Disagree,1,0,1,0,NA,NA,NA,NA,1,statements,I don't want to risk being affected by the symptoms of 'long covid' for the rest of my life,1,17/06/2021 12:46,17/06/2021 12:53,IP Address,For (I feel positively about the vaccines),Rarely,Most weeks,22,Non-binary,NA,"Undergraduate degree (BSc, BA)",control,36,3,For,For
19,1659975840392,08/08/2022 16:24:00,1659975840344,1,08/08/2022 17:24:00,94826,3,task-mn1e,NA,23527523,6895757,NA,complete,NA,62f13824c8d1eda6d6e44a57,computer,Desktop or Laptop,Windows 10,Chrome 103.0.5060.114,1920x1080,1920x937,NA,ITT Ratings,2,for,4,NA,NA,ACCEPT,NA,NA,NA,NA,NA,NA,NA,batch4pro,batch4pro,14,17,1,Screen 1,continueButton,response_rating_scale_likert_active,5093.399999976158,NA,NA,Neither Agree nor Disagree,1,0,1,0,NA,NA,NA,NA,1,statements,Vaccine companies are not making a profit so why not get it,1,17/06/2021 12:43,17/06/2021 12:52,IP Address,For (I feel positively about the vaccines),Rarely,Most weeks,25,Female,NA,"Postgraduate degree (MSc, MA, MPhil)",choice,32,2,For,For
20,1659975843434,08/08/2022 16:24:03,1659975843366,1,08/08/2022 17:24:03,94826,3,task-mn1e,NA,23527523,6895757,NA,complete,NA,62f13824c8d1eda6d6e44a57,computer,Desktop or Laptop,Windows 10,Chrome 103.0.5060.114,1920x1080,1920x937,NA,ITT Ratings,2,for,4,NA,NA,ACCEPT,NA,NA,NA,NA,NA,NA,NA,batch4pro,batch4pro,30,18,1,Screen 1,continueButton,response_rating_scale_likert_active,3014.0999999940395,NA,NA,Strongly Disagree,1,0,1,0,NA,NA,NA,NA,1,statements,I don't need a vaccine - I'm young and healthy.,1,17/06/2021 12:45,17/06/2021 12:53,IP Address,For (I feel positively about the vaccines),Rarely,Once or twice a year,30,Female,NA,"Undergraduate degree (BSc, BA)",choice,35,3,For,Against
21,1659975848032,08/08/2022 16:24:08,1659975847997,1,08/08/2022 17:24:07,94826,3,task-mn1e,NA,23527523,6895757,NA,complete,NA,62f13824c8d1eda6d6e44a57,computer,Desktop or Laptop,Windows 10,Chrome 103.0.5060.114,1920x1080,1920x937,NA,ITT Ratings,2,for,4,NA,NA,ACCEPT,NA,NA,NA,NA,NA,NA,NA,batch4pro,batch4pro,16,19,1,Screen 1,continueButton,response_rating_scale_likert_active,4620.799999982119,NA,NA,Somewhat Disagree,1,0,1,0,NA,NA,NA,NA,1,statements,Side effects worrying,1,17/06/2021 12:41,17/06/2021 12:53,IP Address,For (I feel positively about the vaccines),Rarely,Rarely,45,Female,NA,"Undergraduate degree (BSc, BA)",choice,33,1,For,Against
22,1659975851715,08/08/2022 16:24:11,1659975851653,1,08/08/2022 17:24:11,94826,3,task-mn1e,NA,23527523,6895757,NA,complete,NA,62f13824c8d1eda6d6e44a57,computer,Desktop or Laptop,Windows 10,Chrome 103.0.5060.114,1920x1080,1920x937,NA,ITT Ratings,2,for,4,NA,NA,ACCEPT,NA,NA,NA,NA,NA,NA,NA,batch4pro,batch4pro,26,20,1,Screen 1,continueButton,response_rating_scale_likert_active,3646.400000005961,NA,NA,Strongly Agree,1,0,1,0,NA,NA,NA,NA,1,statements,Avoiding severe illness,1,17/06/2021 12:45,17/06/2021 12:53,IP Address,For (I feel positively about the vaccines),Rarely,Rarely,38,Male,NA,"Undergraduate degree (BSc, BA)",choice,34,2,For,For
23,1659975853345,08/08/2022 16:24:13,1659975853292,1,08/08/2022 17:24:13,94826,3,task-mn1e,NA,23527523,6895757,NA,complete,NA,62f13824c8d1eda6d6e44a57,computer,Desktop or Laptop,Windows 10,Chrome 103.0.5060.114,1920x1080,1920x937,NA,ITT Ratings,2,for,4,NA,NA,ACCEPT,NA,NA,NA,NA,NA,NA,NA,batch4pro,batch4pro,40,21,1,Screen 1,continueButton,response_rating_scale_likert_active,1626.199999988079,NA,NA,Strongly Disagree,1,0,1,0,NA,NA,NA,NA,1,statements,I don't believe in vaccines,1,17/06/2021 12:45,17/06/2021 12:54,IP Address,For (I feel positively about the vaccines),Rarely,Rarely,30,Female,NA,"Undergraduate degree (BSc, BA)",choice,37,1,For,Against
24,1659975863284,08/08/2022 16:24:23,1659975863225,1,08/08/2022 17:24:23,94826,3,task-mn1e,NA,23527523,6895757,NA,complete,NA,62f13824c8d1eda6d6e44a57,computer,Desktop or Laptop,Windows 10,Chrome 103.0.5060.114,1920x1080,1920x937,NA,ITT Ratings,2,for,4,NA,NA,ACCEPT,NA,NA,NA,NA,NA,NA,NA,batch4pro,batch4pro,25,22,1,Screen 1,continueButton,response_rating_scale_likert_active,9924.09999999404,NA,NA,Strongly Agree,1,0,1,0,NA,NA,NA,NA,1,statements,Protecting Health of yourself and protecting people around you by breaking the infection trend therefore avoiding illness and hospital stays.,1,17/06/2021 12:45,17/06/2021 12:53,IP Address,For (I feel positively about the vaccines),Rarely,Rarely,38,Male,NA,"Undergraduate degree (BSc, BA)",choice,34,1,For,For
25,1659975867245,08/08/2022 16:24:27,1659975867188,1,08/08/2022 17:24:27,94826,3,task-mn1e,NA,23527523,6895757,NA,complete,NA,62f13824c8d1eda6d6e44a57,computer,Desktop or Laptop,Windows 10,Chrome 103.0.5060.114,1920x1080,1920x937,NA,ITT Ratings,2,for,4,NA,NA,ACCEPT,NA,NA,NA,NA,NA,NA,NA,batch4pro,batch4pro,48,23,1,Screen 1,continueButton,response_rating_scale_likert_active,3953.199999988079,NA,NA,Strongly Agree,1,0,1,0,NA,NA,NA,NA,1,statements,You will most likely need it to travel,1,17/06/2021 12:49,17/06/2021 12:54,IP Address,For (I feel positively about the vaccines),Rarely,Once or twice a year,20,Female,NA,Vocational Training / Apprenticeship,control,38,3,For,Against
26,1659975869377,08/08/2022 16:24:29,1659975869300,1,08/08/2022 17:24:29,94826,3,task-mn1e,NA,23527523,6895757,NA,complete,NA,62f13824c8d1eda6d6e44a57,computer,Desktop or Laptop,Windows 10,Chrome 103.0.5060.114,1920x1080,1920x937,NA,ITT Ratings,2,for,4,NA,NA,ACCEPT,NA,NA,NA,NA,NA,NA,NA,batch4pro,batch4pro,18,24,1,Screen 1,continueButton,response_rating_scale_likert_active,2100.7999999821186,NA,NA,Strongly Disagree,1,0,1,0,NA,NA,NA,NA,1,statements,I have a bee allergy,1,17/06/2021 12:41,17/06/2021 12:53,IP Address,For (I feel positively about the vaccines),Rarely,Rarely,45,Female,NA,"Undergraduate degree (BSc, BA)",choice,33,3,For,Against
27,1659975872030,08/08/2022 16:24:32,1659975871996,1,08/08/2022 17:24:31,94826,3,task-mn1e,NA,23527523,6895757,NA,complete,NA,62f13824c8d1eda6d6e44a57,computer,Desktop or Laptop,Windows 10,Chrome 103.0.5060.114,1920x1080,1920x937,NA,ITT Ratings,2,for,4,NA,NA,ACCEPT,NA,NA,NA,NA,NA,NA,NA,batch4pro,batch4pro,3,25,1,Screen 1,continueButton,response_rating_scale_likert_active,2687.399999976158,NA,NA,Somewhat Disagree,1,0,1,0,NA,NA,NA,NA,1,statements,We would like to check you are reading each argument carefully. Please select 'Somewhat Disagree' for this answer,1,NA,NA,NA,NA,NA,NA,NA,NA,NA,NA,NA,NA,check2,NA,NA
28,1659975875833,08/08/2022 16:24:35,1659975875771,1,08/08/2022 17:24:35,94826,3,task-mn1e,NA,23527523,6895757,NA,complete,NA,62f13824c8d1eda6d6e44a57,computer,Desktop or Laptop,Windows 10,Chrome 103.0.5060.114,1920x1080,1920x937,NA,ITT Ratings,2,for,4,NA,NA,ACCEPT,NA,NA,NA,NA,NA,NA,NA,batch4pro,batch4pro,41,26,1,Screen 1,continueButton,response_rating_scale_likert_active,3765.400000005961,NA,NA,Disagree,1,0,1,0,NA,NA,NA,NA,1,statements,I am worried about the side effevts,1,17/06/2021 12:45,17/06/2021 12:54,IP Address,For (I feel positively about the vaccines),Rarely,Rarely,30,Female,NA,"Undergraduate degree (BSc, BA)",choice,37,2,For,Against
29,1659975877697,08/08/2022 16:24:37,1659975877451,1,08/08/2022 17:24:37,94826,3,task-mn1e,NA,23527523,6895757,NA,complete,NA,62f13824c8d1eda6d6e44a57,computer,Desktop or Laptop,Windows 10,Chrome 103.0.5060.114,1920x1080,1920x937,NA,ITT Ratings,2,for,4,NA,NA,ACCEPT,NA,NA,NA,NA,NA,NA,NA,batch4pro,batch4pro,24,27,1,Screen 1,continueButton,response_rating_scale_likert_active,1670.0999999940395,NA,NA,Agree,1,0,1,0,NA,NA,NA,NA,1,statements,Allow us to get back to normal life,1,17/06/2021 12:45,17/06/2021 12:53,IP Address,For (I feel positively about the vaccines),Rarely,Rarely,38,Male,NA,"Undergraduate degree (BSc, BA)",choice,34,3,For,Against
30,1659975879048,08/08/2022 16:24:39,1659975878991,1,08/08/2022 17:24:38,94826,3,task-mn1e,NA,23527523,6895757,NA,complete,NA,62f13824c8d1eda6d6e44a57,computer,Desktop or Laptop,Windows 10,Chrome 103.0.5060.114,1920x1080,1920x937,NA,ITT Ratings,2,for,4,NA,NA,ACCEPT,NA,NA,NA,NA,NA,NA,NA,batch4pro,batch4pro,19,28,1,Screen 1,continueButton,response_rating_scale_likert_active,1529.4000000059605,NA,NA,Strongly Agree,1,0,1,0,NA,NA,NA,NA,1,statements,To be safe and healthy,1,17/06/2021 12:41,17/06/2021 12:53,IP Address,For (I feel positively about the vaccines),Rarely,Rarely,45,Female,NA,"Undergraduate degree (BSc, BA)",choice,33,1,For,For
31,1659975884122,08/08/2022 16:24:44,1659975884080,1,08/08/2022 17:24:44,94826,3,task-mn1e,NA,23527523,6895757,NA,complete,NA,62f13824c8d1eda6d6e44a57,computer,Desktop or Laptop,Windows 10,Chrome 103.0.5060.114,1920x1080,1920x937,NA,ITT Ratings,2,for,4,NA,NA,ACCEPT,NA,NA,NA,NA,NA,NA,NA,batch4pro,batch4pro,29,29,1,Screen 1,continueButton,response_rating_scale_likert_active,5078.299999982119,NA,NA,Somewhat Disagree,1,0,1,0,NA,NA,NA,NA,1,statements,We don't know the long term effects,1,17/06/2021 12:45,17/06/2021 12:53,IP Address,For (I feel positively about the vaccines),Rarely,Once or twice a year,30,Female,NA,"Undergraduate degree (BSc, BA)",choice,35,2,For,Against
32,1659975885602,08/08/2022 16:24:45,1659975885546,1,08/08/2022 17:24:45,94826,3,task-mn1e,NA,23527523,6895757,NA,complete,NA,62f13824c8d1eda6d6e44a57,computer,Desktop or Laptop,Windows 10,Chrome 103.0.5060.114,1920x1080,1920x937,NA,ITT Ratings,2,for,4,NA,NA,ACCEPT,NA,NA,NA,NA,NA,NA,NA,batch4pro,batch4pro,50,30,1,Screen 1,continueButton,response_rating_scale_likert_active,1456.9000000059605,NA,NA,Strongly Agree,1,0,1,0,NA,NA,NA,NA,1,statements,to help try and save lives,1,17/06/2021 12:49,17/06/2021 12:54,IP Address,For (I feel positively about the vaccines),Rarely,Once or twice a year,20,Female,NA,Vocational Training / Apprenticeship,control,38,2,For,For
33,1659975887966,08/08/2022 16:24:47,1659975887884,1,08/08/2022 17:24:47,94826,3,task-mn1e,NA,23527523,6895757,NA,complete,NA,62f13824c8d1eda6d6e44a57,computer,Desktop or Laptop,Windows 10,Chrome 103.0.5060.114,1920x1080,1920x937,NA,ITT Ratings,2,for,4,NA,NA,ACCEPT,NA,NA,NA,NA,NA,NA,NA,batch4pro,batch4pro,45,31,1,Screen 1,continueButton,response_rating_scale_likert_active,2328.399999976158,NA,NA,Agree,1,0,1,0,NA,NA,NA,NA,1,statements,So they don't die from it,1,17/06/2021 12:45,17/06/2021 12:54,IP Address,For (I feel positively about the vaccines),Rarely,Rarely,30,Female,NA,"Undergraduate degree (BSc, BA)",choice,37,3,For,For
34,1659975890926,08/08/2022 16:24:50,1659975890871,1,08/08/2022 17:24:50,94826,3,task-mn1e,NA,23527523,6895757,NA,complete,NA,62f13824c8d1eda6d6e44a57,computer,Desktop or Laptop,Windows 10,Chrome 103.0.5060.114,1920x1080,1920x937,NA,ITT Ratings,2,for,4,NA,NA,ACCEPT,NA,NA,NA,NA,NA,NA,NA,batch4pro,batch4pro,12,32,1,Screen 1,continueButton,response_rating_scale_likert_active,2974.199999988079,NA,NA,Disagree,1,0,1,0,NA,NA,NA,NA,1,statements,I might get covid anyway so what's the point,1,17/06/2021 12:43,17/06/2021 12:52,IP Address,For (I feel positively about the vaccines),Rarely,Most weeks,25,Female,NA,"Postgraduate degree (MSc, MA, MPhil)",choice,32,3,For,Against
35,1659975892875,08/08/2022 16:24:52,1659975892831,1,08/08/2022 17:24:52,94826,3,task-mn1e,NA,23527523,6895757,NA,complete,NA,62f13824c8d1eda6d6e44a57,computer,Desktop or Laptop,Windows 10,Chrome 103.0.5060.114,1920x1080,1920x937,NA,ITT Ratings,2,for,4,NA,NA,ACCEPT,NA,NA,NA,NA,NA,NA,NA,batch4pro,batch4pro,56,33,1,Screen 1,continueButton,response_rating_scale_likert_active,1951.800000011921,NA,NA,Agree,1,0,1,0,NA,NA,NA,NA,1,statements,"I want to protect myself, my friends and my family",1,17/06/2021 12:47,17/06/2021 12:54,IP Address,For (I feel positively about the vaccines),Rarely,A few times a year,31,Female,NA,"Postgraduate degree (MSc, MA, MPhil)",choice,39,2,For,For
36,1659975894039,08/08/2022 16:24:54,1659975893963,1,08/08/2022 17:24:53,94826,3,task-mn1e,NA,23527523,6895757,NA,complete,NA,62f13824c8d1eda6d6e44a57,computer,Desktop or Laptop,Windows 10,Chrome 103.0.5060.114,1920x1080,1920x937,NA,ITT Ratings,2,for,4,NA,NA,ACCEPT,NA,NA,NA,NA,NA,NA,NA,batch4pro,batch4pro,22,34,1,Screen 1,continueButton,response_rating_scale_likert_active,1123,NA,NA,Strongly Agree,1,0,1,0,NA,NA,NA,NA,1,statements,Protection for yourself,1,17/06/2021 12:45,17/06/2021 12:53,IP Address,For (I feel positively about the vaccines),Rarely,Rarely,38,Male,NA,"Undergraduate degree (BSc, BA)",choice,34,1,For,Against
37,1659975898520,08/08/2022 16:24:58,1659975898492,1,08/08/2022 17:24:58,94826,3,task-mn1e,NA,23527523,6895757,NA,complete,NA,62f13824c8d1eda6d6e44a57,computer,Desktop or Laptop,Windows 10,Chrome 103.0.5060.114,1920x1080,1920x937,NA,ITT Ratings,2,for,4,NA,NA,ACCEPT,NA,NA,NA,NA,NA,NA,NA,batch4pro,batch4pro,8,35,1,Screen 1,continueButton,response_rating_scale_likert_active,4520,NA,NA,Strongly Agree,1,0,1,0,NA,NA,NA,NA,1,statements,It helps me to protect myself and others from becoming seriously ill.,1,17/06/2021 12:43,17/06/2021 12:52,IP Address,For (I feel positively about the vaccines),Rarely,Rarely,34,Male,NA,Doctorate (PhD),control,31,2,For,For
38,1659975901467,08/08/2022 16:25:01,1659975901414,1,08/08/2022 17:25:01,94826,3,task-mn1e,NA,23527523,6895757,NA,complete,NA,62f13824c8d1eda6d6e44a57,computer,Desktop or Laptop,Windows 10,Chrome 103.0.5060.114,1920x1080,1920x937,NA,ITT Ratings,2,for,4,NA,NA,ACCEPT,NA,NA,NA,NA,NA,NA,NA,batch4pro,batch4pro,36,36,1,Screen 1,continueButton,response_rating_scale_likert_active,2912.699999988079,NA,NA,Strongly Disagree,1,0,1,0,NA,NA,NA,NA,1,statements,They think Covid-19 is a media hoax,1,17/06/2021 12:46,17/06/2021 12:53,IP Address,For (I feel positively about the vaccines),Rarely,Most weeks,22,Non-binary,NA,"Undergraduate degree (BSc, BA)",control,36,3,For,Against
39,1659975907459,08/08/2022 16:25:07,1659975907405,1,08/08/2022 17:25:07,94826,3,task-mn1e,NA,23527523,6895757,NA,complete,NA,62f13824c8d1eda6d6e44a57,computer,Desktop or Laptop,Windows 10,Chrome 103.0.5060.114,1920x1080,1920x937,NA,ITT Ratings,2,for,4,NA,NA,ACCEPT,NA,NA,NA,NA,NA,NA,NA,batch4pro,batch4pro,20,37,1,Screen 1,continueButton,response_rating_scale_likert_active,5980.100000023842,NA,NA,Strongly Agree,1,0,1,0,NA,NA,NA,NA,1,statements,To get back to a sense of normality.,1,17/06/2021 12:41,17/06/2021 12:53,IP Address,For (I feel positively about the vaccines),Rarely,Rarely,45,Female,NA,"Undergraduate degree (BSc, BA)",choice,33,2,For,For
40,1659975909292,08/08/2022 16:25:09,1659975909239,1,08/08/2022 17:25:09,94826,3,task-mn1e,NA,23527523,6895757,NA,complete,NA,62f13824c8d1eda6d6e44a57,computer,Desktop or Laptop,Windows 10,Chrome 103.0.5060.114,1920x1080,1920x937,NA,ITT Ratings,2,for,4,NA,NA,ACCEPT,NA,NA,NA,NA,NA,NA,NA,batch4pro,batch4pro,62,38,1,Screen 1,continueButton,response_rating_scale_likert_active,1825.2999999821184,NA,NA,Strongly Agree,1,0,1,0,NA,NA,NA,NA,1,statements,"I wish to protect other people including family, friends and colleagues",1,17/06/2021 12:46,17/06/2021 12:54,IP Address,For (I feel positively about the vaccines),Once or twice a year,Once or twice a year,38,Female,NA,"Undergraduate degree (BSc, BA)",control,40,2,For,For
41,1659975911408,08/08/2022 16:25:11,1659975911309,1,08/08/2022 17:25:11,94826,3,task-mn1e,NA,23527523,6895757,NA,complete,NA,62f13824c8d1eda6d6e44a57,computer,Desktop or Laptop,Windows 10,Chrome 103.0.5060.114,1920x1080,1920x937,NA,ITT Ratings,2,for,4,NA,NA,ACCEPT,NA,NA,NA,NA,NA,NA,NA,batch4pro,batch4pro,52,39,1,Screen 1,continueButton,response_rating_scale_likert_active,2061.5999999940395,NA,NA,Strongly Disagree,1,0,1,0,NA,NA,NA,NA,1,statements,It's unsafe - not had enough time to develop safely,1,17/06/2021 12:47,17/06/2021 12:54,IP Address,For (I feel positively about the vaccines),Rarely,A few times a year,31,Female,NA,"Postgraduate degree (MSc, MA, MPhil)",choice,39,1,For,Against
42,1659975918242,08/08/2022 16:25:18,1659975918200,1,08/08/2022 17:25:18,94826,3,task-mn1e,NA,23527523,6895757,NA,complete,NA,62f13824c8d1eda6d6e44a57,computer,Desktop or Laptop,Windows 10,Chrome 103.0.5060.114,1920x1080,1920x937,NA,ITT Ratings,2,for,4,NA,NA,ACCEPT,NA,NA,NA,NA,NA,NA,NA,batch4pro,batch4pro,21,40,1,Screen 1,continueButton,response_rating_scale_likert_active,6827.5,NA,NA,Agree,1,0,1,0,NA,NA,NA,NA,1,statements,They don’t want the potential worry of getting COVID.,1,17/06/2021 12:41,17/06/2021 12:53,IP Address,For (I feel positively about the vaccines),Rarely,Rarely,45,Female,NA,"Undergraduate degree (BSc, BA)",choice,33,3,For,For
43,1659975921951,08/08/2022 16:25:21,1659975921903,1,08/08/2022 17:25:21,94826,3,task-mn1e,NA,23527523,6895757,NA,complete,NA,62f13824c8d1eda6d6e44a57,computer,Desktop or Laptop,Windows 10,Chrome 103.0.5060.114,1920x1080,1920x937,NA,ITT Ratings,2,for,4,NA,NA,ACCEPT,NA,NA,NA,NA,NA,NA,NA,batch4pro,batch4pro,60,41,1,Screen 1,continueButton,response_rating_scale_likert_active,3692.5,NA,NA,Somewhat Agree,1,0,1,0,NA,NA,NA,NA,1,statements,There are issues around blood clots and fertility,1,17/06/2021 12:46,17/06/2021 12:54,IP Address,For (I feel positively about the vaccines),Once or twice a year,Once or twice a year,38,Female,NA,"Undergraduate degree (BSc, BA)",control,40,3,For,Against
44,1659975923557,08/08/2022 16:25:23,1659975923501,1,08/08/2022 17:25:23,94826,3,task-mn1e,NA,23527523,6895757,NA,complete,NA,62f13824c8d1eda6d6e44a57,computer,Desktop or Laptop,Windows 10,Chrome 103.0.5060.114,1920x1080,1920x937,NA,ITT Ratings,2,for,4,NA,NA,ACCEPT,NA,NA,NA,NA,NA,NA,NA,batch4pro,batch4pro,63,42,1,Screen 1,continueButton,response_rating_scale_likert_active,1587.699999988079,NA,NA,Strongly Agree,1,0,1,0,NA,NA,NA,NA,1,statements,I trust the scientists/science,1,17/06/2021 12:46,17/06/2021 12:54,IP Address,For (I feel positively about the vaccines),Once or twice a year,Once or twice a year,38,Female,NA,"Undergraduate degree (BSc, BA)",control,40,3,For,For
45,1659975926124,08/08/2022 16:25:26,1659975926047,1,08/08/2022 17:25:26,94826,3,task-mn1e,NA,23527523,6895757,NA,complete,NA,62f13824c8d1eda6d6e44a57,computer,Desktop or Laptop,Windows 10,Chrome 103.0.5060.114,1920x1080,1920x937,NA,ITT Ratings,2,for,4,NA,NA,ACCEPT,NA,NA,NA,NA,NA,NA,NA,batch4pro,batch4pro,47,43,1,Screen 1,continueButton,response_rating_scale_likert_active,2537.800000011921,NA,NA,Strongly Agree,1,0,1,0,NA,NA,NA,NA,1,statements,Will make the world go back to some sort of normal,1,17/06/2021 12:49,17/06/2021 12:54,IP Address,For (I feel positively about the vaccines),Rarely,Once or twice a year,20,Female,NA,Vocational Training / Apprenticeship,control,38,2,For,Against
46,1659975927762,08/08/2022 16:25:27,1659975927694,1,08/08/2022 17:25:27,94826,3,task-mn1e,NA,23527523,6895757,NA,complete,NA,62f13824c8d1eda6d6e44a57,computer,Desktop or Laptop,Windows 10,Chrome 103.0.5060.114,1920x1080,1920x937,NA,ITT Ratings,2,for,4,NA,NA,ACCEPT,NA,NA,NA,NA,NA,NA,NA,batch4pro,batch4pro,44,44,1,Screen 1,continueButton,response_rating_scale_likert_active,1636.5,NA,NA,Strongly Agree,1,0,1,0,NA,NA,NA,NA,1,statements,To stop me becoming unwell with it,1,17/06/2021 12:45,17/06/2021 12:54,IP Address,For (I feel positively about the vaccines),Rarely,Rarely,30,Female,NA,"Undergraduate degree (BSc, BA)",choice,37,2,For,For
47,1659975930032,08/08/2022 16:25:30,1659975929998,1,08/08/2022 17:25:29,94826,3,task-mn1e,NA,23527523,6895757,NA,complete,NA,62f13824c8d1eda6d6e44a57,computer,Desktop or Laptop,Windows 10,Chrome 103.0.5060.114,1920x1080,1920x937,NA,ITT Ratings,2,for,4,NA,NA,ACCEPT,NA,NA,NA,NA,NA,NA,NA,batch4pro,batch4pro,13,45,1,Screen 1,continueButton,response_rating_scale_likert_active,2295.199999988079,NA,NA,Strongly Agree,1,0,1,0,NA,NA,NA,NA,1,statements,Vaccines have been going on for years so they are good to protect us,1,17/06/2021 12:43,17/06/2021 12:52,IP Address,For (I feel positively about the vaccines),Rarely,Most weeks,25,Female,NA,"Postgraduate degree (MSc, MA, MPhil)",choice,32,1,For,For
48,1659975932083,08/08/2022 16:25:32,1659975932022,1,08/08/2022 17:25:32,94826,3,task-mn1e,NA,23527523,6895757,NA,complete,NA,62f13824c8d1eda6d6e44a57,computer,Desktop or Laptop,Windows 10,Chrome 103.0.5060.114,1920x1080,1920x937,NA,ITT Ratings,2,for,4,NA,NA,ACCEPT,NA,NA,NA,NA,NA,NA,NA,batch4pro,batch4pro,17,46,1,Screen 1,continueButton,response_rating_scale_likert_active,2015.0999999940395,NA,NA,Strongly Disagree,1,0,1,0,NA,NA,NA,NA,1,statements,We don't know what's in it,1,17/06/2021 12:41,17/06/2021 12:53,IP Address,For (I feel positively about the vaccines),Rarely,Rarely,45,Female,NA,"Undergraduate degree (BSc, BA)",choice,33,2,For,Against
49,1659975935756,08/08/2022 16:25:35,1659975935693,1,08/08/2022 17:25:35,94826,3,task-mn1e,NA,23527523,6895757,NA,complete,NA,62f13824c8d1eda6d6e44a57,computer,Desktop or Laptop,Windows 10,Chrome 103.0.5060.114,1920x1080,1920x937,NA,ITT Ratings,2,for,4,NA,NA,ACCEPT,NA,NA,NA,NA,NA,NA,NA,batch4pro,batch4pro,15,47,1,Screen 1,continueButton,response_rating_scale_likert_active,3659.900000005961,NA,NA,Somewhat Agree,1,0,1,0,NA,NA,NA,NA,1,statements,For life to return to normal you need the vaccine,1,17/06/2021 12:43,17/06/2021 12:52,IP Address,For (I feel positively about the vaccines),Rarely,Most weeks,25,Female,NA,"Postgraduate degree (MSc, MA, MPhil)",choice,32,3,For,For
50,1659975937808,08/08/2022 16:25:37,1659975937733,1,08/08/2022 17:25:37,94826,3,task-mn1e,NA,23527523,6895757,NA,complete,NA,62f13824c8d1eda6d6e44a57,computer,Desktop or Laptop,Windows 10,Chrome 103.0.5060.114,1920x1080,1920x937,NA,ITT Ratings,2,for,4,NA,NA,ACCEPT,NA,NA,NA,NA,NA,NA,NA,batch4pro,batch4pro,58,48,1,Screen 1,continueButton,response_rating_scale_likert_active,2030.800000011921,NA,NA,Disagree,1,0,1,0,NA,NA,NA,NA,1,statements,Scientists have developed it too quickly,1,17/06/2021 12:46,17/06/2021 12:54,IP Address,For (I feel positively about the vaccines),Once or twice a year,Once or twice a year,38,Female,NA,"Undergraduate degree (BSc, BA)",control,40,1,For,Against
51,1659975939251,08/08/2022 16:25:39,1659975939207,1,08/08/2022 17:25:39,94826,3,task-mn1e,NA,23527523,6895757,NA,complete,NA,62f13824c8d1eda6d6e44a57,computer,Desktop or Laptop,Windows 10,Chrome 103.0.5060.114,1920x1080,1920x937,NA,ITT Ratings,2,for,4,NA,NA,ACCEPT,NA,NA,NA,NA,NA,NA,NA,batch4pro,batch4pro,55,49,1,Screen 1,continueButton,response_rating_scale_likert_active,1464.7999999821186,NA,NA,Strongly Agree,1,0,1,0,NA,NA,NA,NA,1,statements,We need to get back to normal life,1,17/06/2021 12:47,17/06/2021 12:54,IP Address,For (I feel positively about the vaccines),Rarely,A few times a year,31,Female,NA,"Postgraduate degree (MSc, MA, MPhil)",choice,39,1,For,For
52,1659975941554,08/08/2022 16:25:41,1659975941494,1,08/08/2022 17:25:41,94826,3,task-mn1e,NA,23527523,6895757,NA,complete,NA,62f13824c8d1eda6d6e44a57,computer,Desktop or Laptop,Windows 10,Chrome 103.0.5060.114,1920x1080,1920x937,NA,ITT Ratings,2,for,4,NA,NA,ACCEPT,NA,NA,NA,NA,NA,NA,NA,batch4pro,batch4pro,4,50,1,Screen 1,continueButton,response_rating_scale_likert_active,2278.100000023842,NA,NA,Somewhat Disagree,1,0,1,0,NA,NA,NA,NA,1,statements,We don't know what the long term impact or effects are yet,1,17/06/2021 12:43,17/06/2021 12:52,IP Address,For (I feel positively about the vaccines),Rarely,Rarely,34,Male,NA,Doctorate (PhD),control,31,1,For,Against
53,1659975944181,08/08/2022 16:25:44,1659975944111,1,08/08/2022 17:25:44,94826,3,task-mn1e,NA,23527523,6895757,NA,complete,NA,62f13824c8d1eda6d6e44a57,computer,Desktop or Laptop,Windows 10,Chrome 103.0.5060.114,1920x1080,1920x937,NA,ITT Ratings,2,for,4,NA,NA,ACCEPT,NA,NA,NA,NA,NA,NA,NA,batch4pro,batch4pro,11,51,1,Screen 1,continueButton,response_rating_scale_likert_active,2608.600000023842,NA,NA,Strongly Disagree,1,0,1,0,NA,NA,NA,NA,1,statements,The vaccine puts a chip in you so you can be tracked,1,17/06/2021 12:43,17/06/2021 12:52,IP Address,For (I feel positively about the vaccines),Rarely,Most weeks,25,Female,NA,"Postgraduate degree (MSc, MA, MPhil)",choice,32,2,For,Against
54,1659975945961,08/08/2022 16:25:45,1659975945912,1,08/08/2022 17:25:45,94826,3,task-mn1e,NA,23527523,6895757,NA,complete,NA,62f13824c8d1eda6d6e44a57,computer,Desktop or Laptop,Windows 10,Chrome 103.0.5060.114,1920x1080,1920x937,NA,ITT Ratings,2,for,4,NA,NA,ACCEPT,NA,NA,NA,NA,NA,NA,NA,batch4pro,batch4pro,23,52,1,Screen 1,continueButton,response_rating_scale_likert_active,1791.699999988079,NA,NA,Strongly Agree,1,0,1,0,NA,NA,NA,NA,1,statements,Protection for others,1,17/06/2021 12:45,17/06/2021 12:53,IP Address,For (I feel positively about the vaccines),Rarely,Rarely,38,Male,NA,"Undergraduate degree (BSc, BA)",choice,34,2,For,Against
55,1659975947956,08/08/2022 16:25:47,1659975947866,1,08/08/2022 17:25:47,94826,3,task-mn1e,NA,23527523,6895757,NA,complete,NA,62f13824c8d1eda6d6e44a57,computer,Desktop or Laptop,Windows 10,Chrome 103.0.5060.114,1920x1080,1920x937,NA,ITT Ratings,2,for,4,NA,NA,ACCEPT,NA,NA,NA,NA,NA,NA,NA,batch4pro,batch4pro,33,53,1,Screen 1,continueButton,response_rating_scale_likert_active,1946.2000000178816,NA,NA,Strongly Agree,1,0,1,0,NA,NA,NA,NA,1,statements,I trust those who have made the vaccine,1,17/06/2021 12:45,17/06/2021 12:53,IP Address,For (I feel positively about the vaccines),Rarely,Once or twice a year,30,Female,NA,"Undergraduate degree (BSc, BA)",choice,35,3,For,For
56,1659975948917,08/08/2022 16:25:48,1659975948846,1,08/08/2022 17:25:48,94826,3,task-mn1e,NA,23527523,6895757,NA,complete,NA,62f13824c8d1eda6d6e44a57,computer,Desktop or Laptop,Windows 10,Chrome 103.0.5060.114,1920x1080,1920x937,NA,ITT Ratings,2,for,4,NA,NA,ACCEPT,NA,NA,NA,NA,NA,NA,NA,batch4pro,batch4pro,43,54,1,Screen 1,continueButton,response_rating_scale_likert_active,971.5999999940396,NA,NA,Strongly Agree,1,0,1,0,NA,NA,NA,NA,1,statements,To protect my family and friends,1,17/06/2021 12:45,17/06/2021 12:54,IP Address,For (I feel positively about the vaccines),Rarely,Rarely,30,Female,NA,"Undergraduate degree (BSc, BA)",choice,37,1,For,For
57,1659975953654,08/08/2022 16:25:53,1659975953537,1,08/08/2022 17:25:53,94826,3,task-mn1e,NA,23527523,6895757,NA,complete,NA,62f13824c8d1eda6d6e44a57,computer,Desktop or Laptop,Windows 10,Chrome 103.0.5060.114,1920x1080,1920x937,NA,ITT Ratings,2,for,4,NA,NA,ACCEPT,NA,NA,NA,NA,NA,NA,NA,batch4pro,batch4pro,27,55,1,Screen 1,continueButton,response_rating_scale_likert_active,4679.5,NA,NA,Strongly Agree,1,0,1,0,NA,NA,NA,NA,1,statements,The ability to end lockdown and restart the economy fully in turn giving us all the freedom we have been used to. By not having the vaccine the chances of leaving lockdown and having a normal reduce,1,17/06/2021 12:45,17/06/2021 12:53,IP Address,For (I feel positively about the vaccines),Rarely,Rarely,38,Male,NA,"Undergraduate degree (BSc, BA)",choice,34,3,For,For
58,1659975955241,08/08/2022 16:25:55,1659975955179,1,08/08/2022 17:25:55,94826,3,task-mn1e,NA,23527523,6895757,NA,complete,NA,62f13824c8d1eda6d6e44a57,computer,Desktop or Laptop,Windows 10,Chrome 103.0.5060.114,1920x1080,1920x937,NA,ITT Ratings,2,for,4,NA,NA,ACCEPT,NA,NA,NA,NA,NA,NA,NA,batch4pro,batch4pro,46,56,1,Screen 1,continueButton,response_rating_scale_likert_active,1632.600000023842,NA,NA,Strongly Agree,1,0,1,0,NA,NA,NA,NA,1,statements,Can help prevent you getting it,1,17/06/2021 12:49,17/06/2021 12:54,IP Address,For (I feel positively about the vaccines),Rarely,Once or twice a year,20,Female,NA,Vocational Training / Apprenticeship,control,38,1,For,Against
59,1659975957560,08/08/2022 16:25:57,1659975957507,1,08/08/2022 17:25:57,94826,3,task-mn1e,NA,23527523,6895757,NA,complete,NA,62f13824c8d1eda6d6e44a57,computer,Desktop or Laptop,Windows 10,Chrome 103.0.5060.114,1920x1080,1920x937,NA,ITT Ratings,2,for,4,NA,NA,ACCEPT,NA,NA,NA,NA,NA,NA,NA,batch4pro,batch4pro,42,57,1,Screen 1,continueButton,response_rating_scale_likert_active,2320.2999999821186,NA,NA,Neither Agree nor Disagree,1,0,1,0,NA,NA,NA,NA,1,statements,Scared of needles and injections,1,17/06/2021 12:45,17/06/2021 12:54,IP Address,For (I feel positively about the vaccines),Rarely,Rarely,30,Female,NA,"Undergraduate degree (BSc, BA)",choice,37,3,For,Against
60,1659975959254,08/08/2022 16:25:59,1659975959204,1,08/08/2022 17:25:59,94826,3,task-mn1e,NA,23527523,6895757,NA,complete,NA,62f13824c8d1eda6d6e44a57,computer,Desktop or Laptop,Windows 10,Chrome 103.0.5060.114,1920x1080,1920x937,NA,ITT Ratings,2,for,4,NA,NA,ACCEPT,NA,NA,NA,NA,NA,NA,NA,batch4pro,batch4pro,31,58,1,Screen 1,continueButton,response_rating_scale_likert_active,1687,NA,NA,Strongly Agree,1,0,1,0,NA,NA,NA,NA,1,statements,I want to be well protected,1,17/06/2021 12:45,17/06/2021 12:53,IP Address,For (I feel positively about the vaccines),Rarely,Once or twice a year,30,Female,NA,"Undergraduate degree (BSc, BA)",choice,35,1,For,For
61,1659975961165,08/08/2022 16:26:01,1659975961104,1,08/08/2022 17:26:01,94826,3,task-mn1e,NA,23527523,6895757,NA,complete,NA,62f13824c8d1eda6d6e44a57,computer,Desktop or Laptop,Windows 10,Chrome 103.0.5060.114,1920x1080,1920x937,NA,ITT Ratings,2,for,4,NA,NA,ACCEPT,NA,NA,NA,NA,NA,NA,NA,batch4pro,batch4pro,57,59,1,Screen 1,continueButton,response_rating_scale_likert_active,1891.0999999940395,NA,NA,Strongly Agree,1,0,1,0,NA,NA,NA,NA,1,statements,It's the safest option rather than catching the virus,1,17/06/2021 12:47,17/06/2021 12:54,IP Address,For (I feel positively about the vaccines),Rarely,A few times a year,31,Female,NA,"Postgraduate degree (MSc, MA, MPhil)",choice,39,3,For,For
62,1659975966161,08/08/2022 16:26:06,1659975966129,1,08/08/2022 17:26:06,94826,3,task-mn1e,NA,23527523,6895757,NA,complete,NA,62f13824c8d1eda6d6e44a57,computer,Desktop or Laptop,Windows 10,Chrome 103.0.5060.114,1920x1080,1920x937,NA,ITT Ratings,2,for,4,NA,NA,ACCEPT,NA,NA,NA,NA,NA,NA,NA,batch4pro,batch4pro,10,60,1,Screen 1,continueButton,response_rating_scale_likert_active,5016.799999982119,NA,NA,Disagree,1,0,1,0,NA,NA,NA,NA,1,statements,The has not been enough time to test the vaccine to ensure its not harmful,1,17/06/2021 12:43,17/06/2021 12:52,IP Address,For (I feel positively about the vaccines),Rarely,Most weeks,25,Female,NA,"Postgraduate degree (MSc, MA, MPhil)",choice,32,1,For,Against
63,1659975969445,08/08/2022 16:26:09,1659975969387,1,08/08/2022 17:26:09,94826,3,task-mn1e,NA,23527523,6895757,NA,complete,NA,62f13824c8d1eda6d6e44a57,computer,Desktop or Laptop,Windows 10,Chrome 103.0.5060.114,1920x1080,1920x937,NA,ITT Ratings,2,for,4,NA,NA,ACCEPT,NA,NA,NA,NA,NA,NA,NA,batch4pro,batch4pro,53,61,1,Screen 1,continueButton,response_rating_scale_likert_active,3249.199999988079,NA,NA,Strongly Disagree,1,0,1,0,NA,NA,NA,NA,1,statements,It's unnecessary - Covid won’t make me very unwell,1,17/06/2021 12:47,17/06/2021 12:54,IP Address,For (I feel positively about the vaccines),Rarely,A few times a year,31,Female,NA,"Postgraduate degree (MSc, MA, MPhil)",choice,39,2,For,Against
64,1659975971152,08/08/2022 16:26:11,1659975971096,1,08/08/2022 17:26:11,94826,3,task-mn1e,NA,23527523,6895757,NA,complete,NA,62f13824c8d1eda6d6e44a57,computer,Desktop or Laptop,Windows 10,Chrome 103.0.5060.114,1920x1080,1920x937,NA,ITT Ratings,2,for,4,NA,NA,ACCEPT,NA,NA,NA,NA,NA,NA,NA,batch4pro,batch4pro,51,62,1,Screen 1,continueButton,response_rating_scale_likert_active,1699.2999999821186,NA,NA,Strongly Agree,1,0,1,0,NA,NA,NA,NA,1,statements,to help protect the nhs so they are not too busy,1,17/06/2021 12:49,17/06/2021 12:54,IP Address,For (I feel positively about the vaccines),Rarely,Once or twice a year,20,Female,NA,Vocational Training / Apprenticeship,control,38,3,For,For
65,1659975971275,08/08/2022 16:26:11,1659975971100,1,08/08/2022 17:26:11,94826,3,task-mn1e,NA,23527523,6895757,NA,complete,NA,62f13824c8d1eda6d6e44a57,computer,Desktop or Laptop,Windows 10,Chrome 103.0.5060.114,1920x1080,1920x937,NA,ITT Ratings,2,for,4,NA,NA,ACCEPT,NA,NA,NA,NA,NA,NA,NA,batch4pro,NA,NA,END TASK,NA,NA,NA,NA,220179,NA,NA,NA,NA,0,1,0,NA,NA,NA,NA,NA,NA,NA,NA,NA,NA,NA,NA,NA,NA,NA,NA,NA,NA,NA,NA,NA,NA,NA
1,1659975810076,08/08/2022 16:23:30,1659975810009,1,08/08/2022 17:23:30,94826,3,task-mn1e,NA,23527554,6895766,NA,complete,NA,62f138605c0756d38d6b0789,computer,Desktop or Laptop,Windows 10,Chrome 103.0.0.0,1536x864,1536x721,NA,ITT Ratings,2,for,4,NA,NA,ACCEPT,NA,NA,NA,NA,NA,NA,NA,batch4pro,NA,NA,BEGIN TASK,NA,NA,NA,NA,NA,NA,NA,NA,NA,0,1,0,NA,NA,NA,NA,NA,NA,NA,NA,NA,NA,NA,NA,NA,NA,NA,NA,NA,NA,NA,NA,NA,NA,NA
2,1659975817554,08/08/2022 16:23:37,1659975817519,1,08/08/2022 17:23:37,94826,3,task-mn1e,NA,23527554,6895766,NA,complete,NA,62f138605c0756d38d6b0789,computer,Desktop or Laptop,Windows 10,Chrome 103.0.0.0,1536x864,1536x721,NA,ITT Ratings,2,for,4,NA,NA,ACCEPT,NA,NA,NA,NA,NA,NA,NA,batch4pro,batch4pro,1,1,1,Screen 1,advancementZone,continue_button,7472,NA,NA,NA,NA,0,1,0,NA,NA,NA,NA,NA,instructions,NA,NA,NA,NA,NA,NA,NA,NA,NA,NA,NA,NA,NA,NA,NA,NA,NA
3,1659975820812,08/08/2022 16:23:40,1659975820782,1,08/08/2022 17:23:40,94826,3,task-mn1e,NA,23527554,6895766,NA,complete,NA,62f138605c0756d38d6b0789,computer,Desktop or Laptop,Windows 10,Chrome 103.0.0.0,1536x864,1536x721,NA,ITT Ratings,2,for,4,NA,NA,ACCEPT,NA,NA,NA,NA,NA,NA,NA,batch4pro,batch4pro,55,1,1,Screen 1,continueButton,response_rating_scale_likert_active,3243.199999988079,NA,NA,Somewhat Agree,1,0,1,0,NA,NA,NA,NA,1,statements,We need to get back to normal life,1,17/06/2021 12:47,17/06/2021 12:54,IP Address,For (I feel positively about the vaccines),Rarely,A few times a year,31,Female,NA,"Postgraduate degree (MSc, MA, MPhil)",choice,39,1,For,For
4,1659975823123,08/08/2022 16:23:43,1659975823105,1,08/08/2022 17:23:43,94826,3,task-mn1e,NA,23527554,6895766,NA,complete,NA,62f138605c0756d38d6b0789,computer,Desktop or Laptop,Windows 10,Chrome 103.0.0.0,1536x864,1536x721,NA,ITT Ratings,2,for,4,NA,NA,ACCEPT,NA,NA,NA,NA,NA,NA,NA,batch4pro,batch4pro,48,2,1,Screen 1,continueButton,response_rating_scale_likert_active,2300.199999988079,NA,NA,Somewhat Agree,1,0,1,0,NA,NA,NA,NA,1,statements,You will most likely need it to travel,1,17/06/2021 12:49,17/06/2021 12:54,IP Address,For (I feel positively about the vaccines),Rarely,Once or twice a year,20,Female,NA,Vocational Training / Apprenticeship,control,38,3,For,Against
5,1659975825827,08/08/2022 16:23:45,1659975825779,1,08/08/2022 17:23:45,94826,3,task-mn1e,NA,23527554,6895766,NA,complete,NA,62f138605c0756d38d6b0789,computer,Desktop or Laptop,Windows 10,Chrome 103.0.0.0,1536x864,1536x721,NA,ITT Ratings,2,for,4,NA,NA,ACCEPT,NA,NA,NA,NA,NA,NA,NA,batch4pro,batch4pro,33,3,1,Screen 1,continueButton,response_rating_scale_likert_active,2662.5999999940395,NA,NA,Neither Agree nor Disagree,1,0,1,0,NA,NA,NA,NA,1,statements,I trust those who have made the vaccine,1,17/06/2021 12:45,17/06/2021 12:53,IP Address,For (I feel positively about the vaccines),Rarely,Once or twice a year,30,Female,NA,"Undergraduate degree (BSc, BA)",choice,35,3,For,For
6,1659975840775,08/08/2022 16:24:00,1659975840709,1,08/08/2022 17:24:00,94826,3,task-mn1e,NA,23527554,6895766,NA,complete,NA,62f138605c0756d38d6b0789,computer,Desktop or Laptop,Windows 10,Chrome 103.0.0.0,1536x864,1536x721,NA,ITT Ratings,2,for,4,NA,NA,ACCEPT,NA,NA,NA,NA,NA,NA,NA,batch4pro,batch4pro,6,4,1,Screen 1,continueButton,response_rating_scale_likert_active,14918.90000000596,NA,NA,Somewhat Disagree,1,0,1,0,NA,NA,NA,NA,1,statements,I don't like needles/felt unwell for a brief period after a previous vaccine,1,17/06/2021 12:43,17/06/2021 12:52,IP Address,For (I feel positively about the vaccines),Rarely,Rarely,34,Male,NA,Doctorate (PhD),control,31,3,For,Against
7,1659975843388,08/08/2022 16:24:03,1659975843359,1,08/08/2022 17:24:03,94826,3,task-mn1e,NA,23527554,6895766,NA,complete,NA,62f138605c0756d38d6b0789,computer,Desktop or Laptop,Windows 10,Chrome 103.0.0.0,1536x864,1536x721,NA,ITT Ratings,2,for,4,NA,NA,ACCEPT,NA,NA,NA,NA,NA,NA,NA,batch4pro,batch4pro,34,5,1,Screen 1,continueButton,response_rating_scale_likert_active,2638.9000000059605,NA,NA,Somewhat Disagree,1,0,1,0,NA,NA,NA,NA,1,statements,The government is denying our right to say no,1,17/06/2021 12:46,17/06/2021 12:53,IP Address,For (I feel positively about the vaccines),Rarely,Most weeks,22,Non-binary,NA,"Undergraduate degree (BSc, BA)",control,36,1,For,Against
8,1659975846867,08/08/2022 16:24:06,1659975846833,1,08/08/2022 17:24:06,94826,3,task-mn1e,NA,23527554,6895766,NA,complete,NA,62f138605c0756d38d6b0789,computer,Desktop or Laptop,Windows 10,Chrome 103.0.0.0,1536x864,1536x721,NA,ITT Ratings,2,for,4,NA,NA,ACCEPT,NA,NA,NA,NA,NA,NA,NA,batch4pro,batch4pro,4,6,1,Screen 1,continueButton,response_rating_scale_likert_active,3462.5999999940395,NA,NA,Disagree,1,0,1,0,NA,NA,NA,NA,1,statements,We don't know what the long term impact or effects are yet,1,17/06/2021 12:43,17/06/2021 12:52,IP Address,For (I feel positively about the vaccines),Rarely,Rarely,34,Male,NA,Doctorate (PhD),control,31,1,For,Against
9,1659975851790,08/08/2022 16:24:11,1659975851761,1,08/08/2022 17:24:11,94826,3,task-mn1e,NA,23527554,6895766,NA,complete,NA,62f138605c0756d38d6b0789,computer,Desktop or Laptop,Windows 10,Chrome 103.0.0.0,1536x864,1536x721,NA,ITT Ratings,2,for,4,NA,NA,ACCEPT,NA,NA,NA,NA,NA,NA,NA,batch4pro,batch4pro,37,7,1,Screen 1,continueButton,response_rating_scale_likert_active,4916,NA,NA,Agree,1,0,1,0,NA,NA,NA,NA,1,statements,Idon't want to die from Covid-19,1,17/06/2021 12:46,17/06/2021 12:53,IP Address,For (I feel positively about the vaccines),Rarely,Most weeks,22,Non-binary,NA,"Undergraduate degree (BSc, BA)",control,36,1,For,For
10,1659975855563,08/08/2022 16:24:15,1659975855531,1,08/08/2022 17:24:15,94826,3,task-mn1e,NA,23527554,6895766,NA,complete,NA,62f138605c0756d38d6b0789,computer,Desktop or Laptop,Windows 10,Chrome 103.0.0.0,1536x864,1536x721,NA,ITT Ratings,2,for,4,NA,NA,ACCEPT,NA,NA,NA,NA,NA,NA,NA,batch4pro,batch4pro,14,8,1,Screen 1,continueButton,response_rating_scale_likert_active,3759.5,NA,NA,Somewhat Disagree,1,0,1,0,NA,NA,NA,NA,1,statements,Vaccine companies are not making a profit so why not get it,1,17/06/2021 12:43,17/06/2021 12:52,IP Address,For (I feel positively about the vaccines),Rarely,Most weeks,25,Female,NA,"Postgraduate degree (MSc, MA, MPhil)",choice,32,2,For,For
11,1659975857285,08/08/2022 16:24:17,1659975857255,1,08/08/2022 17:24:17,94826,3,task-mn1e,NA,23527554,6895766,NA,complete,NA,62f138605c0756d38d6b0789,computer,Desktop or Laptop,Windows 10,Chrome 103.0.0.0,1536x864,1536x721,NA,ITT Ratings,2,for,4,NA,NA,ACCEPT,NA,NA,NA,NA,NA,NA,NA,batch4pro,batch4pro,29,9,1,Screen 1,continueButton,response_rating_scale_likert_active,1713.5999999940395,NA,NA,Somewhat Disagree,1,0,1,0,NA,NA,NA,NA,1,statements,We don't know the long term effects,1,17/06/2021 12:45,17/06/2021 12:53,IP Address,For (I feel positively about the vaccines),Rarely,Once or twice a year,30,Female,NA,"Undergraduate degree (BSc, BA)",choice,35,2,For,Against
12,1659975862429,08/08/2022 16:24:22,1659975862413,1,08/08/2022 17:24:22,94826,3,task-mn1e,NA,23527554,6895766,NA,complete,NA,62f138605c0756d38d6b0789,computer,Desktop or Laptop,Windows 10,Chrome 103.0.0.0,1536x864,1536x721,NA,ITT Ratings,2,for,4,NA,NA,ACCEPT,NA,NA,NA,NA,NA,NA,NA,batch4pro,batch4pro,51,10,1,Screen 1,continueButton,response_rating_scale_likert_active,5147.4000000059605,NA,NA,Strongly Agree,1,0,1,0,NA,NA,NA,NA,1,statements,to help protect the nhs so they are not too busy,1,17/06/2021 12:49,17/06/2021 12:54,IP Address,For (I feel positively about the vaccines),Rarely,Once or twice a year,20,Female,NA,Vocational Training / Apprenticeship,control,38,3,For,For
13,1659975867105,08/08/2022 16:24:27,1659975867074,1,08/08/2022 17:24:27,94826,3,task-mn1e,NA,23527554,6895766,NA,complete,NA,62f138605c0756d38d6b0789,computer,Desktop or Laptop,Windows 10,Chrome 103.0.0.0,1536x864,1536x721,NA,ITT Ratings,2,for,4,NA,NA,ACCEPT,NA,NA,NA,NA,NA,NA,NA,batch4pro,batch4pro,21,11,1,Screen 1,continueButton,response_rating_scale_likert_active,4619.100000023842,NA,NA,Neither Agree nor Disagree,1,0,1,0,NA,NA,NA,NA,1,statements,They don’t want the potential worry of getting COVID.,1,17/06/2021 12:41,17/06/2021 12:53,IP Address,For (I feel positively about the vaccines),Rarely,Rarely,45,Female,NA,"Undergraduate degree (BSc, BA)",choice,33,3,For,For
14,1659975869033,08/08/2022 16:24:29,1659975869008,1,08/08/2022 17:24:29,94826,3,task-mn1e,NA,23527554,6895766,NA,complete,NA,62f138605c0756d38d6b0789,computer,Desktop or Laptop,Windows 10,Chrome 103.0.0.0,1536x864,1536x721,NA,ITT Ratings,2,for,4,NA,NA,ACCEPT,NA,NA,NA,NA,NA,NA,NA,batch4pro,batch4pro,11,12,1,Screen 1,continueButton,response_rating_scale_likert_active,1924.2000000178816,NA,NA,Strongly Disagree,1,0,1,0,NA,NA,NA,NA,1,statements,The vaccine puts a chip in you so you can be tracked,1,17/06/2021 12:43,17/06/2021 12:52,IP Address,For (I feel positively about the vaccines),Rarely,Most weeks,25,Female,NA,"Postgraduate degree (MSc, MA, MPhil)",choice,32,2,For,Against
15,1659975885312,08/08/2022 16:24:45,1659975885278,1,08/08/2022 17:24:45,94826,3,task-mn1e,NA,23527554,6895766,NA,complete,NA,62f138605c0756d38d6b0789,computer,Desktop or Laptop,Windows 10,Chrome 103.0.0.0,1536x864,1536x721,NA,ITT Ratings,2,for,4,NA,NA,ACCEPT,NA,NA,NA,NA,NA,NA,NA,batch4pro,batch4pro,28,13,1,Screen 1,continueButton,response_rating_scale_likert_active,16260.59999999404,NA,NA,Disagree,1,0,1,0,NA,NA,NA,NA,1,statements,We haven't had long enough to test the vaccines,1,17/06/2021 12:45,17/06/2021 12:53,IP Address,For (I feel positively about the vaccines),Rarely,Once or twice a year,30,Female,NA,"Undergraduate degree (BSc, BA)",choice,35,1,For,Against
16,1659975888807,08/08/2022 16:24:48,1659975888746,1,08/08/2022 17:24:48,94826,3,task-mn1e,NA,23527554,6895766,NA,complete,NA,62f138605c0756d38d6b0789,computer,Desktop or Laptop,Windows 10,Chrome 103.0.0.0,1536x864,1536x721,NA,ITT Ratings,2,for,4,NA,NA,ACCEPT,NA,NA,NA,NA,NA,NA,NA,batch4pro,batch4pro,30,14,1,Screen 1,continueButton,response_rating_scale_likert_active,3458.2999999821186,NA,NA,Strongly Disagree,1,0,1,0,NA,NA,NA,NA,1,statements,I don't need a vaccine - I'm young and healthy.,1,17/06/2021 12:45,17/06/2021 12:53,IP Address,For (I feel positively about the vaccines),Rarely,Once or twice a year,30,Female,NA,"Undergraduate degree (BSc, BA)",choice,35,3,For,Against
17,1659975891688,08/08/2022 16:24:51,1659975891662,1,08/08/2022 17:24:51,94826,3,task-mn1e,NA,23527554,6895766,NA,complete,NA,62f138605c0756d38d6b0789,computer,Desktop or Laptop,Windows 10,Chrome 103.0.0.0,1536x864,1536x721,NA,ITT Ratings,2,for,4,NA,NA,ACCEPT,NA,NA,NA,NA,NA,NA,NA,batch4pro,batch4pro,20,15,1,Screen 1,continueButton,response_rating_scale_likert_active,2906.4000000059605,NA,NA,Somewhat Agree,1,0,1,0,NA,NA,NA,NA,1,statements,To get back to a sense of normality.,1,17/06/2021 12:41,17/06/2021 12:53,IP Address,For (I feel positively about the vaccines),Rarely,Rarely,45,Female,NA,"Undergraduate degree (BSc, BA)",choice,33,2,For,For
18,1659975893628,08/08/2022 16:24:53,1659975893584,1,08/08/2022 17:24:53,94826,3,task-mn1e,NA,23527554,6895766,NA,complete,NA,62f138605c0756d38d6b0789,computer,Desktop or Laptop,Windows 10,Chrome 103.0.0.0,1536x864,1536x721,NA,ITT Ratings,2,for,4,NA,NA,ACCEPT,NA,NA,NA,NA,NA,NA,NA,batch4pro,batch4pro,23,16,1,Screen 1,continueButton,response_rating_scale_likert_active,1911.5,NA,NA,Strongly Agree,1,0,1,0,NA,NA,NA,NA,1,statements,Protection for others,1,17/06/2021 12:45,17/06/2021 12:53,IP Address,For (I feel positively about the vaccines),Rarely,Rarely,38,Male,NA,"Undergraduate degree (BSc, BA)",choice,34,2,For,Against
19,1659975894778,08/08/2022 16:24:54,1659975894752,1,08/08/2022 17:24:54,94826,3,task-mn1e,NA,23527554,6895766,NA,complete,NA,62f138605c0756d38d6b0789,computer,Desktop or Laptop,Windows 10,Chrome 103.0.0.0,1536x864,1536x721,NA,ITT Ratings,2,for,4,NA,NA,ACCEPT,NA,NA,NA,NA,NA,NA,NA,batch4pro,batch4pro,43,17,1,Screen 1,continueButton,response_rating_scale_likert_active,1157.699999988079,NA,NA,Strongly Agree,1,0,1,0,NA,NA,NA,NA,1,statements,To protect my family and friends,1,17/06/2021 12:45,17/06/2021 12:54,IP Address,For (I feel positively about the vaccines),Rarely,Rarely,30,Female,NA,"Undergraduate degree (BSc, BA)",choice,37,1,For,For
20,1659975896896,08/08/2022 16:24:56,1659975896868,1,08/08/2022 17:24:56,94826,3,task-mn1e,NA,23527554,6895766,NA,complete,NA,62f138605c0756d38d6b0789,computer,Desktop or Laptop,Windows 10,Chrome 103.0.0.0,1536x864,1536x721,NA,ITT Ratings,2,for,4,NA,NA,ACCEPT,NA,NA,NA,NA,NA,NA,NA,batch4pro,batch4pro,2,18,1,Screen 1,continueButton,response_rating_scale_likert_active,2106.4000000059605,NA,NA,Somewhat Agree,1,0,1,0,NA,NA,NA,NA,1,statements,We would like to check you are reading each argument carefully. Please select 'Somewhat Agree' for this answer,1,NA,NA,NA,NA,NA,NA,NA,NA,NA,NA,NA,NA,check1,NA,NA
21,1659975898984,08/08/2022 16:24:58,1659975898946,1,08/08/2022 17:24:58,94826,3,task-mn1e,NA,23527554,6895766,NA,complete,NA,62f138605c0756d38d6b0789,computer,Desktop or Laptop,Windows 10,Chrome 103.0.0.0,1536x864,1536x721,NA,ITT Ratings,2,for,4,NA,NA,ACCEPT,NA,NA,NA,NA,NA,NA,NA,batch4pro,batch4pro,56,19,1,Screen 1,continueButton,response_rating_scale_likert_active,2068.5999999940395,NA,NA,Strongly Agree,1,0,1,0,NA,NA,NA,NA,1,statements,"I want to protect myself, my friends and my family",1,17/06/2021 12:47,17/06/2021 12:54,IP Address,For (I feel positively about the vaccines),Rarely,A few times a year,31,Female,NA,"Postgraduate degree (MSc, MA, MPhil)",choice,39,2,For,For
22,1659975901917,08/08/2022 16:25:01,1659975901890,1,08/08/2022 17:25:01,94826,3,task-mn1e,NA,23527554,6895766,NA,complete,NA,62f138605c0756d38d6b0789,computer,Desktop or Laptop,Windows 10,Chrome 103.0.0.0,1536x864,1536x721,NA,ITT Ratings,2,for,4,NA,NA,ACCEPT,NA,NA,NA,NA,NA,NA,NA,batch4pro,batch4pro,24,20,1,Screen 1,continueButton,response_rating_scale_likert_active,2934.9000000059605,NA,NA,Agree,1,0,1,0,NA,NA,NA,NA,1,statements,Allow us to get back to normal life,1,17/06/2021 12:45,17/06/2021 12:53,IP Address,For (I feel positively about the vaccines),Rarely,Rarely,38,Male,NA,"Undergraduate degree (BSc, BA)",choice,34,3,For,Against
